// Start Time: Unknown
// Update Rate: 100.0Hz
// Filter Profile: human (46.1)
// Option Flags: AHS Disabled ICC Disabled 
// Firmware Version: 4.0.2
PacketCounter	SampleTimeFine	Mat[1][1]	Mat[2][1]	Mat[3][1]	Mat[1][2]	Mat[2][2]	Mat[3][2]	Mat[1][3]	Mat[2][3]	Mat[3][3]
51869		0.051589	-0.100275	-0.993621	0.877085	0.480326	-0.002936	0.477556	-0.871339	0.112729
51870		0.051590	-0.100133	-0.993636	0.876981	0.480516	-0.002890	0.477747	-0.871251	0.112605
51871		0.051614	-0.099969	-0.993651	0.876839	0.480776	-0.002824	0.478006	-0.871126	0.112472
51872		0.051628	-0.099835	-0.993664	0.876771	0.480900	-0.002762	0.478129	-0.871073	0.112361
51873		0.051622	-0.099734	-0.993674	0.876773	0.480896	-0.002718	0.478125	-0.871086	0.112269
51874		0.051615	-0.099605	-0.993687	0.876773	0.480897	-0.002662	0.478127	-0.871101	0.112152
51875		0.051625	-0.099458	-0.993702	0.876751	0.480937	-0.002587	0.478166	-0.871095	0.112028
51876		0.051606	-0.099297	-0.993719	0.876746	0.480947	-0.002528	0.478177	-0.871109	0.111878
51877		0.051593	-0.099172	-0.993732	0.876684	0.481060	-0.002492	0.478292	-0.871060	0.111762
51878		0.051662	-0.099020	-0.993743	0.876633	0.481154	-0.002370	0.478379	-0.871026	0.111662
51879		0.051635	-0.098939	-0.993753	0.876559	0.481288	-0.002371	0.478516	-0.870961	0.111577
51880		0.051627	-0.098891	-0.993758	0.876469	0.481453	-0.002377	0.478683	-0.870875	0.111531
51881		0.051594	-0.098863	-0.993763	0.876382	0.481611	-0.002412	0.478845	-0.870791	0.111490
51882		0.051530	-0.098890	-0.993763	0.876347	0.481673	-0.002490	0.478916	-0.870753	0.111482
51883		0.051443	-0.098911	-0.993766	0.876338	0.481690	-0.002579	0.478942	-0.870742	0.111459
51884		0.051328	-0.098916	-0.993771	0.876293	0.481771	-0.002693	0.479036	-0.870697	0.111408
51885		0.051254	-0.098939	-0.993773	0.876227	0.481890	-0.002785	0.479165	-0.870628	0.111392
51886		0.051145	-0.098939	-0.993778	0.876161	0.482009	-0.002897	0.479297	-0.870562	0.111339
51887		0.051054	-0.098944	-0.993782	0.876022	0.482261	-0.003012	0.479560	-0.870422	0.111299
51888		0.050967	-0.098943	-0.993787	0.875951	0.482389	-0.003104	0.479699	-0.870351	0.111256
51889		0.050934	-0.098908	-0.993792	0.875871	0.482535	-0.003134	0.479850	-0.870274	0.111208
51890		0.050861	-0.098901	-0.993797	0.875821	0.482626	-0.003207	0.479949	-0.870225	0.111166
51891		0.050801	-0.098896	-0.993800	0.875836	0.482598	-0.003254	0.479928	-0.870240	0.111133
51892		0.050750	-0.098866	-0.993806	0.875823	0.482621	-0.003288	0.479957	-0.870231	0.111082
51893		0.050647	-0.098848	-0.993813	0.875828	0.482611	-0.003368	0.479958	-0.870239	0.111017
51894		0.050540	-0.098802	-0.993823	0.875826	0.482615	-0.003440	0.479973	-0.870242	0.110924
51895		0.050457	-0.098782	-0.993829	0.875752	0.482749	-0.003521	0.480118	-0.870170	0.110866
51896		0.050358	-0.098742	-0.993838	0.875734	0.482781	-0.003592	0.480161	-0.870156	0.110783
51897		0.050243	-0.098737	-0.993844	0.875657	0.482919	-0.003709	0.480312	-0.870081	0.110723
51898		0.050181	-0.098748	-0.993846	0.875597	0.483028	-0.003783	0.480430	-0.870019	0.110702
51899		0.050123	-0.098803	-0.993844	0.875575	0.483066	-0.003866	0.480474	-0.869991	0.110722
51900		0.050060	-0.098833	-0.993844	0.875603	0.483015	-0.003929	0.480430	-0.870016	0.110718
51901		0.050022	-0.098801	-0.993849	0.875552	0.483107	-0.003959	0.480527	-0.869969	0.110672
51902		0.049950	-0.098712	-0.993862	0.875593	0.483034	-0.003970	0.480461	-0.870020	0.110559
51903		0.049887	-0.098661	-0.993870	0.875614	0.482994	-0.003995	0.480428	-0.870047	0.110484
51904		0.049877	-0.098592	-0.993877	0.875566	0.483082	-0.003982	0.480517	-0.870006	0.110419
51905		0.049884	-0.098551	-0.993881	0.875460	0.483274	-0.003980	0.480709	-0.869904	0.110386
51906		0.049913	-0.098545	-0.993880	0.875374	0.483431	-0.003971	0.480863	-0.869818	0.110394
51907		0.049976	-0.098565	-0.993875	0.875298	0.483569	-0.003943	0.480995	-0.869739	0.110440
51908		0.050039	-0.098553	-0.993873	0.875238	0.483677	-0.003896	0.481098	-0.869680	0.110460
51909		0.050134	-0.098544	-0.993869	0.875249	0.483657	-0.003805	0.481067	-0.869692	0.110498
51910		0.050197	-0.098573	-0.993863	0.875236	0.483682	-0.003766	0.481085	-0.869675	0.110554
51911		0.050246	-0.098532	-0.993865	0.875259	0.483641	-0.003698	0.481038	-0.869703	0.110542
51912		0.050315	-0.098503	-0.993864	0.875357	0.483465	-0.003602	0.480853	-0.869804	0.110551
51913		0.050329	-0.098502	-0.993863	0.875511	0.483186	-0.003553	0.480571	-0.869959	0.110558
51914		0.050327	-0.098446	-0.993869	0.875713	0.482819	-0.003481	0.480202	-0.870169	0.110509
51915		0.050335	-0.098403	-0.993873	0.875869	0.482537	-0.003417	0.479917	-0.870330	0.110476
51916		0.050329	-0.098373	-0.993876	0.876049	0.482210	-0.003367	0.479588	-0.870515	0.110449
51917		0.050363	-0.098361	-0.993876	0.876196	0.481944	-0.003297	0.479317	-0.870663	0.110455
51918		0.050366	-0.098359	-0.993876	0.876318	0.481722	-0.003265	0.479093	-0.870787	0.110456
51919		0.050373	-0.098372	-0.993874	0.876379	0.481611	-0.003251	0.478980	-0.870847	0.110471
51920		0.050357	-0.098340	-0.993878	0.876455	0.481472	-0.003232	0.478843	-0.870927	0.110437
51921		0.050370	-0.098381	-0.993873	0.876431	0.481516	-0.003247	0.478886	-0.870898	0.110478
51922		0.050385	-0.098392	-0.993871	0.876470	0.481446	-0.003229	0.478813	-0.870936	0.110495
51923		0.050363	-0.098431	-0.993869	0.876545	0.481309	-0.003251	0.478678	-0.871007	0.110520
51924		0.050357	-0.098441	-0.993868	0.876579	0.481248	-0.003253	0.478617	-0.871040	0.110526
51925		0.050328	-0.098445	-0.993869	0.876624	0.481166	-0.003269	0.478538	-0.871084	0.110515
51926		0.050323	-0.098468	-0.993867	0.876672	0.481077	-0.003274	0.478449	-0.871131	0.110534
51927		0.050359	-0.098484	-0.993864	0.876733	0.480966	-0.003236	0.478334	-0.871190	0.110565
51928		0.050407	-0.098462	-0.993863	0.876767	0.480904	-0.003175	0.478266	-0.871227	0.110569
51929		0.050443	-0.098505	-0.993857	0.876792	0.480860	-0.003158	0.478217	-0.871246	0.110624
51930		0.050474	-0.098507	-0.993856	0.876841	0.480770	-0.003121	0.478124	-0.871296	0.110641
51931		0.050479	-0.098529	-0.993853	0.876887	0.480686	-0.003116	0.478038	-0.871340	0.110663
51932		0.050478	-0.098540	-0.993852	0.876973	0.480530	-0.003103	0.477881	-0.871425	0.110673
51933		0.050451	-0.098562	-0.993851	0.877106	0.480286	-0.003106	0.477639	-0.871556	0.110680
51934		0.050428	-0.098551	-0.993854	0.877228	0.480063	-0.003093	0.477417	-0.871681	0.110660
51935		0.050340	-0.098598	-0.993853	0.877411	0.479729	-0.003151	0.477091	-0.871859	0.110661
51936		0.050264	-0.098626	-0.993854	0.877475	0.479612	-0.003217	0.476981	-0.871921	0.110649
51937		0.050186	-0.098668	-0.993854	0.877483	0.479596	-0.003304	0.476974	-0.871925	0.110649
51938		0.050109	-0.098728	-0.993852	0.877458	0.479641	-0.003406	0.477029	-0.871893	0.110664
51939		0.050022	-0.098791	-0.993850	0.877293	0.479941	-0.003552	0.477341	-0.871721	0.110676
51940		0.049960	-0.098860	-0.993846	0.877174	0.480158	-0.003668	0.477566	-0.871593	0.110706
51941		0.049917	-0.098943	-0.993840	0.876962	0.480544	-0.003795	0.477959	-0.871371	0.110757
51942		0.049895	-0.099011	-0.993835	0.876791	0.480855	-0.003887	0.478275	-0.871192	0.110804
51943		0.049882	-0.099066	-0.993830	0.876606	0.481192	-0.003967	0.478616	-0.870999	0.110844
51944		0.049867	-0.099119	-0.993825	0.876461	0.481455	-0.004040	0.478883	-0.870848	0.110882
51945		0.049844	-0.099153	-0.993823	0.876421	0.481529	-0.004086	0.478960	-0.870804	0.110901
51946		0.049818	-0.099170	-0.993823	0.876391	0.481582	-0.004124	0.479016	-0.870772	0.110903
51947		0.049807	-0.099174	-0.993823	0.876314	0.481723	-0.004153	0.479159	-0.870694	0.110901
51948		0.049774	-0.099166	-0.993825	0.876405	0.481557	-0.004158	0.478996	-0.870786	0.110879
51949		0.049727	-0.099164	-0.993828	0.876566	0.481264	-0.004161	0.478706	-0.870949	0.110855
51950		0.049636	-0.099168	-0.993832	0.876708	0.481004	-0.004210	0.478455	-0.871092	0.110816
51951		0.049571	-0.099122	-0.993840	0.876812	0.480815	-0.004221	0.478271	-0.871201	0.110746
51952		0.049471	-0.099093	-0.993848	0.876939	0.480582	-0.004266	0.478048	-0.871333	0.110673
51953		0.049399	-0.099068	-0.993854	0.877085	0.480316	-0.004283	0.477788	-0.871483	0.110618
51954		0.049334	-0.099028	-0.993861	0.877166	0.480168	-0.004303	0.477646	-0.871569	0.110553
51955		0.049271	-0.099012	-0.993866	0.877126	0.480241	-0.004360	0.477727	-0.871530	0.110508
51956		0.049227	-0.098994	-0.993870	0.877170	0.480161	-0.004380	0.477651	-0.871577	0.110472
51957		0.049229	-0.099030	-0.993866	0.877209	0.480089	-0.004386	0.477578	-0.871612	0.110504
51958		0.049224	-0.099047	-0.993864	0.877185	0.480132	-0.004405	0.477623	-0.871586	0.110517
51959		0.049272	-0.099072	-0.993860	0.877079	0.480326	-0.004398	0.477812	-0.871477	0.110561
51960		0.049329	-0.099116	-0.993852	0.877039	0.480399	-0.004379	0.477880	-0.871432	0.110626
51961		0.049354	-0.099122	-0.993851	0.877049	0.480381	-0.004357	0.477859	-0.871441	0.110644
51962		0.049380	-0.099137	-0.993848	0.877062	0.480358	-0.004339	0.477833	-0.871451	0.110670
51963		0.049383	-0.099129	-0.993848	0.876982	0.480503	-0.004350	0.477978	-0.871373	0.110663
51964		0.049406	-0.099119	-0.993848	0.876975	0.480517	-0.004327	0.477990	-0.871366	0.110665
51965		0.049415	-0.099132	-0.993847	0.876873	0.480702	-0.004349	0.478175	-0.871263	0.110680
51966		0.049475	-0.099186	-0.993838	0.876839	0.480765	-0.004331	0.478233	-0.871221	0.110756
51967		0.049528	-0.099239	-0.993830	0.876840	0.480762	-0.004309	0.478224	-0.871217	0.110828
51968		0.049580	-0.099309	-0.993821	0.876779	0.480874	-0.004311	0.478330	-0.871148	0.110913
51969		0.049662	-0.099354	-0.993812	0.876728	0.480968	-0.004273	0.478416	-0.871090	0.110992
51970		0.049718	-0.099385	-0.993806	0.876672	0.481069	-0.004251	0.478512	-0.871031	0.111046
51971		0.049787	-0.099430	-0.993798	0.876661	0.481091	-0.004215	0.478526	-0.871014	0.111118
51972		0.049819	-0.099467	-0.993793	0.876683	0.481049	-0.004199	0.478481	-0.871033	0.111166
51973		0.049820	-0.099487	-0.993791	0.876660	0.481093	-0.004213	0.478525	-0.871006	0.111185
51974		0.049818	-0.099458	-0.993794	0.876699	0.481021	-0.004192	0.478453	-0.871049	0.111158
51975		0.049719	-0.099475	-0.993797	0.876687	0.481043	-0.004290	0.478486	-0.871035	0.111125
51976		0.049716	-0.099450	-0.993800	0.876606	0.481190	-0.004300	0.478634	-0.870957	0.111101
51977		0.049719	-0.099485	-0.993796	0.876433	0.481504	-0.004354	0.478950	-0.870779	0.111131
51978		0.049717	-0.099540	-0.993791	0.876252	0.481834	-0.004425	0.479282	-0.870591	0.111177
51979		0.049735	-0.099612	-0.993783	0.876011	0.482270	-0.004499	0.479720	-0.870341	0.111247
51980		0.049760	-0.099690	-0.993774	0.875845	0.482572	-0.004554	0.480021	-0.870165	0.111326
51981		0.049756	-0.099718	-0.993771	0.875693	0.482847	-0.004606	0.480298	-0.870009	0.111347
51982		0.049748	-0.099783	-0.993765	0.875605	0.483006	-0.004665	0.480460	-0.869913	0.111399
51983		0.049727	-0.099821	-0.993762	0.875451	0.483283	-0.004738	0.480741	-0.869755	0.111421
51984		0.049691	-0.099797	-0.993766	0.875464	0.483259	-0.004754	0.480721	-0.869771	0.111382
51985		0.049638	-0.099786	-0.993770	0.875441	0.483300	-0.004801	0.480768	-0.869749	0.111347
51986		0.049570	-0.099735	-0.993779	0.875518	0.483162	-0.004819	0.480637	-0.869832	0.111270
51987		0.049535	-0.099689	-0.993785	0.875477	0.483236	-0.004837	0.480715	-0.869796	0.111212
51988		0.049494	-0.099669	-0.993789	0.875510	0.483175	-0.004855	0.480658	-0.869832	0.111176
51989		0.049485	-0.099647	-0.993792	0.875552	0.483100	-0.004843	0.480583	-0.869876	0.111153
51990		0.049438	-0.099664	-0.993792	0.875517	0.483163	-0.004900	0.480652	-0.869839	0.111144
51991		0.049407	-0.099662	-0.993794	0.875440	0.483301	-0.004944	0.480795	-0.869763	0.111127
51992		0.049383	-0.099656	-0.993796	0.875442	0.483297	-0.004962	0.480793	-0.869766	0.111109
51993		0.049310	-0.099696	-0.993795	0.875445	0.483291	-0.005045	0.480796	-0.869765	0.111109
51994		0.049226	-0.099738	-0.993795	0.875483	0.483222	-0.005131	0.480736	-0.869798	0.111106
51995		0.049157	-0.099775	-0.993795	0.875509	0.483174	-0.005204	0.480695	-0.869821	0.111105
51996		0.049088	-0.099796	-0.993796	0.875542	0.483114	-0.005267	0.480642	-0.869852	0.111091
51997		0.049058	-0.099824	-0.993795	0.875498	0.483193	-0.005317	0.480726	-0.869804	0.111100
51998		0.049052	-0.099847	-0.993793	0.875546	0.483105	-0.005322	0.480637	-0.869851	0.111118
51999		0.048982	-0.099878	-0.993793	0.875612	0.482984	-0.005383	0.480524	-0.869914	0.111112
52000		0.048978	-0.099838	-0.993798	0.875647	0.482922	-0.005360	0.480462	-0.869953	0.111075
52001		0.048908	-0.099802	-0.993805	0.875705	0.482817	-0.005390	0.480363	-0.870016	0.111011
52002		0.048898	-0.099747	-0.993811	0.875672	0.482877	-0.005380	0.480425	-0.869989	0.110958
52003		0.048924	-0.099714	-0.993813	0.875550	0.483097	-0.005369	0.480644	-0.869870	0.110939
52004		0.048950	-0.099697	-0.993813	0.875459	0.483263	-0.005359	0.480808	-0.869780	0.110936
52005		0.049004	-0.099657	-0.993814	0.875394	0.483380	-0.005307	0.480919	-0.869719	0.110927
52006		0.049061	-0.099637	-0.993814	0.875340	0.483480	-0.005260	0.481013	-0.869667	0.110936
52007		0.049113	-0.099587	-0.993816	0.875259	0.483627	-0.005208	0.481155	-0.869590	0.110917
52008		0.049188	-0.099543	-0.993817	0.875189	0.483754	-0.005138	0.481274	-0.869525	0.110914
52009		0.049253	-0.099487	-0.993819	0.875164	0.483800	-0.005059	0.481313	-0.869505	0.110896
52010		0.049321	-0.099421	-0.993822	0.875084	0.483945	-0.004985	0.481451	-0.869432	0.110871
52011		0.049363	-0.099341	-0.993828	0.875076	0.483960	-0.004911	0.481461	-0.869433	0.110821
52012		0.049390	-0.099292	-0.993832	0.875074	0.483964	-0.004864	0.481462	-0.869437	0.110791
52013		0.049409	-0.099227	-0.993837	0.875102	0.483914	-0.004809	0.481409	-0.869472	0.110744
52014		0.049426	-0.099164	-0.993843	0.875174	0.483785	-0.004746	0.481277	-0.869551	0.110697
52015		0.049444	-0.099121	-0.993846	0.875287	0.483580	-0.004684	0.481069	-0.869670	0.110669
52016		0.049443	-0.099059	-0.993852	0.875417	0.483347	-0.004626	0.480834	-0.869806	0.110616
52017		0.049459	-0.099014	-0.993856	0.875466	0.483258	-0.004578	0.480743	-0.869861	0.110585
52018		0.049452	-0.098944	-0.993863	0.875600	0.483015	-0.004519	0.480498	-0.870004	0.110521
52019		0.049439	-0.098906	-0.993868	0.875716	0.482806	-0.004485	0.480289	-0.870124	0.110483
52020		0.049445	-0.098875	-0.993871	0.875797	0.482659	-0.004446	0.480140	-0.870209	0.110459
52021		0.049419	-0.098825	-0.993877	0.875768	0.482712	-0.004452	0.480197	-0.870185	0.110403
52022		0.049386	-0.098812	-0.993880	0.875786	0.482680	-0.004470	0.480167	-0.870205	0.110376
52023		0.049398	-0.098809	-0.993880	0.875674	0.482883	-0.004484	0.480370	-0.870093	0.110377
52024		0.049468	-0.098796	-0.993877	0.875656	0.482916	-0.004421	0.480396	-0.870076	0.110400
52025		0.049496	-0.098799	-0.993876	0.875574	0.483063	-0.004415	0.480541	-0.869993	0.110415
52026		0.049523	-0.098822	-0.993872	0.875529	0.483145	-0.004413	0.480621	-0.869945	0.110448
52027		0.049593	-0.098813	-0.993869	0.875455	0.483279	-0.004365	0.480748	-0.869872	0.110474
52028		0.049643	-0.098821	-0.993866	0.875390	0.483399	-0.004340	0.480863	-0.869805	0.110504
52029		0.049726	-0.098828	-0.993861	0.875356	0.483460	-0.004278	0.480915	-0.869770	0.110550
52030		0.049777	-0.098813	-0.993860	0.875322	0.483522	-0.004233	0.480971	-0.869737	0.110561
52031		0.049798	-0.098786	-0.993862	0.875323	0.483520	-0.004202	0.480968	-0.869741	0.110548
52032		0.049815	-0.098781	-0.993862	0.875336	0.483497	-0.004181	0.480942	-0.869754	0.110552
52033		0.049852	-0.098770	-0.993861	0.875357	0.483460	-0.004138	0.480900	-0.869777	0.110560
52034		0.049864	-0.098756	-0.993862	0.875375	0.483427	-0.004117	0.480866	-0.869796	0.110554
52035		0.049891	-0.098747	-0.993861	0.875295	0.483573	-0.004107	0.481010	-0.869716	0.110559
52036		0.049885	-0.098743	-0.993862	0.875313	0.483540	-0.004107	0.480978	-0.869735	0.110553
52037		0.049919	-0.098720	-0.993862	0.875269	0.483619	-0.004075	0.481053	-0.869694	0.110548
52038		0.049902	-0.098698	-0.993865	0.875298	0.483567	-0.004073	0.481003	-0.869725	0.110521
52039		0.049832	-0.098728	-0.993866	0.875374	0.483428	-0.004131	0.480870	-0.869799	0.110514
52040		0.049822	-0.098692	-0.993870	0.875430	0.483328	-0.004110	0.480771	-0.869858	0.110478
52041		0.049779	-0.098678	-0.993874	0.875482	0.483232	-0.004129	0.480679	-0.869913	0.110445
52042		0.049741	-0.098669	-0.993876	0.875521	0.483162	-0.004149	0.480613	-0.869953	0.110420
52043		0.049713	-0.098656	-0.993879	0.875462	0.483268	-0.004181	0.480723	-0.869896	0.110394
52044		0.049680	-0.098656	-0.993881	0.875496	0.483208	-0.004202	0.480665	-0.869930	0.110379
52045		0.049642	-0.098677	-0.993881	0.875496	0.483207	-0.004246	0.480669	-0.869928	0.110378
52046		0.049599	-0.098694	-0.993881	0.875513	0.483176	-0.004288	0.480642	-0.869943	0.110373
52047		0.049537	-0.098736	-0.993880	0.875438	0.483311	-0.004380	0.480786	-0.869863	0.110379
52048		0.049539	-0.098739	-0.993879	0.875440	0.483308	-0.004379	0.480782	-0.869865	0.110383
52049		0.049495	-0.098822	-0.993873	0.875404	0.483372	-0.004467	0.480852	-0.869819	0.110434
52050		0.049490	-0.098827	-0.993873	0.875364	0.483444	-0.004483	0.480925	-0.869779	0.110435
52051		0.049515	-0.098863	-0.993868	0.875200	0.483740	-0.004516	0.481220	-0.869610	0.110477
52052		0.049505	-0.098894	-0.993866	0.875139	0.483851	-0.004554	0.481333	-0.869545	0.110499
52053		0.049487	-0.098947	-0.993861	0.875075	0.483966	-0.004610	0.481451	-0.869475	0.110536
52054		0.049452	-0.098981	-0.993860	0.875029	0.484049	-0.004669	0.481539	-0.869425	0.110548
52055		0.049422	-0.099029	-0.993857	0.874961	0.484171	-0.004734	0.481665	-0.869352	0.110575
52056		0.049368	-0.099087	-0.993853	0.874930	0.484226	-0.004816	0.481727	-0.869314	0.110600
52057		0.049329	-0.099115	-0.993853	0.874838	0.484390	-0.004886	0.481897	-0.869219	0.110604
52058		0.049274	-0.099152	-0.993852	0.874850	0.484369	-0.004949	0.481882	-0.869227	0.110610
52059		0.049207	-0.099203	-0.993850	0.874852	0.484363	-0.005032	0.481884	-0.869224	0.110622
52060		0.049158	-0.099235	-0.993849	0.874843	0.484380	-0.005093	0.481906	-0.869211	0.110626
52061		0.049070	-0.099280	-0.993849	0.874836	0.484391	-0.005194	0.481927	-0.869200	0.110623
52062		0.049055	-0.099302	-0.993847	0.874780	0.484492	-0.005231	0.482030	-0.869141	0.110634
52063		0.049036	-0.099269	-0.993852	0.874731	0.484581	-0.005243	0.482122	-0.869095	0.110595
52064		0.048981	-0.099279	-0.993853	0.874711	0.484616	-0.005301	0.482164	-0.869075	0.110577
52065		0.049004	-0.099246	-0.993855	0.874637	0.484749	-0.005281	0.482294	-0.869004	0.110559
52066		0.049003	-0.099212	-0.993859	0.874603	0.484810	-0.005273	0.482356	-0.868974	0.110528
52067		0.049032	-0.099153	-0.993863	0.874617	0.484786	-0.005216	0.482329	-0.868994	0.110491
52068		0.049064	-0.099087	-0.993869	0.874579	0.484856	-0.005164	0.482395	-0.868963	0.110448
52069		0.049163	-0.099063	-0.993866	0.874523	0.484957	-0.005079	0.482485	-0.868909	0.110475
52070		0.049223	-0.098996	-0.993870	0.874533	0.484941	-0.004991	0.482462	-0.868926	0.110445
52071		0.049270	-0.098953	-0.993872	0.874553	0.484904	-0.004924	0.482420	-0.868951	0.110431
52072		0.049378	-0.098846	-0.993877	0.874569	0.484878	-0.004772	0.482381	-0.868978	0.110390
52073		0.049423	-0.098770	-0.993882	0.874600	0.484822	-0.004689	0.482319	-0.869018	0.110346
52074		0.049490	-0.098693	-0.993887	0.874709	0.484626	-0.004568	0.482114	-0.869136	0.110312
52075		0.049528	-0.098628	-0.993891	0.874857	0.484361	-0.004468	0.481843	-0.869291	0.110275
52076		0.049505	-0.098517	-0.993903	0.874992	0.484117	-0.004405	0.481599	-0.869439	0.110168
52077		0.049491	-0.098390	-0.993916	0.875047	0.484019	-0.004342	0.481501	-0.869509	0.110051
52078		0.049508	-0.098300	-0.993925	0.875088	0.483946	-0.004274	0.481426	-0.869560	0.109980
52079		0.049514	-0.098298	-0.993924	0.874939	0.484213	-0.004302	0.481694	-0.869411	0.109980
52080		0.049559	-0.098292	-0.993923	0.874805	0.484456	-0.004290	0.481933	-0.869276	0.109996
52081		0.049643	-0.098328	-0.993915	0.874562	0.484894	-0.004289	0.482365	-0.869028	0.110066
52082		0.049751	-0.098383	-0.993904	0.874385	0.485213	-0.004262	0.482675	-0.868843	0.110164
52083		0.049864	-0.098436	-0.993893	0.874118	0.485694	-0.004248	0.483146	-0.868569	0.110263
52084		0.049937	-0.098488	-0.993885	0.873972	0.485957	-0.004243	0.483403	-0.868416	0.110343
52085		0.050044	-0.098479	-0.993880	0.873879	0.486125	-0.004166	0.483560	-0.868322	0.110387
52086		0.050096	-0.098459	-0.993879	0.873771	0.486320	-0.004135	0.483750	-0.868216	0.110393
52087		0.050129	-0.098418	-0.993882	0.873644	0.486548	-0.004115	0.483976	-0.868093	0.110373
52088		0.050145	-0.098365	-0.993886	0.873669	0.486505	-0.004070	0.483931	-0.868123	0.110334
52089		0.050154	-0.098358	-0.993886	0.873675	0.486493	-0.004057	0.483918	-0.868130	0.110332
52090		0.050150	-0.098344	-0.993888	0.873740	0.486376	-0.004038	0.483800	-0.868198	0.110319
52091		0.050156	-0.098329	-0.993889	0.873766	0.486330	-0.004020	0.483754	-0.868225	0.110309
52092		0.050159	-0.098345	-0.993887	0.873783	0.486299	-0.004022	0.483722	-0.868240	0.110325
52093		0.050160	-0.098342	-0.993888	0.873824	0.486226	-0.004010	0.483648	-0.868282	0.110323
52094		0.050160	-0.098356	-0.993886	0.873778	0.486308	-0.004027	0.483731	-0.868234	0.110334
52095		0.050164	-0.098357	-0.993886	0.873702	0.486445	-0.004042	0.483869	-0.868157	0.110336
52096		0.050224	-0.098370	-0.993882	0.873609	0.486612	-0.004016	0.484030	-0.868062	0.110376
52097		0.050215	-0.098426	-0.993877	0.873502	0.486803	-0.004076	0.484223	-0.867949	0.110420
52098		0.050237	-0.098462	-0.993872	0.873419	0.486952	-0.004093	0.484371	-0.867861	0.110461
52099		0.050236	-0.098492	-0.993869	0.873413	0.486963	-0.004111	0.484383	-0.867851	0.110488
52100		0.050247	-0.098543	-0.993863	0.873445	0.486905	-0.004118	0.484322	-0.867879	0.110537
52101		0.050229	-0.098661	-0.993853	0.873625	0.486582	-0.004150	0.484000	-0.868046	0.110633
52102		0.050182	-0.098714	-0.993850	0.873768	0.486325	-0.004185	0.483747	-0.868184	0.110658
52103		0.050157	-0.098698	-0.993853	0.873892	0.486103	-0.004171	0.483526	-0.868310	0.110633
52104		0.050127	-0.098701	-0.993854	0.873988	0.485930	-0.004177	0.483355	-0.868407	0.110622
52105		0.050116	-0.098712	-0.993853	0.873948	0.486001	-0.004201	0.483428	-0.868366	0.110626
52106		0.050121	-0.098722	-0.993852	0.873882	0.486120	-0.004216	0.483548	-0.868298	0.110636
52107		0.050157	-0.098740	-0.993848	0.873796	0.486274	-0.004213	0.483698	-0.868210	0.110669
52108		0.050250	-0.098785	-0.993839	0.873714	0.486422	-0.004173	0.483838	-0.868121	0.110753
52109		0.050393	-0.098842	-0.993826	0.873616	0.486599	-0.004098	0.484000	-0.868016	0.110871
52110		0.050508	-0.098864	-0.993818	0.873571	0.486681	-0.004017	0.484070	-0.867967	0.110946
52111		0.050603	-0.098917	-0.993808	0.873574	0.486676	-0.003960	0.484054	-0.867965	0.111038
52112		0.050720	-0.098928	-0.993801	0.873576	0.486672	-0.003861	0.484037	-0.867965	0.111106
52113		0.050788	-0.098894	-0.993801	0.873726	0.486405	-0.003751	0.483760	-0.868119	0.111110
52114		0.050807	-0.098884	-0.993801	0.873860	0.486164	-0.003698	0.483516	-0.868255	0.111111
52115		0.050821	-0.098858	-0.993803	0.873963	0.485979	-0.003650	0.483328	-0.868362	0.111096
52116		0.050812	-0.098803	-0.993809	0.874124	0.485690	-0.003594	0.483038	-0.868529	0.111045
52117		0.050775	-0.098738	-0.993817	0.874159	0.485626	-0.003586	0.482978	-0.868572	0.110971
52118		0.050783	-0.098683	-0.993822	0.874273	0.485422	-0.003527	0.482772	-0.868693	0.110927
52119		0.050778	-0.098673	-0.993824	0.874336	0.485308	-0.003512	0.482657	-0.868758	0.110916
52120		0.050774	-0.098659	-0.993825	0.874402	0.485190	-0.003494	0.482539	-0.868825	0.110903
52121		0.050822	-0.098642	-0.993824	0.874415	0.485166	-0.003439	0.482509	-0.868840	0.110911
52122		0.050827	-0.098584	-0.993830	0.874466	0.485076	-0.003395	0.482417	-0.868897	0.110863
52123		0.050824	-0.098525	-0.993836	0.874544	0.484935	-0.003351	0.482276	-0.868983	0.110811
52124		0.050809	-0.098429	-0.993846	0.874605	0.484824	-0.003303	0.482166	-0.869055	0.110720
52125		0.050808	-0.098303	-0.993859	0.874612	0.484812	-0.003241	0.482153	-0.869077	0.110609
52126		0.050752	-0.098206	-0.993871	0.874663	0.484721	-0.003231	0.482067	-0.869138	0.110497
52127		0.050678	-0.098137	-0.993882	0.874754	0.484557	-0.003242	0.481911	-0.869237	0.110402
52128		0.050634	-0.098015	-0.993896	0.874736	0.484588	-0.003225	0.481946	-0.869234	0.110274
52129		0.050552	-0.097907	-0.993911	0.874702	0.484650	-0.003252	0.482017	-0.869212	0.110139
52130		0.050436	-0.097800	-0.993927	0.874653	0.484739	-0.003314	0.482119	-0.869174	0.109989
52131		0.050345	-0.097718	-0.993940	0.874594	0.484844	-0.003367	0.482235	-0.869124	0.109874
52132		0.050251	-0.097642	-0.993952	0.874450	0.485104	-0.003445	0.482507	-0.868988	0.109760
52133		0.050151	-0.097560	-0.993965	0.874281	0.485408	-0.003532	0.482823	-0.868827	0.109638
52134		0.050049	-0.097494	-0.993977	0.874036	0.485848	-0.003644	0.483277	-0.868589	0.109529
52135		0.049997	-0.097386	-0.993990	0.873718	0.486419	-0.003709	0.483856	-0.868282	0.109407
52136		0.049902	-0.097295	-0.994004	0.873352	0.487075	-0.003830	0.484527	-0.867924	0.109279
52137		0.049802	-0.097165	-0.994021	0.872829	0.488010	-0.003972	0.485478	-0.867413	0.109112
52138		0.049682	-0.097031	-0.994041	0.872346	0.488872	-0.004120	0.486359	-0.866942	0.108933
52139		0.049513	-0.096876	-0.994064	0.871751	0.489931	-0.004325	0.487442	-0.866362	0.108710
52140		0.049288	-0.096698	-0.994093	0.871180	0.490942	-0.004561	0.488483	-0.865809	0.108439
52141		0.048960	-0.096534	-0.994125	0.870597	0.491973	-0.004896	0.489555	-0.865242	0.108129
52142		0.048648	-0.096392	-0.994154	0.869985	0.493051	-0.005234	0.490673	-0.864644	0.107846
52143		0.048213	-0.096292	-0.994185	0.869374	0.494121	-0.005698	0.491796	-0.864044	0.107537
52144		0.047772	-0.096191	-0.994216	0.868784	0.495153	-0.006161	0.492881	-0.863465	0.107224
52145		0.047346	-0.096101	-0.994245	0.868243	0.496096	-0.006606	0.493875	-0.862933	0.106928
52146		0.046951	-0.096063	-0.994267	0.867654	0.497118	-0.007058	0.494946	-0.862349	0.106689
52147		0.046629	-0.096023	-0.994286	0.867049	0.498168	-0.007449	0.496037	-0.861747	0.106486
52148		0.046414	-0.095951	-0.994303	0.866406	0.499281	-0.007738	0.497179	-0.861111	0.106306
52149		0.046270	-0.095908	-0.994314	0.865800	0.500327	-0.007971	0.498247	-0.860508	0.106187
52150		0.046189	-0.095788	-0.994330	0.865233	0.501305	-0.008101	0.499238	-0.859952	0.106033
52151		0.046133	-0.095651	-0.994345	0.864760	0.502119	-0.008181	0.500062	-0.859493	0.105879
52152		0.046051	-0.095408	-0.994372	0.864461	0.502633	-0.008192	0.500586	-0.859219	0.105624
52153		0.045875	-0.095178	-0.994403	0.864353	0.502818	-0.008251	0.500789	-0.859137	0.105333
52154		0.045616	-0.094872	-0.994444	0.864397	0.502741	-0.008312	0.500737	-0.859215	0.104940
52155		0.045232	-0.094567	-0.994490	0.864505	0.502553	-0.008469	0.500585	-0.859359	0.104485
52156		0.044735	-0.094254	-0.994543	0.864802	0.502038	-0.008680	0.500116	-0.859694	0.103970
52157		0.044184	-0.093941	-0.994597	0.865099	0.501522	-0.008938	0.499652	-0.860029	0.103427
52158		0.043617	-0.093655	-0.994649	0.865366	0.501056	-0.009231	0.499239	-0.860332	0.102901
52159		0.043100	-0.093408	-0.994695	0.865625	0.500602	-0.009502	0.498834	-0.860623	0.102432
52160		0.042554	-0.093218	-0.994736	0.865808	0.500279	-0.009843	0.498563	-0.860832	0.101997
52161		0.042014	-0.093101	-0.994770	0.865923	0.500073	-0.010230	0.498410	-0.860964	0.101628
52162		0.041459	-0.092986	-0.994804	0.866017	0.499902	-0.010635	0.498293	-0.861076	0.101252
52163		0.040922	-0.092889	-0.994835	0.866040	0.499852	-0.011048	0.498297	-0.861115	0.100901
52164		0.040389	-0.092810	-0.994864	0.866112	0.499719	-0.011457	0.498216	-0.861201	0.100567
52165		0.039795	-0.092757	-0.994893	0.866143	0.499653	-0.011940	0.498209	-0.861245	0.100225
52166		0.039213	-0.092697	-0.994922	0.866251	0.499456	-0.012393	0.498068	-0.861366	0.099884
52167		0.038580	-0.092684	-0.994948	0.866340	0.499287	-0.012917	0.497962	-0.861465	0.099558
52168		0.037882	-0.092635	-0.994979	0.866547	0.498913	-0.013458	0.497655	-0.861687	0.099172
52169		0.037237	-0.092548	-0.995012	0.866775	0.498505	-0.013930	0.497307	-0.861933	0.098781
52170		0.036498	-0.092404	-0.995052	0.867124	0.497884	-0.014429	0.496754	-0.862307	0.098298
52171		0.035705	-0.092223	-0.995098	0.867498	0.497215	-0.014954	0.496157	-0.862712	0.097756
52172		0.034839	-0.092044	-0.995145	0.867914	0.496472	-0.015536	0.495492	-0.863159	0.097182
52173		0.033944	-0.091862	-0.995193	0.868346	0.495696	-0.016138	0.494795	-0.863625	0.096594
52174		0.032996	-0.091704	-0.995239	0.868757	0.494953	-0.016804	0.494138	-0.864067	0.096000
52175		0.032167	-0.091563	-0.995280	0.869063	0.494396	-0.017395	0.493655	-0.864401	0.095478
52176		0.031300	-0.091438	-0.995319	0.869327	0.493908	-0.018036	0.493245	-0.864693	0.094949
52177		0.030505	-0.091332	-0.995353	0.869434	0.493698	-0.018655	0.493107	-0.864824	0.094467
52178		0.029742	-0.091247	-0.995384	0.869489	0.493576	-0.019266	0.493056	-0.864902	0.094018
52179		0.029019	-0.091141	-0.995415	0.869432	0.493654	-0.019853	0.493200	-0.864869	0.093566
52180		0.028259	-0.091037	-0.995447	0.869374	0.493730	-0.020473	0.493346	-0.864837	0.093097
52181		0.027483	-0.090891	-0.995482	0.869122	0.494146	-0.021123	0.493833	-0.864615	0.092576
52182		0.026778	-0.090688	-0.995519	0.868966	0.494398	-0.021664	0.494147	-0.864492	0.092044
52183		0.026013	-0.090481	-0.995558	0.868741	0.494765	-0.022267	0.494582	-0.864303	0.091475
52184		0.025231	-0.090330	-0.995592	0.868456	0.495236	-0.022924	0.495123	-0.864050	0.090943
52185		0.024472	-0.090156	-0.995627	0.868173	0.495703	-0.023547	0.495658	-0.863800	0.090402
52186		0.023680	-0.090020	-0.995658	0.867783	0.496352	-0.024238	0.496379	-0.863441	0.089871
52187		0.022862	-0.089904	-0.995688	0.867327	0.497111	-0.024971	0.497213	-0.863017	0.089341
52188		0.022050	-0.089791	-0.995717	0.866874	0.497864	-0.025699	0.498039	-0.862594	0.088815
52189		0.021263	-0.089666	-0.995745	0.866356	0.498727	-0.026409	0.498973	-0.862108	0.088287
52190		0.020422	-0.089506	-0.995777	0.865841	0.499582	-0.027148	0.499902	-0.861630	0.087701
52191		0.019609	-0.089369	-0.995806	0.865236	0.500588	-0.027888	0.500981	-0.861060	0.087141
52192		0.018776	-0.089191	-0.995838	0.864648	0.501563	-0.028619	0.502028	-0.860511	0.086536
52193		0.017958	-0.089006	-0.995869	0.863964	0.502698	-0.029349	0.503233	-0.859868	0.085925
52194		0.017191	-0.088800	-0.995901	0.863249	0.503884	-0.030028	0.504485	-0.859195	0.085318
52195		0.016487	-0.088583	-0.995932	0.862400	0.505297	-0.030667	0.505958	-0.858387	0.084725
52196		0.015855	-0.088344	-0.995964	0.861543	0.506722	-0.031232	0.507436	-0.857571	0.084146
52197		0.015230	-0.088140	-0.995992	0.860726	0.508074	-0.031800	0.508841	-0.856792	0.083602
52198		0.014602	-0.087902	-0.996022	0.859919	0.509404	-0.032350	0.510221	-0.856026	0.083027
52199		0.013972	-0.087679	-0.996051	0.859117	0.510720	-0.032906	0.511589	-0.855264	0.082463
52200		0.013403	-0.087471	-0.996077	0.858290	0.512076	-0.033419	0.512990	-0.854475	0.081939
52201		0.012901	-0.087272	-0.996101	0.857370	0.513583	-0.033893	0.514539	-0.853590	0.081450
52202		0.012484	-0.087083	-0.996123	0.856414	0.515148	-0.034302	0.516138	-0.852666	0.081011
52203		0.012125	-0.086889	-0.996144	0.855367	0.516861	-0.034672	0.517881	-0.851648	0.080589
52204		0.011803	-0.086681	-0.996166	0.854347	0.518523	-0.034997	0.519569	-0.850659	0.080176
52205		0.011500	-0.086480	-0.996187	0.853288	0.520242	-0.035313	0.521313	-0.849629	0.079775
52206		0.011196	-0.086277	-0.996208	0.852359	0.521743	-0.035607	0.522837	-0.848729	0.079381
52207		0.010776	-0.085933	-0.996243	0.851621	0.522927	-0.035895	0.524047	-0.848035	0.078817
52208		0.010261	-0.085573	-0.996279	0.850849	0.524157	-0.036258	0.525310	-0.847311	0.078188
52209		0.009781	-0.085182	-0.996317	0.850050	0.525431	-0.036578	0.526612	-0.846562	0.077548
52210		0.009305	-0.084900	-0.996346	0.849238	0.526715	-0.036951	0.527927	-0.845792	0.077001
52211		0.008872	-0.084660	-0.996370	0.848415	0.528015	-0.037310	0.529257	-0.845005	0.076512
52212		0.008451	-0.084474	-0.996390	0.847645	0.529225	-0.037679	0.530497	-0.844266	0.076076
52213		0.008088	-0.084322	-0.996406	0.846851	0.530470	-0.038018	0.531769	-0.843500	0.075699
52214		0.007893	-0.084189	-0.996419	0.846102	0.531649	-0.038217	0.532962	-0.842770	0.075428
52215		0.007733	-0.084099	-0.996427	0.845304	0.532903	-0.038417	0.534230	-0.841987	0.075210
52216		0.007734	-0.083905	-0.996444	0.844382	0.534360	-0.038442	0.535686	-0.841082	0.074980
52217		0.007743	-0.083709	-0.996460	0.843395	0.535915	-0.038466	0.537238	-0.840112	0.074749
52218		0.007753	-0.083480	-0.996479	0.842330	0.537587	-0.038482	0.538906	-0.839066	0.074485
52219		0.007772	-0.083226	-0.996500	0.841206	0.539343	-0.038485	0.540658	-0.837963	0.074202
52220		0.007774	-0.083006	-0.996519	0.840275	0.540793	-0.038491	0.542105	-0.837050	0.073952
52221		0.007658	-0.082803	-0.996537	0.839431	0.542095	-0.038592	0.543413	-0.836228	0.073659
52222		0.007496	-0.082576	-0.996557	0.838789	0.543080	-0.038691	0.544405	-0.835611	0.073335
52223		0.007271	-0.082461	-0.996568	0.838269	0.543869	-0.038886	0.545209	-0.835109	0.073079
52224		0.007022	-0.082331	-0.996580	0.837802	0.544574	-0.039086	0.545929	-0.834662	0.072801
52225		0.006715	-0.082209	-0.996592	0.837384	0.545199	-0.039331	0.546574	-0.834266	0.072502
52226		0.006410	-0.082118	-0.996602	0.837042	0.545705	-0.039581	0.547101	-0.833944	0.072234
52227		0.006180	-0.082062	-0.996608	0.836727	0.546173	-0.039785	0.547585	-0.833643	0.072039
52228		0.006024	-0.082033	-0.996611	0.836485	0.546534	-0.039930	0.547957	-0.833410	0.071912
52229		0.005964	-0.082001	-0.996614	0.836214	0.546942	-0.039998	0.548371	-0.833145	0.071833
52230		0.005846	-0.082013	-0.996614	0.836002	0.547258	-0.040130	0.548696	-0.832936	0.071762
52231		0.005844	-0.081971	-0.996618	0.835858	0.547478	-0.040128	0.548915	-0.832796	0.071716
52232		0.005712	-0.081981	-0.996618	0.835710	0.547694	-0.040263	0.549142	-0.832653	0.071640
52233		0.005601	-0.081969	-0.996619	0.835560	0.547915	-0.040369	0.549371	-0.832508	0.071559
52234		0.005393	-0.081992	-0.996618	0.835581	0.547869	-0.040552	0.549341	-0.832536	0.071465
52235		0.005083	-0.082062	-0.996614	0.835790	0.547529	-0.040821	0.549025	-0.832753	0.071369
52236		0.004742	-0.082159	-0.996608	0.836058	0.547097	-0.041124	0.548620	-0.833028	0.071284
52237		0.004401	-0.082339	-0.996595	0.836366	0.546601	-0.041467	0.548154	-0.833335	0.071271
52238		0.004119	-0.082593	-0.996575	0.836708	0.546052	-0.041797	0.547634	-0.833670	0.071356
52239		0.003924	-0.082783	-0.996560	0.837049	0.545512	-0.042019	0.547114	-0.834005	0.071433
52240		0.003810	-0.082992	-0.996543	0.837275	0.545151	-0.042199	0.546768	-0.834220	0.071564
52241		0.003802	-0.083190	-0.996526	0.837474	0.544838	-0.042287	0.546463	-0.834405	0.071741
52242		0.003949	-0.083411	-0.996507	0.837499	0.544800	-0.042283	0.546424	-0.834407	0.072008
52243		0.004201	-0.083610	-0.996490	0.837454	0.544877	-0.042187	0.546491	-0.834337	0.072309
52244		0.004543	-0.083796	-0.996473	0.837365	0.545027	-0.042015	0.546625	-0.834220	0.072644
52245		0.004945	-0.084003	-0.996453	0.837322	0.545109	-0.041798	0.546687	-0.834146	0.073033
52246		0.005336	-0.084158	-0.996438	0.837272	0.545204	-0.041564	0.546760	-0.834068	0.073373
52247		0.005765	-0.084285	-0.996425	0.837273	0.545226	-0.041275	0.546755	-0.834041	0.073713
52248		0.006235	-0.084382	-0.996414	0.837388	0.545074	-0.040920	0.546573	-0.834130	0.074059
52249		0.006683	-0.084382	-0.996411	0.837606	0.544770	-0.040517	0.546234	-0.834329	0.074320
52250		0.007118	-0.084338	-0.996412	0.837897	0.544354	-0.040089	0.545781	-0.834605	0.074541
52251		0.007526	-0.084267	-0.996415	0.838262	0.543823	-0.039660	0.545215	-0.834959	0.074731
52252		0.007914	-0.084165	-0.996420	0.838641	0.543270	-0.039227	0.544627	-0.835329	0.074884
52253		0.008256	-0.084047	-0.996428	0.838985	0.542768	-0.038830	0.544092	-0.835667	0.074996
52254		0.008557	-0.084011	-0.996428	0.839256	0.542370	-0.038521	0.543669	-0.835929	0.075148
52255		0.008900	-0.083967	-0.996429	0.839491	0.542030	-0.038178	0.543300	-0.836153	0.075313
52256		0.009156	-0.083992	-0.996424	0.839551	0.541953	-0.037968	0.543204	-0.836201	0.075478
52257		0.009409	-0.084021	-0.996420	0.839541	0.541982	-0.037774	0.543215	-0.836180	0.075638
52258		0.009646	-0.084132	-0.996408	0.839443	0.542142	-0.037650	0.543362	-0.836065	0.075853
52259		0.009828	-0.084257	-0.996396	0.839288	0.542387	-0.037587	0.543599	-0.835893	0.076047
52260		0.009991	-0.084388	-0.996383	0.839139	0.542621	-0.037543	0.543826	-0.835728	0.076234
52261		0.010177	-0.084548	-0.996367	0.838919	0.542962	-0.037505	0.544161	-0.835490	0.076455
52262		0.010356	-0.084731	-0.996350	0.838704	0.543296	-0.037486	0.544490	-0.835254	0.076690
52263		0.010473	-0.084919	-0.996333	0.838449	0.543687	-0.037526	0.544880	-0.834981	0.076894
52264		0.010682	-0.085094	-0.996316	0.838181	0.544102	-0.037484	0.545287	-0.834693	0.077136
52265		0.010959	-0.085336	-0.996292	0.837894	0.544549	-0.037425	0.545723	-0.834377	0.077470
52266		0.011277	-0.085570	-0.996268	0.837581	0.545036	-0.037333	0.546197	-0.834034	0.077818
52267		0.011560	-0.085805	-0.996245	0.837229	0.545581	-0.037275	0.546731	-0.833654	0.078145
52268		0.011797	-0.086023	-0.996223	0.836811	0.546223	-0.037257	0.547365	-0.833211	0.078429
52269		0.011977	-0.086218	-0.996204	0.836358	0.546915	-0.037278	0.548053	-0.832737	0.078659
52270		0.012081	-0.086438	-0.996184	0.835682	0.547938	-0.037410	0.549080	-0.832041	0.078854
52271		0.012203	-0.086663	-0.996163	0.834910	0.549104	-0.037542	0.550251	-0.831248	0.079056
52272		0.012335	-0.086901	-0.996141	0.834131	0.550279	-0.037677	0.551429	-0.830447	0.079275
52273		0.012498	-0.087141	-0.996118	0.833482	0.551254	-0.037767	0.552405	-0.829774	0.079521
52274		0.012697	-0.087406	-0.996092	0.832888	0.552147	-0.037834	0.553296	-0.829153	0.079810
52275		0.012932	-0.087669	-0.996066	0.832441	0.552819	-0.037849	0.553962	-0.828677	0.080128
52276		0.013161	-0.087896	-0.996043	0.832186	0.553205	-0.037822	0.554341	-0.828395	0.080426
52277		0.013377	-0.088049	-0.996026	0.832030	0.553445	-0.037750	0.554570	-0.828219	0.080663
52278		0.013462	-0.088194	-0.996012	0.832060	0.553399	-0.037756	0.554522	-0.828234	0.080833
52279		0.013532	-0.088242	-0.996007	0.832194	0.553201	-0.037705	0.554319	-0.828361	0.080921
52280		0.013427	-0.088344	-0.996000	0.832357	0.552948	-0.037824	0.554077	-0.828519	0.080958
52281		0.013344	-0.088412	-0.995995	0.832475	0.552764	-0.037914	0.553902	-0.828635	0.080977
52282		0.013243	-0.088495	-0.995989	0.832464	0.552772	-0.038046	0.553921	-0.828620	0.080989
52283		0.013130	-0.088626	-0.995978	0.832233	0.553105	-0.038246	0.554270	-0.828384	0.081020
52284		0.013041	-0.088745	-0.995969	0.831895	0.553600	-0.038435	0.554779	-0.828041	0.081046
52285		0.012956	-0.088838	-0.995962	0.831400	0.554329	-0.038630	0.555523	-0.827543	0.081042
52286		0.012858	-0.088930	-0.995955	0.830687	0.555381	-0.038866	0.556591	-0.826827	0.081015
52287		0.012845	-0.088909	-0.995957	0.829832	0.556649	-0.038989	0.557865	-0.825976	0.080930
52288		0.012753	-0.088932	-0.995956	0.829027	0.557833	-0.039195	0.559063	-0.825175	0.080841
52289		0.012702	-0.088898	-0.995960	0.828359	0.558817	-0.039314	0.560054	-0.824513	0.080737
52290		0.012618	-0.088805	-0.995969	0.827818	0.559611	-0.039409	0.560855	-0.823984	0.080576
52291		0.012534	-0.088618	-0.995987	0.827421	0.560196	-0.039431	0.561442	-0.823607	0.080346
52292		0.012418	-0.088371	-0.996010	0.827140	0.560611	-0.039427	0.561859	-0.823350	0.080057
52293		0.012335	-0.088059	-0.996039	0.826928	0.560929	-0.039351	0.562173	-0.823167	0.079738
52294		0.012172	-0.087740	-0.996069	0.826708	0.561254	-0.039336	0.562500	-0.822979	0.079367
52295		0.012008	-0.087361	-0.996104	0.826510	0.561550	-0.039285	0.562795	-0.822818	0.078948
52296		0.011855	-0.086969	-0.996140	0.826176	0.562044	-0.039238	0.563287	-0.822522	0.078515
52297		0.011688	-0.086599	-0.996175	0.825686	0.562764	-0.039234	0.564009	-0.822069	0.078081
52298		0.011548	-0.086194	-0.996211	0.825107	0.563615	-0.039200	0.564858	-0.821529	0.077628
52299		0.011432	-0.085841	-0.996243	0.824429	0.564607	-0.039189	0.565850	-0.820884	0.077225
52300		0.011332	-0.085446	-0.996278	0.823647	0.565750	-0.039154	0.566990	-0.820138	0.076788
52301		0.011289	-0.085055	-0.996312	0.822877	0.566875	-0.039070	0.568108	-0.819401	0.076389
52302		0.011177	-0.084665	-0.996347	0.822016	0.568124	-0.039056	0.569355	-0.818576	0.075946
52303		0.011157	-0.084231	-0.996384	0.821141	0.569395	-0.038941	0.570616	-0.817737	0.075518
52304		0.011133	-0.083797	-0.996421	0.820301	0.570613	-0.038823	0.571823	-0.816933	0.075092
52305		0.011165	-0.083344	-0.996458	0.819464	0.571826	-0.038646	0.573022	-0.816130	0.074682
52306		0.011243	-0.082909	-0.996494	0.818694	0.572943	-0.038432	0.574120	-0.815391	0.074319
52307		0.011312	-0.082513	-0.996526	0.817997	0.573951	-0.038238	0.575112	-0.814722	0.073988
52308		0.011448	-0.082133	-0.996556	0.817306	0.574950	-0.037997	0.576091	-0.814056	0.073710
52309		0.011586	-0.081758	-0.996585	0.816641	0.575909	-0.037752	0.577029	-0.813415	0.073439
52310		0.011764	-0.081441	-0.996609	0.816017	0.576811	-0.037503	0.577909	-0.812808	0.073243
52311		0.011980	-0.081148	-0.996630	0.815451	0.577628	-0.037230	0.578703	-0.812257	0.073092
52312		0.012103	-0.080880	-0.996650	0.814864	0.578468	-0.037049	0.579526	-0.811686	0.072907
52313		0.012294	-0.080609	-0.996670	0.814239	0.579361	-0.036814	0.580400	-0.811075	0.072758
52314		0.012450	-0.080424	-0.996683	0.813699	0.580130	-0.036648	0.581153	-0.810544	0.072664
52315		0.012602	-0.080259	-0.996694	0.813229	0.580799	-0.036487	0.581808	-0.810081	0.072589
52316		0.012710	-0.080149	-0.996702	0.812917	0.581243	-0.036373	0.582241	-0.809773	0.072542
52317		0.012780	-0.080089	-0.996706	0.812758	0.581469	-0.036302	0.582461	-0.809617	0.072524
52318		0.012898	-0.080029	-0.996709	0.812698	0.581561	-0.036178	0.582542	-0.809557	0.072540
52319		0.013032	-0.079984	-0.996711	0.812780	0.581455	-0.036034	0.582424	-0.809638	0.072587
52320		0.013107	-0.079918	-0.996715	0.812978	0.581186	-0.035909	0.582146	-0.809837	0.072590
52321		0.013141	-0.079888	-0.996717	0.813265	0.580789	-0.035828	0.581745	-0.810125	0.072603
52322		0.013124	-0.079902	-0.996716	0.813702	0.580178	-0.035795	0.581133	-0.810561	0.072631
52323		0.013124	-0.079968	-0.996711	0.814212	0.579464	-0.035770	0.580419	-0.811065	0.072716
52324		0.013028	-0.080077	-0.996704	0.814849	0.578564	-0.035832	0.579526	-0.811696	0.072788
52325		0.012869	-0.080218	-0.996694	0.815514	0.577619	-0.035960	0.578594	-0.812356	0.072852
52326		0.012704	-0.080436	-0.996679	0.816161	0.576694	-0.036138	0.577685	-0.812991	0.072975
52327		0.012494	-0.080729	-0.996658	0.816770	0.575814	-0.036401	0.576828	-0.813585	0.073131
52328		0.012293	-0.081005	-0.996638	0.817229	0.575146	-0.036667	0.576182	-0.814031	0.073270
52329		0.012128	-0.081315	-0.996615	0.817586	0.574621	-0.036935	0.575679	-0.814370	0.073451
52330		0.011980	-0.081629	-0.996591	0.817832	0.574253	-0.037205	0.575332	-0.814598	0.073638
52331		0.011862	-0.081929	-0.996568	0.817994	0.574007	-0.037453	0.575105	-0.814742	0.073826
52332		0.011827	-0.082231	-0.996543	0.818089	0.573859	-0.037643	0.574970	-0.814815	0.074059
52333		0.011821	-0.082532	-0.996518	0.818157	0.573750	-0.037813	0.574873	-0.814862	0.074307
52334		0.012007	-0.082794	-0.996494	0.818226	0.573652	-0.037803	0.574771	-0.814904	0.074632
52335		0.012190	-0.083000	-0.996475	0.818311	0.573534	-0.037761	0.574647	-0.814966	0.074911
52336		0.012407	-0.083204	-0.996455	0.818452	0.573338	-0.037683	0.574441	-0.815083	0.075212
52337		0.012663	-0.083321	-0.996442	0.818655	0.573059	-0.037514	0.574146	-0.815267	0.075468
52338		0.012930	-0.083430	-0.996430	0.818920	0.572692	-0.037324	0.573762	-0.815514	0.075728
52339		0.013193	-0.083513	-0.996419	0.819341	0.572105	-0.037101	0.573155	-0.815918	0.075974
52340		0.013434	-0.083540	-0.996414	0.819795	0.571470	-0.036860	0.572500	-0.816360	0.076163
52341		0.013748	-0.083495	-0.996413	0.820347	0.570700	-0.036503	0.571701	-0.816903	0.076340
52342		0.014133	-0.083405	-0.996416	0.820860	0.569990	-0.036068	0.570955	-0.817408	0.076519
52343		0.014632	-0.083359	-0.996412	0.821214	0.569510	-0.035586	0.570433	-0.817746	0.076789
52344		0.015191	-0.083345	-0.996405	0.821475	0.569164	-0.035084	0.570042	-0.817989	0.077112
52345		0.015795	-0.083289	-0.996400	0.821628	0.568977	-0.034537	0.569805	-0.818125	0.077419
52346		0.016398	-0.083280	-0.996391	0.821649	0.568977	-0.034034	0.569758	-0.818126	0.077757
52347		0.017074	-0.083290	-0.996379	0.821540	0.569166	-0.033500	0.569895	-0.817993	0.078144
52348		0.017754	-0.083359	-0.996361	0.821473	0.569292	-0.032992	0.569970	-0.817899	0.078584
52349		0.018475	-0.083472	-0.996339	0.821428	0.569388	-0.032471	0.570013	-0.817820	0.079086
52350		0.019150	-0.083624	-0.996313	0.821481	0.569337	-0.031997	0.569914	-0.817840	0.079599
52351		0.019921	-0.083784	-0.996285	0.821548	0.569271	-0.031447	0.569791	-0.817870	0.080174
52352		0.020709	-0.083928	-0.996257	0.821600	0.569228	-0.030875	0.569689	-0.817885	0.080744
52353		0.021657	-0.083913	-0.996238	0.821659	0.569186	-0.030080	0.569568	-0.817916	0.081275
52354		0.022787	-0.083732	-0.996228	0.821670	0.569222	-0.029049	0.569507	-0.817909	0.081771
52355		0.024298	-0.083551	-0.996207	0.821517	0.569510	-0.027727	0.569666	-0.817727	0.082477
52356		0.026086	-0.083513	-0.996165	0.821103	0.570175	-0.026299	0.570184	-0.817268	0.083446
52357		0.028104	-0.083464	-0.996114	0.820455	0.571177	-0.024710	0.571020	-0.816572	0.084531
52358		0.030344	-0.083424	-0.996052	0.819574	0.572512	-0.022983	0.572170	-0.815641	0.085745
52359		0.032792	-0.083360	-0.995980	0.818572	0.574017	-0.021092	0.573468	-0.814589	0.087059
52360		0.035411	-0.083338	-0.995892	0.817669	0.575373	-0.019074	0.574599	-0.813634	0.088517
52361		0.038028	-0.083466	-0.995785	0.817015	0.576362	-0.017110	0.575361	-0.812920	0.090111
52362		0.040696	-0.083649	-0.995664	0.816356	0.577350	-0.015139	0.576113	-0.812200	0.091783
52363		0.043251	-0.083829	-0.995541	0.815839	0.578128	-0.013237	0.576660	-0.811628	0.093395
52364		0.045624	-0.084014	-0.995420	0.815370	0.578827	-0.011482	0.577140	-0.811111	0.094911
52365		0.047736	-0.084192	-0.995305	0.814898	0.579519	-0.009938	0.577635	-0.810598	0.096272
52366		0.049635	-0.084479	-0.995188	0.814474	0.580136	-0.008624	0.578074	-0.810127	0.097601
52367		0.051297	-0.084807	-0.995076	0.814057	0.580736	-0.007529	0.578515	-0.809662	0.098828
52368		0.052741	-0.085231	-0.994964	0.813826	0.581071	-0.006636	0.578711	-0.809378	0.100009
52369		0.053996	-0.085809	-0.994847	0.813810	0.581100	-0.005952	0.578617	-0.809296	0.101210
52370		0.055025	-0.086419	-0.994738	0.813946	0.580915	-0.005443	0.578329	-0.809364	0.102305
52371		0.055908	-0.087060	-0.994633	0.814281	0.580450	-0.005037	0.577773	-0.809629	0.103343
52372		0.056614	-0.087741	-0.994533	0.814725	0.579828	-0.004776	0.577077	-0.810000	0.104311
52373		0.057239	-0.088496	-0.994431	0.815186	0.579181	-0.004621	0.576364	-0.810382	0.105293
52374		0.057831	-0.089315	-0.994323	0.815593	0.578608	-0.004538	0.575728	-0.810701	0.106306
52375		0.058525	-0.089978	-0.994223	0.815909	0.578164	-0.004295	0.575211	-0.810944	0.107251
52376		0.059409	-0.090586	-0.994115	0.816166	0.577804	-0.003876	0.574755	-0.811133	0.108260
52377		0.060605	-0.091222	-0.993985	0.816676	0.577088	-0.003167	0.573905	-0.811571	0.109473
52378		0.062056	-0.091791	-0.993843	0.817455	0.575989	-0.002156	0.572640	-0.812288	0.110779
52379		0.063681	-0.092170	-0.993705	0.818190	0.574947	-0.000895	0.571410	-0.812982	0.112026
52380		0.065489	-0.092425	-0.993564	0.818784	0.574101	0.000564	0.570354	-0.813551	0.113273
52381		0.067623	-0.092702	-0.993395	0.819176	0.573538	0.002242	0.569542	-0.813917	0.114723
52382		0.069958	-0.092947	-0.993210	0.819216	0.573471	0.004036	0.569202	-0.813936	0.116262
52383		0.072447	-0.093164	-0.993011	0.819139	0.573564	0.005950	0.569001	-0.813846	0.117868
52384		0.074952	-0.093402	-0.992803	0.818953	0.573807	0.007843	0.568945	-0.813647	0.119500
52385		0.077430	-0.093675	-0.992587	0.818671	0.574182	0.009675	0.569019	-0.813351	0.121148
52386		0.079879	-0.093774	-0.992384	0.818397	0.574537	0.011584	0.569075	-0.813089	0.122638
52387		0.082311	-0.093383	-0.992222	0.818544	0.574277	0.013855	0.568517	-0.813317	0.123707
52388		0.084865	-0.092500	-0.992090	0.818902	0.573695	0.016560	0.567625	-0.813829	0.124435
52389		0.087684	-0.091506	-0.991937	0.818829	0.573707	0.019457	0.567301	-0.813933	0.125233
52390		0.090676	-0.090732	-0.991739	0.818090	0.574660	0.022225	0.567896	-0.813347	0.126335
52391		0.093708	-0.090202	-0.991505	0.816952	0.576172	0.024794	0.569041	-0.812336	0.127683
52392		0.096545	-0.089851	-0.991265	0.815438	0.578214	0.027009	0.570736	-0.810923	0.129091
52393		0.099260	-0.089779	-0.991003	0.813718	0.580540	0.028909	0.572722	-0.809267	0.130679
52394		0.101979	-0.090065	-0.990701	0.811856	0.583057	0.030564	0.574882	-0.807424	0.132579
52395		0.104666	-0.090820	-0.990352	0.810184	0.585304	0.031949	0.576755	-0.805711	0.134843
52396		0.107152	-0.091955	-0.989981	0.809006	0.586871	0.033052	0.577952	-0.804442	0.137277
52397		0.109342	-0.093198	-0.989625	0.808391	0.587665	0.033974	0.578402	-0.803719	0.139596
52398		0.111220	-0.094143	-0.989327	0.808163	0.587924	0.034907	0.578363	-0.803419	0.141471
52399		0.112799	-0.094695	-0.989095	0.808150	0.587883	0.035880	0.578075	-0.803384	0.142840
52400		0.114159	-0.095162	-0.988894	0.808175	0.587796	0.036732	0.577772	-0.803393	0.144010
52401		0.115388	-0.095673	-0.988702	0.807995	0.588001	0.037400	0.577779	-0.803182	0.145151
52402		0.116465	-0.096272	-0.988518	0.807509	0.588642	0.037811	0.578243	-0.802641	0.146297
52403		0.117422	-0.096876	-0.988346	0.806688	0.589752	0.038033	0.579194	-0.801753	0.147399
52404		0.118400	-0.097418	-0.988176	0.805772	0.590987	0.038283	0.580269	-0.800777	0.148470
52405		0.119610	-0.098024	-0.987970	0.804515	0.592677	0.038596	0.581764	-0.799453	0.149752
52406		0.121146	-0.098829	-0.987703	0.803040	0.594648	0.038996	0.583482	-0.797889	0.151403
52407		0.122918	-0.099828	-0.987383	0.801507	0.596682	0.039452	0.585215	-0.796244	0.153356
52408		0.124695	-0.100912	-0.987050	0.799655	0.599141	0.039768	0.587369	-0.794259	0.155405
52409		0.126245	-0.102211	-0.986719	0.797597	0.601883	0.039701	0.589832	-0.792016	0.157508
52410		0.127600	-0.103626	-0.986397	0.795264	0.604988	0.039318	0.592684	-0.789463	0.159606
52411		0.128688	-0.105445	-0.986063	0.792778	0.608299	0.038414	0.595771	-0.786673	0.161876
52412		0.129385	-0.107496	-0.985750	0.790451	0.611402	0.037078	0.598704	-0.783985	0.164077
52413		0.129661	-0.109816	-0.985458	0.788332	0.614238	0.035276	0.601432	-0.781442	0.166214
52414		0.129480	-0.112465	-0.985184	0.786531	0.616670	0.032975	0.603825	-0.779147	0.168303
52415		0.128679	-0.115455	-0.984943	0.785166	0.618555	0.030072	0.605769	-0.777213	0.170246
52416		0.127220	-0.118919	-0.984720	0.783969	0.620240	0.026381	0.607625	-0.775346	0.172136
52417		0.125136	-0.122961	-0.984491	0.783316	0.621235	0.021974	0.608899	-0.773917	0.174056
52418		0.122300	-0.127557	-0.984262	0.782884	0.621944	0.016676	0.610029	-0.772602	0.175927
52419		0.118854	-0.132728	-0.984001	0.782578	0.622463	0.010563	0.611102	-0.771312	0.177852
52420		0.114490	-0.138288	-0.983752	0.782260	0.622943	0.003472	0.612341	-0.769947	0.179498
52421		0.108852	-0.144137	-0.983553	0.782077	0.623164	-0.004769	0.613602	-0.768695	0.180558
52422		0.101936	-0.150586	-0.983327	0.781802	0.623359	-0.014416	0.615137	-0.767298	0.181271
52423		0.094108	-0.157881	-0.982964	0.781426	0.623483	-0.025329	0.616860	-0.765730	0.182047
52424		0.086089	-0.166208	-0.982326	0.779957	0.624717	-0.037347	0.619883	-0.762957	0.183416
52425		0.077497	-0.175501	-0.981424	0.778095	0.626112	-0.050521	0.623348	-0.759726	0.185078
52426		0.068243	-0.185460	-0.980279	0.776143	0.627236	-0.064635	0.626854	-0.756426	0.186747
52427		0.058427	-0.196471	-0.978767	0.774494	0.627537	-0.079734	0.629878	-0.753390	0.188831
52428		0.048621	-0.208305	-0.976855	0.772910	0.627319	-0.095299	0.632651	-0.750387	0.191502
52429		0.038916	-0.220852	-0.974531	0.770390	0.627747	-0.111499	0.636384	-0.746430	0.194572
52430		0.029207	-0.234319	-0.971721	0.767686	0.627847	-0.128323	0.640161	-0.742228	0.198221
52431		0.018922	-0.248269	-0.968506	0.765013	0.627281	-0.145853	0.643737	-0.738160	0.201798
52432		0.008411	-0.263134	-0.964723	0.762242	0.626136	-0.164137	0.647237	-0.733972	0.205839
52433		-0.002305	-0.278874	-0.960325	0.758561	0.625262	-0.183394	0.651598	-0.728888	0.210102
52434		-0.013873	-0.295288	-0.955307	0.754782	0.623546	-0.203701	0.655829	-0.723875	0.214228
52435		-0.025390	-0.312359	-0.949625	0.751357	0.620631	-0.224232	0.659408	-0.719200	0.218936
52436		-0.036410	-0.329684	-0.943389	0.748119	0.616894	-0.244458	0.662565	-0.714668	0.224182
52437		-0.047117	-0.346959	-0.936696	0.745351	0.612082	-0.264212	0.665005	-0.710616	0.229766
52438		-0.056874	-0.363664	-0.929792	0.742231	0.607460	-0.282993	0.667726	-0.706216	0.235374
52439		-0.065428	-0.380586	-0.922428	0.739920	0.601722	-0.300748	0.669505	-0.702200	0.242234
52440		-0.074021	-0.397487	-0.914617	0.737657	0.595363	-0.318441	0.671106	-0.698245	0.249140
52441		-0.084864	-0.413484	-0.906548	0.734305	0.589030	-0.337402	0.673494	-0.694316	0.253636
52442		-0.096106	-0.429049	-0.898154	0.731181	0.581819	-0.356175	0.675379	-0.690944	0.257797
52443		-0.106286	-0.445141	-0.889130	0.728322	0.573915	-0.374392	0.676942	-0.687366	0.263207
52444		-0.115081	-0.461027	-0.879892	0.725154	0.566388	-0.391607	0.678902	-0.683124	0.269135
52445		-0.123256	-0.476572	-0.870452	0.721846	0.558857	-0.408187	0.680989	-0.678644	0.275129
52446		-0.130483	-0.492363	-0.860554	0.719165	0.550478	-0.423999	0.682477	-0.674205	0.282262
52447		-0.137592	-0.506042	-0.851463	0.714999	0.544156	-0.438943	0.685452	-0.669190	0.286948
52448		-0.143842	-0.518723	-0.842755	0.711258	0.537923	-0.452494	0.688056	-0.664504	0.291570
52449		-0.149466	-0.530544	-0.834375	0.708314	0.531331	-0.464735	0.689892	-0.660462	0.296376
52450		-0.153985	-0.541932	-0.826195	0.705506	0.525117	-0.475935	0.691773	-0.656172	0.301476
52451		-0.157526	-0.552721	-0.818343	0.703807	0.518457	-0.485652	0.692706	-0.652458	0.307339
52452		-0.160440	-0.562824	-0.810856	0.702149	0.512289	-0.494516	0.693718	-0.648682	0.312995
52453		-0.162596	-0.572082	-0.803918	0.701068	0.506343	-0.502117	0.694310	-0.645243	0.318739
52454		-0.164470	-0.580416	-0.797538	0.700815	0.500220	-0.508564	0.694123	-0.642570	0.324493
52455		-0.165770	-0.588054	-0.791652	0.701655	0.493757	-0.513697	0.692966	-0.640621	0.330761
52456		-0.166832	-0.594430	-0.786651	0.702874	0.487822	-0.517685	0.691473	-0.639283	0.336425
52457		-0.167909	-0.599595	-0.782491	0.705226	0.481567	-0.520337	0.688813	-0.639202	0.341991
52458		-0.169455	-0.603724	-0.778975	0.707683	0.475562	-0.522519	0.685908	-0.639811	0.346659
52459		-0.170661	-0.607327	-0.775906	0.710403	0.469833	-0.524007	0.682790	-0.640633	0.351265
52460		-0.171407	-0.610672	-0.773110	0.713581	0.464101	-0.524797	0.679280	-0.641631	0.356213
52461		-0.171656	-0.613585	-0.770745	0.716863	0.458849	-0.524942	0.675752	-0.642629	0.361092
52462		-0.172204	-0.615762	-0.768884	0.720909	0.453143	-0.524359	0.671295	-0.644592	0.365876
52463		-0.173419	-0.617044	-0.767582	0.725519	0.447012	-0.523260	0.665994	-0.647639	0.370157
52464		-0.174464	-0.617997	-0.766578	0.730499	0.440791	-0.521608	0.660253	-0.650986	0.374544
52465		-0.174630	-0.618981	-0.765746	0.735789	0.434759	-0.519230	0.654308	-0.654100	0.379517
52466		-0.174484	-0.619751	-0.765156	0.741258	0.428830	-0.516373	0.648145	-0.657277	0.384571
52467		-0.174120	-0.619965	-0.765066	0.747017	0.423051	-0.512829	0.641598	-0.660811	0.389462
52468		-0.174034	-0.619621	-0.765364	0.753053	0.417070	-0.508885	0.634526	-0.664923	0.394023
52469		-0.173862	-0.618889	-0.765995	0.759032	0.411355	-0.504637	0.627410	-0.669152	0.398237
52470		-0.173539	-0.618050	-0.766745	0.764935	0.405780	-0.500217	0.620289	-0.673317	0.402350
52471		-0.173193	-0.616898	-0.767751	0.770893	0.400247	-0.495506	0.612967	-0.677672	0.406242
52472		-0.173091	-0.615557	-0.768849	0.776699	0.394702	-0.490866	0.605622	-0.682129	0.409783
52473		-0.173003	-0.613995	-0.770117	0.782399	0.389276	-0.486123	0.598265	-0.686639	0.413043
52474		-0.173210	-0.612163	-0.771528	0.787972	0.383818	-0.481439	0.590846	-0.691332	0.415886
52475		-0.173184	-0.610267	-0.773034	0.793315	0.378702	-0.476692	0.583659	-0.695815	0.418549
52476		-0.173043	-0.608540	-0.774426	0.798588	0.373522	-0.471953	0.576467	-0.700115	0.421337
52477		-0.172965	-0.606751	-0.775845	0.803747	0.368338	-0.467244	0.569274	-0.704401	0.423965
52478		-0.172986	-0.604969	-0.777231	0.808574	0.363362	-0.462791	0.562391	-0.708506	0.426306
52479		-0.172793	-0.603270	-0.778593	0.813082	0.358787	-0.458443	0.555914	-0.712276	0.428512
52480		-0.172605	-0.601758	-0.779804	0.817228	0.354461	-0.454419	0.549861	-0.715713	0.430591
52481		-0.172029	-0.600427	-0.780957	0.820891	0.350870	-0.450586	0.544559	-0.718594	0.432525
52482		-0.171430	-0.599372	-0.781899	0.824190	0.347553	-0.447122	0.539743	-0.721083	0.434415
52483		-0.170758	-0.598434	-0.782763	0.827064	0.344741	-0.443981	0.535544	-0.723208	0.436076
52484		-0.170206	-0.597540	-0.783566	0.829603	0.342223	-0.441183	0.531778	-0.725141	0.437473
52485		-0.169629	-0.596808	-0.784249	0.831702	0.340205	-0.438786	0.528676	-0.726692	0.438657
52486		-0.169033	-0.596267	-0.784789	0.833563	0.338398	-0.436646	0.525929	-0.727978	0.439826
52487		-0.168465	-0.595716	-0.785329	0.835262	0.336782	-0.434644	0.523409	-0.729178	0.440843
52488		-0.167996	-0.595216	-0.785809	0.836781	0.335298	-0.432867	0.521129	-0.730269	0.441737
52489		-0.167501	-0.594694	-0.786309	0.838248	0.333906	-0.431101	0.518926	-0.731332	0.442571
52490		-0.167253	-0.594197	-0.786738	0.839666	0.332364	-0.429529	0.516708	-0.732437	0.443338
52491		-0.166970	-0.593711	-0.787165	0.841054	0.330875	-0.427959	0.514537	-0.733505	0.444097
52492		-0.166797	-0.593395	-0.787440	0.842296	0.329406	-0.426649	0.512558	-0.734421	0.444870
52493		-0.166569	-0.593261	-0.787589	0.843359	0.328129	-0.425531	0.510882	-0.735101	0.445675
52494		-0.166398	-0.593191	-0.787677	0.844353	0.326866	-0.424530	0.509292	-0.735719	0.446473
52495		-0.166203	-0.593047	-0.787827	0.845311	0.325709	-0.423512	0.507765	-0.736348	0.447175
52496		-0.166019	-0.592895	-0.787980	0.846366	0.324402	-0.422408	0.506066	-0.737047	0.447949
52497		-0.165832	-0.592710	-0.788159	0.847392	0.323150	-0.421309	0.504408	-0.737746	0.448669
52498		-0.165637	-0.592508	-0.788352	0.848535	0.321734	-0.420090	0.502546	-0.738527	0.449473
52499		-0.165456	-0.592358	-0.788503	0.849728	0.320198	-0.418850	0.500586	-0.739314	0.450365
52500		-0.165397	-0.592181	-0.788648	0.851015	0.318432	-0.417582	0.498414	-0.740218	0.451287
52501		-0.165403	-0.591963	-0.788810	0.852311	0.316612	-0.416321	0.496193	-0.741172	0.452168
52502		-0.165500	-0.591818	-0.788899	0.853787	0.314400	-0.414970	0.493616	-0.742229	0.453254
52503		-0.165600	-0.591755	-0.788925	0.855375	0.311958	-0.413541	0.490826	-0.743309	0.454513
52504		-0.165694	-0.591787	-0.788881	0.857120	0.309213	-0.411986	0.487740	-0.744430	0.455998
52505		-0.165730	-0.591740	-0.788909	0.858949	0.306406	-0.410271	0.484500	-0.745627	0.457494
52506		-0.165939	-0.591555	-0.789004	0.860897	0.303322	-0.408474	0.480957	-0.747033	0.458935
52507		-0.166071	-0.591270	-0.789190	0.862675	0.300590	-0.406740	0.477716	-0.748362	0.460155
52508		-0.166177	-0.590984	-0.789382	0.864508	0.297767	-0.404921	0.474354	-0.749715	0.461428
52509		-0.166308	-0.590586	-0.789652	0.866101	0.295336	-0.403293	0.471391	-0.750990	0.462390
52510		-0.166534	-0.590275	-0.789837	0.867582	0.292943	-0.401854	0.468581	-0.752170	0.463327
52511		-0.166769	-0.590091	-0.789925	0.868971	0.290606	-0.400546	0.465915	-0.753221	0.464308
52512		-0.167114	-0.590014	-0.789909	0.870196	0.288376	-0.399499	0.463500	-0.754138	0.465236
52513		-0.167588	-0.589916	-0.789882	0.871338	0.286170	-0.398593	0.461177	-0.755054	0.466057
52514		-0.168353	-0.589767	-0.789830	0.872443	0.283796	-0.397872	0.458802	-0.756065	0.466761
52515		-0.169376	-0.589671	-0.789683	0.873435	0.281352	-0.397431	0.456533	-0.757053	0.467385
52516		-0.170749	-0.589637	-0.789413	0.874441	0.278547	-0.397196	0.454090	-0.758116	0.468041
52517		-0.172392	-0.589762	-0.788963	0.875309	0.275645	-0.397308	0.451791	-0.759079	0.468705
52518		-0.174686	-0.590106	-0.788200	0.876178	0.272056	-0.397866	0.449218	-0.760105	0.469514
52519		-0.177415	-0.590696	-0.787148	0.876711	0.268511	-0.399099	0.447105	-0.760907	0.470232
52520		-0.180563	-0.591490	-0.785835	0.876703	0.265390	-0.401198	0.445857	-0.761385	0.470642
52521		-0.183945	-0.592404	-0.784361	0.876723	0.261922	-0.403427	0.444433	-0.761876	0.471195
52522		-0.187803	-0.593472	-0.782637	0.877080	0.257331	-0.405599	0.442109	-0.762608	0.472195
52523		-0.192534	-0.594361	-0.780811	0.877573	0.251750	-0.408029	0.439086	-0.763778	0.473125
52524		-0.198279	-0.594841	-0.779006	0.877702	0.246002	-0.411244	0.436261	-0.765276	0.473316
52525		-0.204594	-0.595135	-0.777146	0.877764	0.239830	-0.414743	0.433211	-0.767005	0.473320
52526		-0.211350	-0.595295	-0.775212	0.878029	0.232817	-0.418165	0.429414	-0.769038	0.473481
52527		-0.218412	-0.595426	-0.773152	0.878306	0.225344	-0.421662	0.425294	-0.771160	0.473748
52528		-0.226814	-0.595052	-0.771018	0.878302	0.217136	-0.425955	0.420881	-0.773799	0.473386
52529		-0.236179	-0.594631	-0.768527	0.878013	0.208253	-0.430957	0.416308	-0.776560	0.472908
52530		-0.246280	-0.594826	-0.765198	0.877751	0.197894	-0.436338	0.410973	-0.779115	0.473372
52531		-0.257127	-0.595874	-0.760802	0.876861	0.187060	-0.442859	0.406203	-0.780989	0.474400
52532		-0.269302	-0.597027	-0.755669	0.874506	0.177059	-0.451540	0.403379	-0.782438	0.474422
52533		-0.282241	-0.598204	-0.749995	0.871132	0.167647	-0.461544	0.401832	-0.783611	0.473798
52534		-0.295885	-0.599329	-0.743812	0.867146	0.158063	-0.472307	0.400636	-0.784743	0.472937
52535		-0.311131	-0.599918	-0.737086	0.861706	0.149029	-0.485029	0.400825	-0.786059	0.470585
52536		-0.328577	-0.598596	-0.730561	0.854560	0.140971	-0.499854	0.402199	-0.788549	0.465217
52537		-0.346770	-0.595587	-0.724587	0.845524	0.135899	-0.516353	0.406004	-0.791711	0.456458
52538		-0.364442	-0.592107	-0.718743	0.836655	0.130706	-0.531906	0.408890	-0.795189	0.447754
52539		-0.381893	-0.589710	-0.711617	0.828164	0.123431	-0.546725	0.410245	-0.798127	0.441240
52540		-0.400107	-0.588920	-0.702202	0.819786	0.112553	-0.561500	0.409714	-0.800316	0.437755
52541		-0.419259	-0.589581	-0.690374	0.809919	0.100678	-0.577837	0.410187	-0.801410	0.435302
52542		-0.439276	-0.590845	-0.676711	0.798388	0.088572	-0.595594	0.411841	-0.801908	0.432816
52543		-0.460266	-0.592678	-0.660975	0.784322	0.077347	-0.615513	0.415926	-0.801717	0.429250
52544		-0.479911	-0.596113	-0.643689	0.767228	0.070675	-0.637469	0.425496	-0.799784	0.423437
52545		-0.497171	-0.600802	-0.625986	0.748960	0.067071	-0.659212	0.438041	-0.796579	0.416631
52546		-0.516701	-0.599219	-0.611520	0.729402	0.065923	-0.680902	0.448323	-0.797866	0.403009
52547		-0.537500	-0.596368	-0.596186	0.709545	0.062191	-0.701911	0.455675	-0.800298	0.389722
52548		-0.559648	-0.594354	-0.577527	0.689809	0.052137	-0.722111	0.459300	-0.802512	0.380813
52549		-0.583767	-0.589784	-0.558006	0.669213	0.039647	-0.742013	0.459750	-0.806588	0.371546
52550		-0.605876	-0.584912	-0.539252	0.649654	0.027488	-0.759733	0.459200	-0.810631	0.363336
52551		-0.625429	-0.579017	-0.523047	0.633910	0.013812	-0.773283	0.454969	-0.815199	0.358406
52552		-0.640283	-0.572705	-0.511905	0.625748	-0.002372	-0.780022	0.445508	-0.819758	0.359887
52553		-0.649812	-0.566759	-0.506486	0.622408	-0.014277	-0.782562	0.436293	-0.823760	0.362033
52554		-0.659811	-0.560577	-0.500403	0.618132	-0.026252	-0.785636	0.427273	-0.827686	0.363831
52555		-0.669843	-0.556294	-0.491780	0.611469	-0.037566	-0.790376	0.421207	-0.830136	0.365320
52556		-0.680987	-0.551016	-0.482326	0.603257	-0.048730	-0.796057	0.415136	-0.833071	0.365589
52557		-0.693328	-0.542895	-0.473879	0.593381	-0.056969	-0.802903	0.408896	-0.837866	0.361642
52558		-0.705248	-0.535233	-0.464921	0.582247	-0.063119	-0.810558	0.404492	-0.842343	0.356152
52559		-0.715128	-0.530331	-0.455347	0.573177	-0.072058	-0.816257	0.400075	-0.844723	0.355504
52560		-0.723162	-0.527756	-0.445545	0.566846	-0.084939	-0.819433	0.394617	-0.845138	0.360582
52561		-0.729837	-0.525623	-0.437103	0.563022	-0.099506	-0.820429	0.387742	-0.844878	0.368561
52562		-0.735210	-0.523621	-0.430450	0.561139	-0.113925	-0.819844	0.380248	-0.844300	0.377583
52563		-0.738733	-0.522327	-0.425967	0.560735	-0.125625	-0.818410	0.373966	-0.843441	0.385691
52564		-0.740694	-0.522058	-0.422882	0.560775	-0.133757	-0.817093	0.370006	-0.842357	0.391829
52565		-0.741487	-0.522292	-0.421199	0.560208	-0.136417	-0.817042	0.369276	-0.841784	0.393744
52566		-0.741773	-0.522841	-0.420013	0.558339	-0.134499	-0.818638	0.371526	-0.841753	0.391690
52567		-0.741754	-0.523254	-0.419531	0.556081	-0.130130	-0.820878	0.374934	-0.842182	0.387496
52568		-0.741491	-0.524204	-0.418810	0.554063	-0.126328	-0.822834	0.378425	-0.842171	0.384113
52569		-0.740701	-0.525411	-0.418694	0.553175	-0.123294	-0.823891	0.381259	-0.841868	0.381968
52570		-0.739505	-0.527170	-0.418597	0.552847	-0.120856	-0.824472	0.384047	-0.841122	0.380818
52571		-0.737933	-0.528946	-0.419131	0.553085	-0.118118	-0.824709	0.386720	-0.840395	0.379716
52572		-0.736495	-0.530560	-0.419621	0.553609	-0.116299	-0.824616	0.388707	-0.839631	0.379376
52573		-0.735206	-0.531867	-0.420225	0.554315	-0.114937	-0.824333	0.390136	-0.838991	0.379325
52574		-0.734155	-0.533292	-0.420257	0.554976	-0.114723	-0.823918	0.391176	-0.838116	0.380188
52575		-0.733135	-0.534664	-0.420295	0.555912	-0.115137	-0.823229	0.391759	-0.837185	0.381637
52576		-0.732344	-0.535842	-0.420172	0.557138	-0.116757	-0.822171	0.391496	-0.836206	0.384044
52577		-0.731422	-0.536880	-0.420454	0.558963	-0.118834	-0.820633	0.390618	-0.835247	0.387014
52578		-0.730331	-0.537880	-0.421073	0.561141	-0.120891	-0.818845	0.389536	-0.834309	0.390116
52579		-0.728912	-0.538970	-0.422136	0.563463	-0.122085	-0.817071	0.388841	-0.833430	0.392679
52580		-0.727383	-0.540324	-0.423041	0.565390	-0.122503	-0.815676	0.388905	-0.832492	0.394601
52581		-0.725702	-0.541748	-0.424107	0.566866	-0.121481	-0.814804	0.389898	-0.831716	0.395257
52582		-0.724068	-0.543411	-0.424772	0.567686	-0.119745	-0.814490	0.391738	-0.830883	0.395190
52583		-0.722381	-0.545085	-0.425496	0.568098	-0.116996	-0.814602	0.394246	-0.830177	0.394178
52584		-0.720884	-0.546649	-0.426030	0.568070	-0.113920	-0.815057	0.397017	-0.829576	0.392658
52585		-0.719430	-0.548148	-0.426560	0.567729	-0.110292	-0.815794	0.400130	-0.829077	0.390547
52586		-0.718116	-0.549724	-0.426746	0.567040	-0.106700	-0.816750	0.403454	-0.828504	0.388338
52587		-0.716758	-0.551465	-0.426784	0.566240	-0.103082	-0.817769	0.406977	-0.827805	0.386146
52588		-0.715434	-0.553431	-0.426461	0.565349	-0.099908	-0.818779	0.410530	-0.826881	0.384359
52589		-0.714151	-0.555425	-0.426019	0.564607	-0.097308	-0.819604	0.413773	-0.825854	0.383089
52590		-0.713183	-0.557107	-0.425443	0.564173	-0.095979	-0.820059	0.416027	-0.824876	0.382755
52591		-0.712387	-0.558457	-0.425007	0.564221	-0.095638	-0.820066	0.417325	-0.824002	0.383224
52592		-0.711819	-0.559471	-0.424624	0.564746	-0.096470	-0.819607	0.417583	-0.823217	0.384628
52593		-0.711325	-0.560279	-0.424387	0.565711	-0.098052	-0.818753	0.417118	-0.822480	0.386703
52594		-0.710939	-0.560974	-0.424115	0.566744	-0.099964	-0.817807	0.416372	-0.821776	0.388997
52595		-0.710586	-0.561631	-0.423837	0.567762	-0.101894	-0.816862	0.415589	-0.821090	0.391277
52596		-0.710243	-0.562365	-0.423440	0.568597	-0.103650	-0.816060	0.415034	-0.820367	0.393376
52597		-0.709768	-0.563323	-0.422962	0.569463	-0.105402	-0.815231	0.414657	-0.819486	0.395603
52598		-0.709316	-0.564419	-0.422258	0.570305	-0.107456	-0.814375	0.414274	-0.818465	0.398111
52599		-0.708783	-0.565583	-0.421595	0.571240	-0.109518	-0.813444	0.413898	-0.817387	0.400708
52600		-0.708351	-0.566588	-0.420972	0.572294	-0.111890	-0.812379	0.413181	-0.816369	0.403512
52601		-0.707796	-0.567502	-0.420674	0.573499	-0.113919	-0.811247	0.412462	-0.815453	0.406093
52602		-0.707152	-0.568453	-0.420473	0.574599	-0.115474	-0.810248	0.412034	-0.814572	0.408290
52603		-0.706279	-0.569616	-0.420365	0.575572	-0.116317	-0.809436	0.412173	-0.813639	0.410007
52604		-0.705312	-0.570922	-0.420217	0.576294	-0.116583	-0.808884	0.412820	-0.812684	0.411247
52605		-0.704324	-0.572266	-0.420046	0.576898	-0.116620	-0.808448	0.413662	-0.811733	0.412278
52606		-0.703395	-0.573588	-0.419800	0.577306	-0.116461	-0.808180	0.414672	-0.810823	0.413054
52607		-0.702501	-0.574827	-0.419604	0.577617	-0.116090	-0.808011	0.415754	-0.809998	0.413583
52608		-0.701566	-0.575966	-0.419605	0.578011	-0.115550	-0.807807	0.416783	-0.809266	0.413981
52609		-0.700478	-0.577157	-0.419786	0.578452	-0.114639	-0.807621	0.418000	-0.808547	0.414159
52610		-0.699204	-0.578487	-0.420079	0.578836	-0.113212	-0.807547	0.419598	-0.807797	0.414007
52611		-0.697722	-0.580055	-0.420380	0.579177	-0.111413	-0.807552	0.421589	-0.806922	0.413690
52612		-0.696169	-0.581660	-0.420739	0.579637	-0.109677	-0.807460	0.423522	-0.806004	0.413505
52613		-0.694564	-0.583155	-0.421319	0.580428	-0.108207	-0.807090	0.425069	-0.805122	0.413637
52614		-0.692892	-0.584643	-0.422011	0.581603	-0.107225	-0.806375	0.426191	-0.804174	0.414325
52615		-0.691050	-0.586082	-0.423034	0.583187	-0.106337	-0.805348	0.427016	-0.803244	0.415279
52616		-0.689072	-0.587479	-0.424320	0.585008	-0.105356	-0.804155	0.427720	-0.802352	0.416278
52617		-0.686870	-0.588974	-0.425817	0.586971	-0.104057	-0.802893	0.428574	-0.801425	0.417184
52618		-0.684475	-0.590524	-0.427522	0.589113	-0.102567	-0.801514	0.429464	-0.800476	0.418090
52619		-0.681856	-0.592092	-0.429535	0.591583	-0.100984	-0.799895	0.430235	-0.799518	0.419128
52620		-0.679027	-0.593758	-0.431711	0.594257	-0.099298	-0.798122	0.431023	-0.798493	0.420271
52621		-0.675972	-0.595461	-0.434151	0.597316	-0.097689	-0.796034	0.431595	-0.797423	0.421714
52622		-0.672673	-0.597188	-0.436894	0.600840	-0.096232	-0.793556	0.431859	-0.796307	0.423547
52623		-0.669068	-0.598770	-0.440252	0.605036	-0.094822	-0.790532	0.431601	-0.795288	0.425720
52624		-0.665070	-0.600118	-0.444455	0.609722	-0.092723	-0.787174	0.431186	-0.794519	0.427572
52625		-0.660513	-0.601362	-0.449540	0.614886	-0.089672	-0.783501	0.430857	-0.793928	0.428999
52626		-0.655344	-0.602774	-0.455178	0.620275	-0.085590	-0.779700	0.431025	-0.793308	0.429977
52627		-0.649629	-0.604571	-0.460951	0.625411	-0.080245	-0.776159	0.432254	-0.792499	0.430235
52628		-0.643701	-0.606812	-0.466291	0.630156	-0.074562	-0.772880	0.434226	-0.791340	0.430382
52629		-0.637825	-0.609071	-0.471394	0.634904	-0.069340	-0.769473	0.435977	-0.790079	0.430928
52630		-0.632243	-0.610828	-0.476611	0.639868	-0.064813	-0.765747	0.436849	-0.789106	0.431827
52631		-0.626796	-0.611989	-0.482283	0.645254	-0.060719	-0.761551	0.436777	-0.788532	0.432947
52632		-0.621110	-0.612990	-0.488329	0.651087	-0.056756	-0.756878	0.436243	-0.788049	0.434361
52633		-0.614834	-0.614100	-0.494833	0.657405	-0.052474	-0.751709	0.435658	-0.787482	0.435975
52634		-0.607831	-0.615756	-0.501383	0.664016	-0.047886	-0.746183	0.435458	-0.786480	0.437979
52635		-0.600191	-0.618013	-0.507769	0.670935	-0.043389	-0.740246	0.435450	-0.784969	0.440688
52636		-0.592319	-0.620633	-0.513783	0.677930	-0.039309	-0.734074	0.435395	-0.783115	0.444029
52637		-0.584533	-0.623417	-0.519299	0.685120	-0.036372	-0.727521	0.434662	-0.781043	0.448377
52638		-0.577162	-0.625898	-0.524534	0.692397	-0.034508	-0.720691	0.432978	-0.779141	0.453287
52639		-0.570254	-0.627865	-0.529713	0.699699	-0.033403	-0.713657	0.430386	-0.777605	0.458364
52640		-0.563481	-0.629443	-0.535061	0.707302	-0.032918	-0.706145	0.426865	-0.776349	0.463755
52641		-0.556370	-0.630919	-0.540735	0.715409	-0.032701	-0.697940	0.422661	-0.775159	0.469559
52642		-0.548949	-0.632137	-0.546863	0.723758	-0.032196	-0.689302	0.418126	-0.774188	0.475188
52643		-0.541188	-0.633370	-0.553134	0.732339	-0.031721	-0.680200	0.413273	-0.773199	0.481009
52644		-0.532891	-0.635124	-0.559147	0.740872	-0.030946	-0.670933	0.408822	-0.771790	0.487036
52645		-0.524232	-0.637455	-0.564651	0.749013	-0.029680	-0.661890	0.405166	-0.769916	0.493022
52646		-0.515464	-0.640408	-0.569363	0.756737	-0.028450	-0.653100	0.402052	-0.767508	0.499285
52647		-0.506770	-0.643859	-0.573262	0.764291	-0.027935	-0.644266	0.398802	-0.764634	0.506253
52648		-0.498626	-0.647268	-0.576556	0.771474	-0.028111	-0.635640	0.395222	-0.761744	0.513367
52649		-0.491062	-0.650459	-0.579449	0.778527	-0.029259	-0.626929	0.390838	-0.758977	0.520768
52650		-0.483748	-0.653484	-0.582191	0.785656	-0.031117	-0.617881	0.385659	-0.756301	0.528466
52651		-0.476649	-0.656305	-0.584867	0.792641	-0.033144	-0.608787	0.380165	-0.753768	0.536012
52652		-0.469877	-0.658856	-0.587474	0.799555	-0.035639	-0.599535	0.374070	-0.751425	0.543537
52653		-0.463347	-0.661279	-0.589931	0.806359	-0.038507	-0.590171	0.367552	-0.749151	0.551071
52654		-0.457467	-0.663269	-0.592282	0.812855	-0.041857	-0.580960	0.360541	-0.747210	0.558290
52655		-0.452144	-0.665160	-0.594245	0.818987	-0.045700	-0.571990	0.353308	-0.745301	0.565420
52656		-0.447265	-0.667009	-0.595864	0.824630	-0.049565	-0.563497	0.346323	-0.743400	0.572204
52657		-0.442885	-0.669012	-0.596889	0.829626	-0.053361	-0.555764	0.339962	-0.741334	0.578663
52658		-0.439028	-0.671132	-0.597357	0.833911	-0.056898	-0.548958	0.334435	-0.739151	0.584645
52659		-0.435745	-0.673431	-0.597173	0.837373	-0.060023	-0.543326	0.330049	-0.736809	0.590068
52660		-0.433024	-0.675720	-0.596567	0.840189	-0.062880	-0.538636	0.326455	-0.734472	0.594961
52661		-0.430785	-0.677902	-0.595712	0.842499	-0.065509	-0.534700	0.323450	-0.732227	0.599352
52662		-0.428922	-0.679946	-0.594726	0.844318	-0.067683	-0.531550	0.321173	-0.730132	0.603122
52663		-0.427408	-0.682098	-0.593351	0.845579	-0.069394	-0.529321	0.319874	-0.727961	0.606427
52664		-0.426220	-0.684558	-0.591369	0.846179	-0.070546	-0.528208	0.319870	-0.725537	0.609327
52665		-0.425421	-0.687805	-0.588168	0.845842	-0.071080	-0.528676	0.321819	-0.722407	0.612013
52666		-0.424916	-0.691903	-0.583710	0.844711	-0.071249	-0.530459	0.325437	-0.718467	0.614733
52667		-0.424721	-0.696920	-0.577853	0.842792	-0.071266	-0.533500	0.330626	-0.713599	0.617627
52668		-0.424729	-0.702656	-0.570859	0.840530	-0.071804	-0.536986	0.336327	-0.707898	0.621100
52669		-0.424729	-0.709266	-0.562625	0.838075	-0.072994	-0.540649	0.342396	-0.701152	0.625421
52670		-0.424613	-0.716548	-0.553411	0.835532	-0.074711	-0.544339	0.348699	-0.693526	0.630421
52671		-0.424482	-0.724589	-0.542941	0.832566	-0.076672	-0.548593	0.355876	-0.684903	0.635815
52672		-0.424646	-0.733250	-0.531055	0.829185	-0.079481	-0.553295	0.363495	-0.675298	0.641751
52673		-0.425017	-0.742696	-0.517459	0.825473	-0.083444	-0.558240	0.371423	-0.664410	0.648540
52674		-0.425372	-0.752762	-0.502403	0.821767	-0.088694	-0.562878	0.379153	-0.652291	0.656323
52675		-0.425400	-0.763482	-0.485933	0.818171	-0.094941	-0.567083	0.386823	-0.638813	0.665046
52676		-0.425112	-0.774462	-0.468496	0.814794	-0.102014	-0.570705	0.394196	-0.624341	0.674394
52677		-0.424482	-0.785822	-0.449777	0.811349	-0.109624	-0.574191	0.401906	-0.608659	0.684109
52678		-0.423562	-0.797433	-0.429762	0.807775	-0.117765	-0.577608	0.409993	-0.591804	0.694028
52679		-0.422389	-0.809354	-0.408085	0.803739	-0.126299	-0.581423	0.419037	-0.573580	0.703856
52680		-0.421144	-0.821311	-0.384819	0.799567	-0.135896	-0.585001	0.428172	-0.554058	0.713925
52681		-0.419155	-0.833533	-0.359904	0.795137	-0.145668	-0.588675	0.438254	-0.532919	0.723830
52682		-0.416608	-0.845536	-0.333926	0.790413	-0.155443	-0.592524	0.449094	-0.510790	0.733082
52683		-0.413435	-0.857273	-0.306846	0.785552	-0.165419	-0.596276	0.460413	-0.487565	0.741822
52684		-0.409824	-0.868437	-0.279036	0.780688	-0.175724	-0.599706	0.471773	-0.463614	0.749994
52685		-0.405935	-0.878777	-0.250933	0.775936	-0.186341	-0.602661	0.482846	-0.439349	0.757517
52686		-0.402221	-0.888135	-0.222338	0.771055	-0.197662	-0.605313	0.493652	-0.414904	0.764305
52687		-0.398430	-0.896687	-0.192886	0.765786	-0.209475	-0.608023	0.504802	-0.389964	0.770132
52688		-0.394495	-0.904396	-0.162605	0.760707	-0.222163	-0.609892	0.515459	-0.364295	0.775623
52689		-0.390090	-0.911311	-0.131692	0.755843	-0.235242	-0.611034	0.525863	-0.337897	0.780573
52690		-0.385535	-0.917195	-0.100575	0.751000	-0.248599	-0.611717	0.536061	-0.311371	0.784657
52691		-0.380760	-0.922031	-0.069862	0.746867	-0.262120	-0.611133	0.545171	-0.284873	0.788439
52692		-0.376300	-0.925630	-0.040095	0.743348	-0.275799	-0.609400	0.553021	-0.259122	0.791849
52693		-0.371652	-0.928301	-0.011451	0.740111	-0.288817	-0.607306	0.560456	-0.234182	0.794386
52694		-0.366807	-0.930147	0.016702	0.737867	-0.301821	-0.603702	0.566573	-0.209119	0.797035
52695		-0.361036	-0.931475	0.044809	0.736333	-0.314226	-0.599229	0.572247	-0.183349	0.799322
52696		-0.354383	-0.932200	0.073586	0.734990	-0.326332	-0.594388	0.578102	-0.156556	0.800805
52697		-0.346624	-0.932424	0.102164	0.734157	-0.337474	-0.589173	0.583837	-0.129218	0.801522
52698		-0.337861	-0.932150	0.130177	0.733616	-0.347462	-0.584019	0.589624	-0.101817	0.801234
52699		-0.327912	-0.931633	0.156633	0.732633	-0.355456	-0.580431	0.596425	-0.075576	0.799103
52700		-0.316715	-0.930904	0.181957	0.731637	-0.361845	-0.577733	0.603654	-0.049850	0.795686
52701		-0.304721	-0.929857	0.206183	0.730520	-0.367082	-0.575840	0.611135	-0.024850	0.791136
52702		-0.292159	-0.928338	0.229852	0.729057	-0.371738	-0.574706	0.618966	-0.000331	0.785418
52703		-0.279012	-0.926394	0.252876	0.726488	-0.375840	-0.575291	0.627987	0.023198	0.777878
52704		-0.264836	-0.924141	0.275364	0.723426	-0.379222	-0.576928	0.637587	0.046414	0.768979
52705		-0.249218	-0.921605	0.297548	0.720536	-0.381741	-0.578879	0.647084	0.070127	0.759187
52706		-0.232326	-0.918970	0.318621	0.717801	-0.383051	-0.581407	0.656343	0.093631	0.748630
52707		-0.214649	-0.916326	0.338042	0.715513	-0.383117	-0.584176	0.664806	0.116481	0.737879
52708		-0.196416	-0.913724	0.355710	0.713180	-0.382093	-0.587690	0.672900	0.138254	0.726699
52709		-0.178160	-0.911307	0.371186	0.711004	-0.379996	-0.591672	0.680244	0.158503	0.715643
52710		-0.159741	-0.908886	0.385240	0.708973	-0.377182	-0.595896	0.686906	0.177935	0.704627
52711		-0.140887	-0.906147	0.398808	0.707367	-0.373968	-0.599816	0.692663	0.197598	0.693666
52712		-0.121362	-0.903083	0.411961	0.706909	-0.369987	-0.602817	0.696815	0.218060	0.683300
52713		-0.101086	-0.899955	0.424102	0.707868	-0.364601	-0.604970	0.699074	0.239054	0.673905
52714		-0.079493	-0.896844	0.435146	0.709629	-0.357486	-0.607149	0.700077	0.260528	0.664844
52715		-0.056884	-0.893831	0.444781	0.711843	-0.348682	-0.609672	0.700031	0.281934	0.656102
52716		-0.033855	-0.891057	0.452627	0.713809	-0.338544	-0.613078	0.699522	0.302334	0.647506
52717		-0.010718	-0.888509	0.458733	0.716359	-0.326895	-0.616417	0.697650	0.322011	0.639995
52718		0.012776	-0.886086	0.463344	0.719450	-0.313665	-0.619682	0.694426	0.341270	0.633488
52719		0.036255	-0.883898	0.466272	0.722131	-0.299355	-0.623628	0.690805	0.359319	0.627438
52720		0.059797	-0.881645	0.468110	0.724269	-0.284387	-0.628138	0.686919	0.376598	0.621543
52721		0.083988	-0.879022	0.469324	0.727420	-0.267811	-0.631773	0.681033	0.394458	0.616926
52722		0.109379	-0.875959	0.469821	0.730588	-0.249647	-0.635545	0.674000	0.412761	0.612660
52723		0.135611	-0.872589	0.469252	0.733096	-0.230226	-0.639973	0.666468	0.430795	0.608471
52724		0.161795	-0.869193	0.467253	0.733598	-0.210757	-0.646077	0.660043	0.447308	0.603539
52725		0.187588	-0.865953	0.463612	0.731429	-0.191885	-0.654364	0.655608	0.461850	0.597388
52726		0.213097	-0.862800	0.458438	0.727322	-0.173214	-0.664078	0.652374	0.474945	0.590622
52727		0.238115	-0.859850	0.451620	0.721598	-0.154611	-0.674827	0.650075	0.486574	0.583651
52728		0.262634	-0.857167	0.443043	0.713414	-0.136651	-0.687290	0.649665	0.496579	0.575626
52729		0.286950	-0.854200	0.433592	0.704131	-0.118813	-0.700060	0.649507	0.506187	0.567375
52730		0.311210	-0.850669	0.423687	0.694607	-0.100660	-0.712312	0.648590	0.515975	0.559555
52731		0.335077	-0.846661	0.413386	0.684316	-0.082893	-0.724458	0.647638	0.525637	0.551608
52732		0.358212	-0.842571	0.402193	0.673529	-0.065114	-0.736287	0.646562	0.534635	0.544171
52733		0.381106	-0.838141	0.390229	0.663969	-0.045591	-0.746369	0.643353	0.543546	0.539124
52734		0.404052	-0.833746	0.376310	0.652890	-0.025280	-0.757031	0.640685	0.551569	0.534130
52735		0.427011	-0.829454	0.360094	0.638461	-0.005439	-0.769635	0.640335	0.558549	0.527252
52736		0.449671	-0.825239	0.341726	0.621448	0.014255	-0.783325	0.641559	0.564604	0.519254
52737		0.471608	-0.821121	0.321474	0.603024	0.034321	-0.796984	0.643387	0.569721	0.511342
52738		0.492144	-0.817001	0.300506	0.584207	0.054056	-0.809802	0.645365	0.574097	0.503901
52739		0.511308	-0.812588	0.279757	0.567023	0.074365	-0.820339	0.645793	0.578074	0.498779
52740		0.529833	-0.807702	0.258639	0.550951	0.095951	-0.829003	0.644772	0.581730	0.495842
52741		0.548008	-0.802418	0.236247	0.534203	0.118396	-0.837024	0.643673	0.584900	0.493536
52742		0.565662	-0.796756	0.212617	0.516282	0.141124	-0.844711	0.643024	0.587591	0.491180
52743		0.582912	-0.790453	0.188142	0.496673	0.163374	-0.852423	0.643063	0.590333	0.487829
52744		0.599969	-0.783180	0.163297	0.475360	0.184809	-0.860162	0.643483	0.593695	0.483172
52745		0.616555	-0.775084	0.138216	0.452752	0.205427	-0.867650	0.644108	0.597532	0.477578
52746		0.632035	-0.766662	0.112968	0.429052	0.224800	-0.874859	0.645326	0.601411	0.471019
52747		0.646248	-0.758042	0.087952	0.404371	0.242414	-0.881884	0.647184	0.605481	0.463190
52748		0.659324	-0.749163	0.063611	0.380223	0.259243	-0.887820	0.648631	0.609547	0.455774
52749		0.671702	-0.739749	0.039838	0.358332	0.277364	-0.891441	0.648393	0.613058	0.451382
52750		0.683426	-0.729839	0.016270	0.339082	0.297623	-0.892437	0.646493	0.615432	0.450878
52751		0.694404	-0.719546	-0.007542	0.323056	0.321099	-0.890242	0.642991	0.615751	0.455426
52752		0.704504	-0.708979	-0.031990	0.309229	0.347224	-0.885332	0.638789	0.613828	0.463857
52753		0.713599	-0.698228	-0.057049	0.296292	0.374599	-0.878571	0.634813	0.610044	0.474193
52754		0.721653	-0.687335	-0.082390	0.283640	0.402151	-0.870530	0.631479	0.604851	0.485169
52755		0.728818	-0.676072	-0.108402	0.270509	0.429744	-0.861478	0.629006	0.598537	0.496089
52756		0.734625	-0.664797	-0.135538	0.255722	0.456341	-0.852267	0.628436	0.591437	0.505243
52757		0.738293	-0.654315	-0.163695	0.238066	0.479875	-0.844419	0.631069	0.584459	0.510059
52758		0.740666	-0.643809	-0.192155	0.217091	0.499981	-0.838386	0.635835	0.579249	0.510084
52759		0.743013	-0.632069	-0.220044	0.193542	0.517653	-0.833413	0.640681	0.576649	0.506955
52760		0.746255	-0.618324	-0.246535	0.168793	0.534030	-0.828445	0.643904	0.576618	0.502891
52761		0.749903	-0.603173	-0.271713	0.144780	0.550402	-0.822251	0.645511	0.577270	0.500075
52762		0.752477	-0.587930	-0.296846	0.125686	0.570612	-0.811545	0.646515	0.573359	0.503266
52763		0.751579	-0.574743	-0.323726	0.110308	0.593355	-0.797347	0.650354	0.563560	0.509352
52764		0.747554	-0.563402	-0.351769	0.094641	0.614561	-0.783171	0.657424	0.552171	0.512739
52765		0.743139	-0.551677	-0.378679	0.078212	0.633656	-0.769651	0.664551	0.542340	0.514042
52766		0.739974	-0.538446	-0.403131	0.062141	0.651491	-0.756107	0.669759	0.534449	0.515546
52767		0.737857	-0.523943	-0.425499	0.047200	0.668921	-0.741833	0.673304	0.527284	0.518299
52768		0.735809	-0.508546	-0.447175	0.033796	0.687094	-0.725782	0.676345	0.518925	0.522757
52769		0.732623	-0.493342	-0.468911	0.021970	0.705713	-0.708157	0.680280	0.508510	0.527861
52770		0.727442	-0.479278	-0.491041	0.010528	0.723338	-0.690414	0.686088	0.497067	0.531232
52771		0.720488	-0.466521	-0.513084	-0.000557	0.739492	-0.673165	0.693467	0.485293	0.532535
52772		0.712134	-0.455013	-0.534629	-0.012388	0.753270	-0.657595	0.701934	0.474918	0.530793
52773		0.703125	-0.443875	-0.555508	-0.026571	0.764286	-0.644330	0.710569	0.467805	0.525595
52774		0.694193	-0.431841	-0.575856	-0.044991	0.772437	-0.633496	0.718382	0.465677	0.516791
52775		0.685093	-0.418770	-0.596053	-0.067975	0.777921	-0.624675	0.725277	0.468477	0.504483
52776		0.676356	-0.404884	-0.615314	-0.093167	0.781637	-0.616736	0.730659	0.474460	0.490943
52777		0.667986	-0.390992	-0.633182	-0.118984	0.783792	-0.609518	0.734600	0.482488	0.477041
52778		0.659309	-0.378465	-0.649674	-0.144000	0.784519	-0.603153	0.737954	0.491217	0.462742
52779		0.650470	-0.368241	-0.664295	-0.163889	0.785959	-0.596161	0.741639	0.496656	0.450892
52780		0.641725	-0.359900	-0.677245	-0.178289	0.788856	-0.588149	0.745923	0.498176	0.442063
52781		0.633113	-0.352628	-0.689073	-0.189433	0.792554	-0.579632	0.750522	0.497506	0.434977
52782		0.624901	-0.346157	-0.699767	-0.199685	0.795644	-0.571907	0.754735	0.497118	0.428076
52783		0.618080	-0.340142	-0.708718	-0.209407	0.797729	-0.565488	0.757711	0.497927	0.421832
52784		0.612779	-0.334858	-0.715801	-0.217593	0.799278	-0.560186	0.759707	0.499024	0.416918
52785		0.608882	-0.330675	-0.721053	-0.222840	0.801069	-0.555545	0.761318	0.498941	0.414069
52786		0.605741	-0.328197	-0.724821	-0.224589	0.803396	-0.551467	0.763307	0.496832	0.412940
52787		0.603205	-0.327493	-0.727249	-0.223645	0.805784	-0.548357	0.765589	0.493418	0.412811
52788		0.601362	-0.328383	-0.728374	-0.221025	0.807683	-0.546622	0.767797	0.489707	0.413129
52789		0.600233	-0.330757	-0.728231	-0.217771	0.808506	-0.546711	0.769608	0.486742	0.413263
52790		0.599901	-0.334560	-0.726766	-0.213966	0.808200	-0.548663	0.770933	0.484646	0.413255
52791		0.600511	-0.339727	-0.723860	-0.210091	0.806420	-0.552765	0.771524	0.484017	0.412890
52792		0.601790	-0.346085	-0.719773	-0.206021	0.803461	-0.558575	0.771624	0.484434	0.412214
52793		0.603821	-0.353411	-0.714494	-0.201546	0.799531	-0.565800	0.771220	0.485645	0.411545
52794		0.606261	-0.361724	-0.708240	-0.196744	0.794666	-0.574280	0.770545	0.487505	0.410608
52795		0.609182	-0.370980	-0.700907	-0.191496	0.788865	-0.583970	0.769562	0.489965	0.409522
52796		0.612584	-0.381141	-0.692440	-0.185482	0.782274	-0.594680	0.768334	0.492726	0.408513
52797		0.616539	-0.392082	-0.682753	-0.178982	0.774679	-0.606496	0.766711	0.496129	0.407445
52798		0.620818	-0.403944	-0.671874	-0.171940	0.766006	-0.619412	0.764867	0.500064	0.406097
52799		0.625180	-0.416721	-0.659919	-0.163760	0.756670	-0.632956	0.763107	0.503779	0.404813
52800		0.629333	-0.430511	-0.646993	-0.154767	0.746429	-0.647218	0.761569	0.507448	0.403124
52801		0.633347	-0.444922	-0.633179	-0.145010	0.735476	-0.661851	0.760160	0.510999	0.401293
52802		0.637163	-0.459628	-0.618681	-0.134501	0.724093	-0.676460	0.758903	0.514228	0.399545
52803		0.640844	-0.474504	-0.603461	-0.123763	0.711949	-0.691239	0.757629	0.517662	0.397522
52804		0.644334	-0.489736	-0.587360	-0.112940	0.698688	-0.706456	0.756358	0.521530	0.394878
52805		0.647756	-0.505446	-0.570032	-0.102182	0.683823	-0.722458	0.754964	0.526224	0.391302
52806		0.650969	-0.521741	-0.551385	-0.090688	0.667709	-0.738878	0.753668	0.530991	0.387342
52807		0.653726	-0.538582	-0.531575	-0.078455	0.650438	-0.755496	0.752654	0.535592	0.382954
52808		0.655763	-0.555988	-0.510738	-0.064615	0.632689	-0.771706	0.752197	0.539057	0.378969
52809		0.657279	-0.573605	-0.488837	-0.048918	0.614789	-0.787173	0.752058	0.541305	0.376029
52810		0.658120	-0.591238	-0.466171	-0.031512	0.596984	-0.801634	0.752253	0.542262	0.374256
52811		0.658215	-0.608640	-0.443069	-0.013216	0.579105	-0.815146	0.752714	0.542397	0.373132
52812		0.657535	-0.625739	-0.419640	0.005234	0.560758	-0.827963	0.753406	0.542219	0.371993
52813		0.656498	-0.642229	-0.395666	0.023374	0.541596	-0.840314	0.753966	0.542416	0.370568
52814		0.655154	-0.658181	-0.370906	0.041048	0.521230	-0.852429	0.754379	0.543247	0.368503
52815		0.653423	-0.673737	-0.345134	0.058521	0.499521	-0.864323	0.754728	0.544571	0.365826
52816		0.650868	-0.689252	-0.318280	0.077127	0.477099	-0.875459	0.755263	0.545260	0.363689
52817		0.647336	-0.704727	-0.290371	0.097132	0.454130	-0.885625	0.755990	0.545093	0.362426
52818		0.642690	-0.719975	-0.261887	0.118185	0.430912	-0.894621	0.756956	0.544013	0.362034
52819		0.637302	-0.734444	-0.233320	0.139570	0.407772	-0.902354	0.757869	0.542508	0.362381
52820		0.631297	-0.747973	-0.204942	0.159698	0.383968	-0.909431	0.758921	0.541392	0.361848
52821		0.624973	-0.760304	-0.177050	0.177295	0.359114	-0.916299	0.760247	0.541272	0.359235
52822		0.618048	-0.771845	-0.149238	0.193247	0.333176	-0.922849	0.762018	0.541525	0.355075
52823		0.610347	-0.782800	-0.121245	0.208342	0.306310	-0.928853	0.764245	0.541662	0.350046
52824		0.601638	-0.793379	-0.092635	0.223795	0.278754	-0.933923	0.766778	0.541152	0.345263
52825		0.592219	-0.803269	-0.063525	0.239678	0.250875	-0.937878	0.769306	0.540204	0.341099
52826		0.581795	-0.812610	-0.034335	0.255502	0.222681	-0.940815	0.772161	0.538589	0.337178
52827		0.570846	-0.821041	-0.005153	0.270891	0.194260	-0.942805	0.775083	0.536800	0.333305
52828		0.559388	-0.828556	0.024069	0.285153	0.165090	-0.944157	0.778314	0.535013	0.328615
52829		0.547028	-0.835427	0.053129	0.298154	0.135137	-0.944903	0.782218	0.532729	0.323009
52830		0.533473	-0.841806	0.082280	0.311059	0.104799	-0.944595	0.786542	0.529509	0.317759
52831		0.518665	-0.847661	0.111618	0.324330	0.074275	-0.943023	0.791073	0.525314	0.313446
52832		0.502307	-0.853074	0.141256	0.338288	0.043536	-0.940035	0.795769	0.519971	0.310453
52833		0.484682	-0.857883	0.170645	0.352380	0.012948	-0.935767	0.800570	0.513681	0.308577
52834		0.466109	-0.862005	0.199222	0.365699	-0.017326	-0.930572	0.805610	0.506603	0.307158
52835		0.446725	-0.865458	0.226756	0.376416	-0.048114	-0.925200	0.811633	0.498665	0.304279
52836		0.426276	-0.868325	0.253575	0.384997	-0.079514	-0.919486	0.818576	0.489581	0.300407
52837		0.405186	-0.870328	0.279918	0.393113	-0.110567	-0.912818	0.825401	0.479900	0.297337
52838		0.383632	-0.871308	0.306021	0.401684	-0.140948	-0.904866	0.831550	0.470060	0.295918
52839		0.361690	-0.871485	0.331201	0.411134	-0.169746	-0.895631	0.836749	0.460109	0.296901
52840		0.339093	-0.871090	0.355272	0.421304	-0.197047	-0.885255	0.841142	0.449861	0.300176
52841		0.316244	-0.870123	0.377988	0.430455	-0.223449	-0.874516	0.845398	0.439267	0.303884
52842		0.293266	-0.868380	0.399890	0.437738	-0.249893	-0.863678	0.849930	0.428334	0.306838
52843		0.270750	-0.865471	0.421490	0.443658	-0.276387	-0.852513	0.854319	0.417815	0.309142
52844		0.248260	-0.861468	0.442989	0.449130	-0.302819	-0.840585	0.858283	0.407643	0.311734
52845		0.224833	-0.856965	0.463747	0.455455	-0.328314	-0.827509	0.861400	0.397267	0.316493
52846		0.199448	-0.852475	0.483226	0.462306	-0.352943	-0.813452	0.863999	0.385640	0.323710
52847		0.172586	-0.847771	0.501497	0.467368	-0.377692	-0.799322	0.867053	0.372335	0.331036
52848		0.145927	-0.841950	0.519448	0.469758	-0.403126	-0.785377	0.870651	0.358623	0.336686
52849		0.120326	-0.834643	0.537487	0.469217	-0.429311	-0.771704	0.874847	0.345054	0.339971
52850		0.095863	-0.826117	0.555285	0.466720	-0.455427	-0.758128	0.879194	0.331839	0.341907
52851		0.072100	-0.816838	0.572344	0.462376	-0.481078	-0.744831	0.883748	0.318340	0.343001
52852		0.049092	-0.807011	0.588493	0.456925	-0.505786	-0.731710	0.888149	0.304819	0.343913
52853		0.026533	-0.796863	0.603578	0.450728	-0.529395	-0.718738	0.892267	0.291120	0.345122
52854		0.003391	-0.786460	0.617632	0.443019	-0.552536	-0.706001	0.896506	0.276017	0.346543
52855		-0.020613	-0.775574	0.630920	0.434321	-0.575346	-0.693067	0.900522	0.259736	0.348708
52856		-0.045257	-0.764071	0.643542	0.426999	-0.597184	-0.679002	0.903119	0.244063	0.353284
52857		-0.070060	-0.752019	0.655408	0.421647	-0.617768	-0.663759	0.904049	0.229848	0.360367
52858		-0.094225	-0.739129	0.666941	0.418289	-0.637314	-0.647198	0.903414	0.217991	0.369220
52859		-0.117485	-0.725426	0.678199	0.417352	-0.655759	-0.629124	0.901118	0.209135	0.379800
52860		-0.139542	-0.711193	0.689009	0.419069	-0.672847	-0.609638	0.897167	0.203672	0.391929
52861		-0.160529	-0.696629	0.699241	0.423214	-0.688582	-0.588850	0.891695	0.201402	0.405361
52862		-0.180691	-0.682023	0.708657	0.429175	-0.702977	-0.567126	0.884963	0.201664	0.419729
52863		-0.199685	-0.667903	0.716960	0.436255	-0.715775	-0.545296	0.877387	0.203890	0.434305
52864		-0.217713	-0.654529	0.724011	0.443881	-0.727051	-0.523800	0.869236	0.207337	0.448822
52865		-0.234669	-0.642084	0.729834	0.451287	-0.736948	-0.503237	0.860971	0.211270	0.462703
52866		-0.250334	-0.630397	0.734801	0.456832	-0.746075	-0.484435	0.853603	0.214410	0.474754
52867		-0.264470	-0.619127	0.739417	0.460308	-0.754783	-0.467353	0.847450	0.216759	0.484607
52868		-0.277494	-0.608194	0.743705	0.461947	-0.763214	-0.451784	0.842379	0.218185	0.492741
52869		-0.290384	-0.597909	0.747116	0.461746	-0.771399	-0.437874	0.838133	0.217826	0.500084
52870		-0.302594	-0.588123	0.750032	0.462732	-0.778610	-0.423847	0.833256	0.218810	0.507746
52871		-0.314023	-0.578806	0.752578	0.464151	-0.785083	-0.410133	0.828223	0.220519	0.515188
52872		-0.325398	-0.569998	0.754466	0.464165	-0.791429	-0.397731	0.823813	0.220776	0.522102
52873		-0.336834	-0.561839	0.755566	0.463650	-0.797397	-0.386247	0.819495	0.220217	0.529087
52874		-0.347832	-0.554165	0.756250	0.462680	-0.803014	-0.375626	0.815439	0.219247	0.535715
52875		-0.358065	-0.547170	0.756568	0.461849	-0.808015	-0.365797	0.811471	0.218441	0.542032
52876		-0.367374	-0.541160	0.756427	0.460355	-0.812487	-0.357685	0.808152	0.216821	0.547612
52877		-0.375415	-0.536373	0.755889	0.457762	-0.816432	-0.351985	0.805927	0.213876	0.552032
52878		-0.382065	-0.532814	0.755073	0.453931	-0.819900	-0.348871	0.804967	0.209460	0.555116
52879		-0.387189	-0.530497	0.754094	0.449227	-0.822785	-0.348165	0.805158	0.203954	0.556887
52880		-0.391004	-0.529490	0.752832	0.443882	-0.825023	-0.349722	0.806279	0.197426	0.557618
52881		-0.393709	-0.529919	0.751119	0.437414	-0.826674	-0.353947	0.808494	0.189198	0.557263
52882		-0.395126	-0.531804	0.749039	0.430644	-0.827474	-0.360322	0.811431	0.180197	0.555975
52883		-0.394409	-0.534718	0.747341	0.424544	-0.827302	-0.367877	0.814987	0.172185	0.553307
52884		-0.392060	-0.537954	0.746254	0.420851	-0.826219	-0.374495	0.818030	0.167237	0.550326
52885		-0.389185	-0.541508	0.745188	0.420375	-0.824224	-0.379394	0.819646	0.165603	0.548412
52886		-0.385976	-0.545828	0.743703	0.422495	-0.821248	-0.383470	0.820073	0.166201	0.547592
52887		-0.381885	-0.551110	0.741917	0.426367	-0.817284	-0.387631	0.819984	0.168299	0.547084
52888		-0.376315	-0.557479	0.740003	0.430564	-0.812455	-0.393105	0.820367	0.170688	0.545769
52889		-0.368938	-0.564941	0.738056	0.434181	-0.806864	-0.400572	0.821810	0.172663	0.542969
52890		-0.360105	-0.573527	0.735793	0.436515	-0.800627	-0.410428	0.824487	0.173387	0.538663
52891		-0.350272	-0.583046	0.733053	0.437697	-0.793815	-0.422231	0.828089	0.172959	0.533249
52892		-0.339755	-0.593413	0.729676	0.438432	-0.786303	-0.435321	0.832072	0.172010	0.527322
52893		-0.328294	-0.604478	0.725830	0.439399	-0.777947	-0.449140	0.836153	0.171479	0.521002
52894		-0.315835	-0.616267	0.721431	0.440890	-0.768599	-0.463543	0.840158	0.171669	0.514456
52895		-0.302324	-0.628803	0.716385	0.443538	-0.758035	-0.478182	0.843727	0.173178	0.508070
52896		-0.287805	-0.642033	0.710606	0.447235	-0.746226	-0.493080	0.846847	0.175897	0.501907
52897		-0.272171	-0.655437	0.704503	0.452373	-0.733346	-0.507506	0.849283	0.180570	0.496098
52898		-0.255803	-0.668865	0.697986	0.458705	-0.719533	-0.521403	0.850973	0.186793	0.490870
52899		-0.238744	-0.682215	0.691074	0.465956	-0.704857	-0.534848	0.851990	0.194318	0.486163
52900		-0.220897	-0.695545	0.683683	0.473285	-0.689375	-0.548418	0.852763	0.202433	0.481472
52901		-0.201969	-0.708812	0.675865	0.479869	-0.673196	-0.562613	0.853777	0.210696	0.476102
52902		-0.181810	-0.722045	0.667530	0.485001	-0.656374	-0.577881	0.855406	0.218688	0.469528
52903		-0.159875	-0.735180	0.658749	0.487843	-0.638989	-0.594729	0.858166	0.226284	0.460810
52904		-0.136079	-0.748228	0.649336	0.488178	-0.620978	-0.613244	0.862070	0.233542	0.449771
52905		-0.111255	-0.761333	0.638745	0.487164	-0.601993	-0.632674	0.866195	0.240785	0.437868
52906		-0.085963	-0.774477	0.626734	0.485531	-0.581872	-0.652445	0.869983	0.248212	0.426053
52907		-0.060183	-0.787251	0.613689	0.484742	-0.560492	-0.671471	0.872584	0.257070	0.415345
52908		-0.034228	-0.799417	0.599800	0.485293	-0.537943	-0.689281	0.873682	0.267486	0.406364
52909		-0.008227	-0.810757	0.585325	0.487541	-0.514311	-0.705541	0.873061	0.279565	0.399508
52910		0.017747	-0.821328	0.570180	0.491064	-0.489591	-0.720526	0.870943	0.292782	0.394636
52911		0.044247	-0.831043	0.554445	0.495339	-0.463715	-0.734580	0.867572	0.307141	0.391130
52912		0.071440	-0.840223	0.537514	0.500168	-0.436065	-0.748117	0.862976	0.322293	0.389100
52913		0.098652	-0.849117	0.518911	0.504622	-0.406750	-0.761519	0.857686	0.336979	0.388356
52914		0.125596	-0.857539	0.498852	0.508310	-0.376193	-0.774661	0.851966	0.350866	0.388647
52915		0.152588	-0.864978	0.478048	0.512604	-0.344291	-0.786576	0.844958	0.365071	0.390857
52916		0.179573	-0.871122	0.457055	0.516992	-0.311707	-0.797219	0.836943	0.379453	0.394389
52917		0.206713	-0.875968	0.435832	0.520502	-0.278730	-0.807085	0.828461	0.393686	0.398326
52918		0.233681	-0.879867	0.413795	0.522936	-0.245055	-0.816386	0.819714	0.407162	0.402849
52919		0.260619	-0.882788	0.390849	0.524901	-0.210211	-0.824797	0.810282	0.420115	0.408591
52920		0.287182	-0.884984	0.366511	0.524801	-0.174723	-0.833100	0.801318	0.431597	0.414263
52921		0.313414	-0.886392	0.340707	0.521379	-0.139249	-0.841887	0.793685	0.441497	0.418504
52922		0.339797	-0.886660	0.313643	0.515546	-0.103317	-0.850610	0.786607	0.450732	0.422007
52923		0.366089	-0.885710	0.285475	0.508053	-0.066787	-0.858733	0.779654	0.459409	0.425538
52924		0.391780	-0.883583	0.256494	0.499116	-0.030086	-0.866013	0.772912	0.467307	0.429223
52925		0.416674	-0.880209	0.227189	0.489838	0.006864	-0.871786	0.765795	0.474537	0.434020
52926		0.440465	-0.875791	0.197436	0.479742	0.043724	-0.876319	0.758840	0.480706	0.439413
52927		0.463175	-0.870266	0.167651	0.467989	0.079519	-0.880150	0.752633	0.486122	0.444105
52928		0.485436	-0.863333	0.137871	0.454957	0.114789	-0.883084	0.746569	0.491406	0.448502
52929		0.507486	-0.854926	0.107518	0.441045	0.150534	-0.884770	0.740228	0.496428	0.453455
52930		0.528907	-0.845269	0.076006	0.426386	0.187227	-0.884952	0.733793	0.500465	0.459437
52931		0.549222	-0.834541	0.043552	0.410471	0.224007	-0.883931	0.727920	0.503352	0.465585
52932		0.568408	-0.822671	0.011208	0.392497	0.259165	-0.882485	0.723090	0.506010	0.470207
52933		0.586594	-0.809640	-0.019761	0.374529	0.292823	-0.879763	0.718078	0.508663	0.475002
52934		0.603149	-0.796094	-0.049447	0.359069	0.326354	-0.874393	0.712236	0.509634	0.482693
52935		0.617700	-0.782501	-0.078357	0.346691	0.360392	-0.865981	0.705870	0.507751	0.493900
52936		0.630223	-0.768951	-0.107393	0.336102	0.394882	-0.855046	0.699896	0.502775	0.507310
52937		0.640711	-0.755430	-0.137165	0.326871	0.430036	-0.841561	0.694726	0.494362	0.522457
52938		0.648765	-0.742186	-0.168118	0.316999	0.464414	-0.826941	0.691821	0.483197	0.536568
52939		0.654960	-0.728816	-0.199636	0.305414	0.496955	-0.812255	0.691194	0.471023	0.548076
52940		0.660082	-0.714875	-0.230751	0.291853	0.527103	-0.798113	0.692181	0.459474	0.556569
52941		0.664933	-0.700166	-0.260061	0.276330	0.554091	-0.785255	0.693906	0.450279	0.561910
52942		0.669482	-0.685077	-0.287165	0.261819	0.579397	-0.771849	0.695158	0.441553	0.567262
52943		0.673203	-0.670080	-0.312716	0.249875	0.604166	-0.756668	0.695960	0.431251	0.574162
52944		0.675436	-0.655766	-0.337278	0.240426	0.628218	-0.739958	0.697124	0.418704	0.581984
52945		0.675632	-0.642503	-0.361539	0.233692	0.651751	-0.721532	0.699220	0.403001	0.590492
52946		0.673706	-0.630117	-0.386099	0.229841	0.675211	-0.700901	0.702348	0.383460	0.599721
52947		0.669899	-0.618489	-0.410739	0.226273	0.696975	-0.680460	0.707132	0.362901	0.606850
52948		0.665215	-0.607447	-0.434162	0.221862	0.716027	-0.661878	0.712928	0.343968	0.611081
52949		0.660893	-0.596706	-0.455151	0.216676	0.732366	-0.645517	0.718521	0.327997	0.613307
52950		0.656212	-0.586542	-0.474715	0.212470	0.747286	-0.629619	0.724046	0.312301	0.615001
52951		0.650131	-0.576913	-0.494471	0.209215	0.761535	-0.613427	0.730451	0.295357	0.615796
52952		0.643225	-0.567100	-0.514450	0.205922	0.775259	-0.597134	0.737467	0.278155	0.615444
52953		0.636606	-0.556996	-0.533375	0.202683	0.788154	-0.581148	0.744079	0.261857	0.614637
52954		0.630773	-0.547066	-0.550313	0.200242	0.799933	-0.565694	0.749686	0.246628	0.614122
52955		0.625693	-0.537828	-0.565022	0.198622	0.810291	-0.551342	0.754359	0.232745	0.613818
52956		0.621413	-0.529197	-0.577751	0.196969	0.819250	-0.538547	0.758320	0.220861	0.613328
52957		0.617796	-0.520898	-0.589062	0.194024	0.826937	-0.527759	0.762025	0.211756	0.611945
52958		0.614533	-0.512682	-0.599589	0.188730	0.833513	-0.519266	0.765983	0.205946	0.608979
52959		0.611263	-0.504653	-0.609657	0.181037	0.839061	-0.513032	0.770443	0.203227	0.604248
52960		0.607706	-0.497176	-0.619281	0.171650	0.843589	-0.508815	0.775390	0.202910	0.597995
52961		0.604272	-0.490552	-0.627864	0.162018	0.847191	-0.505983	0.780132	0.204026	0.591412
52962		0.601339	-0.485049	-0.634917	0.153525	0.849983	-0.503944	0.784106	0.205566	0.585595
52963		0.599149	-0.480684	-0.640284	0.146469	0.852027	-0.502589	0.787126	0.207344	0.580896
52964		0.597345	-0.477153	-0.644596	0.141138	0.853752	-0.501186	0.789468	0.208404	0.577329
52965		0.595705	-0.474065	-0.648381	0.137636	0.855553	-0.499085	0.791323	0.208066	0.574906
52966		0.594322	-0.471147	-0.651769	0.135871	0.857602	-0.496043	0.792667	0.206252	0.573707
52967		0.593245	-0.468435	-0.654697	0.135764	0.859835	-0.492190	0.793491	0.203105	0.573690
52968		0.592621	-0.466105	-0.656922	0.136991	0.862006	-0.488037	0.793747	0.199228	0.574694
52969		0.592403	-0.464515	-0.658244	0.139599	0.863869	-0.483986	0.793455	0.194824	0.576604
52970		0.592178	-0.463798	-0.658952	0.143823	0.865457	-0.479895	0.792868	0.189411	0.579209
52971		0.591811	-0.463993	-0.659144	0.149470	0.866705	-0.475901	0.792098	0.183121	0.582278
52972		0.591058	-0.464956	-0.659141	0.156030	0.867624	-0.472106	0.791394	0.176196	0.585363
52973		0.590370	-0.466433	-0.658713	0.162915	0.868181	-0.468744	0.790520	0.169418	0.588537
52974		0.590063	-0.468157	-0.657764	0.170071	0.868508	-0.465586	0.789241	0.162858	0.592095
52975		0.589931	-0.469949	-0.656605	0.176948	0.868656	-0.462738	0.787827	0.156798	0.595603
52976		0.589940	-0.471643	-0.655381	0.183263	0.868699	-0.460192	0.786375	0.151379	0.598914
52977		0.590145	-0.473133	-0.654120	0.188627	0.868645	-0.458123	0.784951	0.146974	0.601872
52978		0.590598	-0.474437	-0.652766	0.192943	0.868474	-0.456647	0.783560	0.143748	0.604458
52979		0.591372	-0.475557	-0.651249	0.196178	0.868181	-0.455824	0.782172	0.141800	0.606712
52980		0.592341	-0.476518	-0.649664	0.198428	0.867792	-0.455591	0.780870	0.140954	0.608583
52981		0.593346	-0.477391	-0.648103	0.199654	0.867272	-0.456045	0.779794	0.141196	0.609906
52982		0.594222	-0.478235	-0.646678	0.200171	0.866659	-0.456983	0.778994	0.142103	0.610717
52983		0.594814	-0.479120	-0.645477	0.200517	0.866019	-0.458044	0.778453	0.143021	0.611192
52984		0.594897	-0.480070	-0.644694	0.200735	0.865373	-0.459168	0.778333	0.143746	0.611175
52985		0.594733	-0.480980	-0.644167	0.200548	0.864711	-0.460495	0.778507	0.144685	0.610732
52986		0.594453	-0.481791	-0.643819	0.200281	0.864117	-0.461724	0.778789	0.145529	0.610171
52987		0.594203	-0.482566	-0.643470	0.200179	0.863575	-0.462781	0.779007	0.146177	0.609738
52988		0.593863	-0.483351	-0.643194	0.200640	0.863143	-0.463388	0.779147	0.146139	0.609568
52989		0.593215	-0.484128	-0.643208	0.202014	0.862927	-0.463193	0.779286	0.144836	0.609701
52990		0.592050	-0.484708	-0.643845	0.204422	0.863107	-0.461799	0.779544	0.141792	0.610087
52991		0.590520	-0.484962	-0.645056	0.207209	0.863621	-0.459590	0.779968	0.137736	0.610474
52992		0.588779	-0.484960	-0.646647	0.210005	0.864322	-0.456995	0.780536	0.133270	0.610739
52993		0.587064	-0.484688	-0.648409	0.213063	0.865228	-0.453856	0.781000	0.128290	0.611213
52994		0.584963	-0.484209	-0.650661	0.216562	0.866357	-0.450030	0.781613	0.122342	0.611648
52995		0.582106	-0.483585	-0.653680	0.219599	0.867548	-0.446248	0.782898	0.116216	0.611200
52996		0.578734	-0.482793	-0.657251	0.222091	0.868775	-0.442612	0.784693	0.110186	0.610013
52997		0.574962	-0.481876	-0.661222	0.224083	0.870005	-0.439179	0.786896	0.104342	0.608200
52998		0.571187	-0.480802	-0.665263	0.225322	0.871195	-0.436176	0.789288	0.099239	0.605950
52999		0.567689	-0.479600	-0.669114	0.226423	0.872393	-0.433202	0.791494	0.094421	0.603840
53000		0.564159	-0.478386	-0.672957	0.228486	0.873673	-0.429522	0.793422	0.088558	0.602195
53001		0.560171	-0.477145	-0.677156	0.231979	0.875099	-0.424720	0.795232	0.080830	0.600893
53002		0.555394	-0.475747	-0.682057	0.237078	0.876734	-0.418487	0.797077	0.070724	0.599722
53003		0.549816	-0.473999	-0.687769	0.243005	0.878549	-0.411219	0.799156	0.058964	0.598225
53004		0.543724	-0.471867	-0.694050	0.249283	0.880455	-0.403309	0.801387	0.046274	0.596353
53005		0.537286	-0.469470	-0.700657	0.255975	0.882338	-0.394914	0.803617	0.032831	0.594241
53006		0.530390	-0.466876	-0.707611	0.263468	0.884135	-0.385862	0.805773	0.018225	0.591944
53007		0.522873	-0.464188	-0.714936	0.271648	0.885733	-0.376409	0.807967	0.002603	0.589221
53008		0.514738	-0.461556	-0.722503	0.280191	0.887008	-0.367029	0.810271	-0.013515	0.585900
53009		0.506235	-0.459114	-0.730028	0.288840	0.887885	-0.358095	0.812587	-0.029581	0.582089
53010		0.497757	-0.456863	-0.737234	0.297852	0.888364	-0.349418	0.814569	-0.045661	0.578267
53011		0.489160	-0.454705	-0.744289	0.307758	0.888447	-0.340510	0.816093	-0.062497	0.574531
53012		0.479685	-0.452282	-0.751893	0.318535	0.888217	-0.331068	0.817580	-0.080696	0.570132
53013		0.468832	-0.449487	-0.760367	0.329548	0.887692	-0.321560	0.819509	-0.099820	0.564306
53014		0.456287	-0.446350	-0.769788	0.340428	0.886844	-0.312436	0.822138	-0.119497	0.556606
53015		0.442875	-0.443120	-0.779427	0.350699	0.885684	-0.304260	0.825149	-0.138595	0.547650
53016		0.429352	-0.439659	-0.788896	0.359531	0.884514	-0.297276	0.828489	-0.155996	0.537839
53017		0.416145	-0.436103	-0.797895	0.366957	0.883402	-0.291451	0.831965	-0.171507	0.527655
53018		0.403181	-0.432334	-0.806556	0.373419	0.882375	-0.286310	0.835466	-0.185748	0.517199
53019		0.390022	-0.428534	-0.815010	0.379420	0.881266	-0.281801	0.839002	-0.199322	0.506307
53020		0.376707	-0.424740	-0.823218	0.385655	0.879917	-0.277517	0.842236	-0.212936	0.495274
53021		0.363326	-0.420974	-0.831129	0.392096	0.878333	-0.273479	0.845136	-0.226520	0.484184
53022		0.350161	-0.417103	-0.838697	0.399056	0.876491	-0.269291	0.847432	-0.240392	0.473361
53023		0.337034	-0.413313	-0.845920	0.406777	0.874225	-0.265073	0.849082	-0.254762	0.462770
53024		0.323763	-0.409405	-0.852974	0.415560	0.871452	-0.260540	0.849993	-0.270109	0.452276
53025		0.309947	-0.405436	-0.859974	0.425282	0.868104	-0.255991	0.850334	-0.286387	0.441491
53026		0.295496	-0.401375	-0.866937	0.435518	0.864276	-0.251697	0.850298	-0.303192	0.430196
53027		0.280527	-0.397440	-0.873697	0.445611	0.860134	-0.248193	0.850139	-0.319704	0.418394
53028		0.265283	-0.393482	-0.880225	0.455813	0.855656	-0.245126	0.849623	-0.336191	0.406345
53029		0.249450	-0.389216	-0.886727	0.465926	0.850960	-0.242445	0.848933	-0.352672	0.393618
53030		0.233675	-0.384748	-0.892953	0.477025	0.845622	-0.239523	0.847256	-0.369990	0.381135
53031		0.217675	-0.380103	-0.898966	0.488649	0.839747	-0.236743	0.844891	-0.387745	0.368528
53032		0.201219	-0.375034	-0.904909	0.500862	0.833300	-0.233982	0.841812	-0.406153	0.355516
53033		0.184192	-0.369862	-0.910645	0.513038	0.826448	-0.231895	0.838370	-0.424483	0.341979
53034		0.166478	-0.364839	-0.916066	0.524983	0.819206	-0.230857	0.834672	-0.442486	0.327914
53035		0.148288	-0.360330	-0.920963	0.537124	0.811276	-0.230930	0.830366	-0.460427	0.313845
53036		0.130047	-0.356510	-0.925196	0.549945	0.802367	-0.231878	0.825014	-0.478652	0.300407
53037		0.111593	-0.353402	-0.928792	0.563255	0.792496	-0.233868	0.818713	-0.497049	0.287493
53038		0.092978	-0.350795	-0.931825	0.576697	0.781885	-0.236806	0.811650	-0.515363	0.275001
53039		0.073953	-0.348865	-0.934250	0.589773	0.770733	-0.241120	0.804176	-0.533164	0.262750
53040		0.054858	-0.347769	-0.935974	0.602111	0.759299	-0.246834	0.796525	-0.550020	0.251050
53041		0.035522	-0.347691	-0.936936	0.613352	0.747771	-0.254239	0.789010	-0.565641	0.239819
53042		0.015902	-0.348563	-0.937150	0.624000	0.735805	-0.263087	0.781263	-0.580598	0.229204
53043		-0.004170	-0.350273	-0.936638	0.634476	0.723043	-0.273220	0.772932	-0.595413	0.219225
53044		-0.024421	-0.352441	-0.935515	0.644486	0.709822	-0.284238	0.764226	-0.609868	0.209809
53045		-0.045294	-0.355053	-0.933748	0.653691	0.696274	-0.296464	0.755405	-0.623811	0.200558
53046		-0.066596	-0.358027	-0.931333	0.662710	0.681913	-0.309531	0.745909	-0.637818	0.191855
53047		-0.088466	-0.361442	-0.928188	0.671219	0.666867	-0.323656	0.735961	-0.651650	0.183611
53048		-0.110910	-0.365143	-0.924321	0.678846	0.651445	-0.338802	0.725856	-0.665048	0.175624
53049		-0.133993	-0.369462	-0.919534	0.685363	0.635657	-0.355272	0.715768	-0.677818	0.168042
53050		-0.157547	-0.374189	-0.913872	0.690806	0.619543	-0.372766	0.705668	-0.690036	0.160885
53051		-0.181622	-0.379365	-0.907246	0.694894	0.603282	-0.391373	0.695799	-0.701522	0.154049
53052		-0.205487	-0.384796	-0.899837	0.698148	0.586707	-0.410321	0.685831	-0.712536	0.148084
53053		-0.229379	-0.390219	-0.891692	0.699211	0.571253	-0.429855	0.677119	-0.722080	0.141812
53054		-0.252956	-0.395882	-0.882774	0.698749	0.556334	-0.449714	0.669151	-0.730596	0.135894
53055		-0.275940	-0.402570	-0.872808	0.696649	0.541864	-0.470174	0.662222	-0.737780	0.130928
53056		-0.298856	-0.409695	-0.861879	0.692677	0.528109	-0.491222	0.656417	-0.743808	0.125958
53057		-0.322146	-0.417156	-0.849825	0.687516	0.514020	-0.512937	0.650802	-0.749509	0.121212
53058		-0.345954	-0.424507	-0.836726	0.681361	0.499421	-0.535094	0.645030	-0.755230	0.116466
53059		-0.370192	-0.431596	-0.822608	0.674200	0.484364	-0.557535	0.639071	-0.760997	0.111675
53060		-0.394471	-0.438074	-0.807765	0.666823	0.468358	-0.579646	0.632250	-0.767289	0.107364
53061		-0.418417	-0.443860	-0.792411	0.658835	0.452223	-0.601192	0.625191	-0.773617	0.103213
53062		-0.441999	-0.448889	-0.776618	0.649659	0.436797	-0.622215	0.618530	-0.779555	0.098561
53063		-0.465313	-0.453778	-0.759980	0.639571	0.421188	-0.643078	0.611909	-0.785294	0.094240
53064		-0.487964	-0.458604	-0.742680	0.628477	0.405859	-0.663547	0.605729	-0.790544	0.090177
53065		-0.510570	-0.463425	-0.724262	0.616153	0.390322	-0.684109	0.599728	-0.795542	0.086254
53066		-0.533057	-0.467672	-0.705077	0.602805	0.374835	-0.704361	0.593697	-0.800489	0.082106
53067		-0.554926	-0.471438	-0.685423	0.589154	0.358985	-0.723897	0.587329	-0.805529	0.078539
53068		-0.575944	-0.474166	-0.665924	0.575929	0.342764	-0.742172	0.580167	-0.810975	0.075673
53069		-0.596048	-0.475790	-0.646800	0.563484	0.326007	-0.759082	0.572025	-0.816911	0.073785
53070		-0.614822	-0.476287	-0.628605	0.552502	0.308658	-0.774255	0.562792	-0.823335	0.073380
53071		-0.632227	-0.475766	-0.611502	0.541996	0.292409	-0.787869	0.553650	-0.829544	0.072994
53072		-0.648192	-0.474111	-0.595874	0.532225	0.277572	-0.799807	0.544595	-0.835567	0.072414
53073		-0.662549	-0.472166	-0.581453	0.523700	0.262983	-0.810295	0.535506	-0.841368	0.073035
53074		-0.675232	-0.470054	-0.568429	0.516653	0.248605	-0.819308	0.526433	-0.846903	0.074989
53075		-0.686009	-0.467556	-0.557480	0.510341	0.236908	-0.826696	0.518598	-0.851626	0.076092
53076		-0.693947	-0.466363	-0.548583	0.504745	0.228261	-0.832544	0.513488	-0.854636	0.076994
53077		-0.699251	-0.467971	-0.540417	0.501823	0.217075	-0.837288	0.509137	-0.856669	0.083049
53078		-0.702856	-0.471646	-0.532488	0.501976	0.201520	-0.841077	0.503997	-0.858452	0.095116
53079		-0.705633	-0.476123	-0.524775	0.503214	0.184677	-0.844198	0.498856	-0.859768	0.109278
53080		-0.707745	-0.480487	-0.517909	0.504528	0.169395	-0.846615	0.494518	-0.860487	0.122531
53081		-0.709031	-0.484739	-0.512155	0.505885	0.156334	-0.848316	0.491280	-0.860574	0.134376
53082		-0.709391	-0.488651	-0.507921	0.507604	0.145754	-0.849172	0.488981	-0.860218	0.144645
53083		-0.708695	-0.492424	-0.505242	0.510200	0.136913	-0.849088	0.487285	-0.859519	0.154205
53084		-0.706827	-0.496025	-0.504336	0.513909	0.129855	-0.847959	0.486099	-0.858544	0.163126
53085		-0.703537	-0.499663	-0.505344	0.518974	0.124555	-0.845667	0.485492	-0.857218	0.171683
53086		-0.698782	-0.503144	-0.508478	0.525727	0.120811	-0.842031	0.485093	-0.855716	0.180096
53087		-0.692543	-0.506692	-0.513466	0.533808	0.118807	-0.837218	0.485215	-0.853902	0.188197
53088		-0.684984	-0.510022	-0.520264	0.542723	0.119203	-0.831410	0.486054	-0.851862	0.195149
53089		-0.676112	-0.513300	-0.528579	0.551829	0.122590	-0.824898	0.488219	-0.849408	0.200370
53090		-0.665947	-0.516706	-0.538079	0.560677	0.129118	-0.817906	0.492092	-0.846371	0.203720
53091		-0.654779	-0.520080	-0.548434	0.568838	0.138702	-0.810670	0.497682	-0.842780	0.205022
53092		-0.643037	-0.522834	-0.559597	0.575705	0.151862	-0.803431	0.505043	-0.838798	0.203345
53093		-0.631159	-0.524693	-0.571258	0.581053	0.168045	-0.796328	0.513825	-0.834541	0.198811
53094		-0.618651	-0.525793	-0.583791	0.584650	0.188280	-0.789136	0.524838	-0.829513	0.190926
53095		-0.604651	-0.526491	-0.597666	0.588746	0.209952	-0.780576	0.536447	-0.823849	0.183022
53096		-0.588307	-0.527461	-0.612927	0.595836	0.229685	-0.769561	0.546694	-0.817942	0.179155
53097		-0.569464	-0.529120	-0.629081	0.604555	0.248956	-0.756659	0.556978	-0.811204	0.178111
53098		-0.549979	-0.530627	-0.644948	0.612156	0.269204	-0.743501	0.568145	-0.803719	0.176769
53099		-0.530719	-0.531926	-0.659843	0.617815	0.290165	-0.730828	0.580209	-0.795525	0.174636
53100		-0.511855	-0.532590	-0.674057	0.623006	0.310115	-0.718117	0.591497	-0.787513	0.173073
53101		-0.493784	-0.531840	-0.687985	0.629119	0.327697	-0.704857	0.600322	-0.780872	0.172780
53102		-0.476945	-0.529332	-0.701663	0.636223	0.342875	-0.691127	0.606419	-0.776044	0.173240
53103		-0.460987	-0.524695	-0.715672	0.643278	0.357965	-0.676797	0.611297	-0.772371	0.172507
53104		-0.445205	-0.518088	-0.730327	0.650409	0.373475	-0.661426	0.615436	-0.769482	0.170696
53105		-0.428955	-0.510053	-0.745549	0.659366	0.387342	-0.644362	0.617441	-0.767992	0.170160
53106		-0.412656	-0.500732	-0.760909	0.668822	0.400537	-0.626297	0.618379	-0.767357	0.169617
53107		-0.396432	-0.490610	-0.775979	0.678948	0.412262	-0.607512	0.617958	-0.767686	0.169665
53108		-0.380453	-0.479749	-0.790631	0.689933	0.422057	-0.588098	0.615831	-0.769226	0.170422
53109		-0.364928	-0.468481	-0.804582	0.702008	0.429196	-0.568310	0.611566	-0.772215	0.172252
53110		-0.350098	-0.457056	-0.817638	0.714953	0.433579	-0.548499	0.605205	-0.776601	0.174978
53111		-0.336738	-0.445690	-0.829438	0.727887	0.435589	-0.529569	0.597318	-0.782063	0.177733
53112		-0.325597	-0.434491	-0.839764	0.739214	0.436800	-0.512610	0.589534	-0.787669	0.178961
53113		-0.317235	-0.423767	-0.848401	0.748127	0.437959	-0.498496	0.582810	-0.792852	0.178096
53114		-0.311168	-0.413888	-0.855495	0.755855	0.437877	-0.486771	0.576070	-0.798098	0.176586
53115		-0.307090	-0.404912	-0.861245	0.763109	0.435971	-0.477068	0.568648	-0.803726	0.175110
53116		-0.305253	-0.396497	-0.865800	0.769237	0.433273	-0.469627	0.561334	-0.809360	0.172742
53117		-0.305409	-0.389760	-0.868799	0.774501	0.429114	-0.464769	0.553962	-0.814830	0.170815
53118		-0.307443	-0.384189	-0.870562	0.779083	0.423663	-0.462104	0.546359	-0.820310	0.169063
53119		-0.312027	-0.379188	-0.871123	0.781858	0.418425	-0.462188	0.539756	-0.825310	0.165911
53120		-0.318838	-0.375282	-0.870348	0.783573	0.412265	-0.464812	0.533250	-0.830182	0.162615
53121		-0.327795	-0.372043	-0.868409	0.784340	0.405239	-0.469673	0.526652	-0.835084	0.158973
53122		-0.338676	-0.369050	-0.865506	0.783959	0.397981	-0.476465	0.520294	-0.839889	0.154533
53123		-0.351034	-0.366532	-0.861643	0.782966	0.389793	-0.484794	0.513555	-0.844817	0.150151
53124		-0.364887	-0.364301	-0.856821	0.780495	0.382065	-0.494828	0.507627	-0.849301	0.144924
53125		-0.380304	-0.362726	-0.850764	0.776433	0.374592	-0.506786	0.502514	-0.853294	0.139173
53126		-0.397165	-0.361995	-0.843339	0.770799	0.367190	-0.520615	0.498125	-0.856815	0.133191
53127		-0.415153	-0.362155	-0.834561	0.763254	0.360549	-0.536141	0.495066	-0.859563	0.126733
53128		-0.433716	-0.363017	-0.824687	0.753834	0.355175	-0.552797	0.493583	-0.861434	0.119610
53129		-0.452420	-0.364874	-0.813746	0.743018	0.350403	-0.570213	0.493195	-0.862604	0.112579
53130		-0.470854	-0.368041	-0.801774	0.730756	0.346460	-0.588184	0.494259	-0.862851	0.105817
53131		-0.489444	-0.372696	-0.788380	0.716254	0.343877	-0.607230	0.497418	-0.861885	0.098636
53132		-0.508083	-0.379183	-0.773351	0.699743	0.341810	-0.627317	0.502207	-0.859876	0.091663
53133		-0.526855	-0.387217	-0.756628	0.681568	0.339402	-0.648284	0.507827	-0.857245	0.085099
53134		-0.545945	-0.395748	-0.738463	0.662286	0.335995	-0.669690	0.513148	-0.854688	0.078664
53135		-0.565390	-0.403666	-0.719297	0.642864	0.330716	-0.690907	0.516779	-0.853042	0.072519
53136		-0.585169	-0.409542	-0.699894	0.624142	0.323560	-0.711165	0.517710	-0.852985	0.066275
53137		-0.605171	-0.413270	-0.680423	0.606325	0.314594	-0.730343	0.515886	-0.854540	0.060193
53138		-0.624715	-0.415558	-0.661092	0.589761	0.303781	-0.748264	0.511775	-0.857338	0.055304
53139		-0.643040	-0.417760	-0.641854	0.574847	0.290473	-0.764968	0.506014	-0.860873	0.053362
53140		-0.659845	-0.420210	-0.622919	0.561297	0.275496	-0.780415	0.499550	-0.864595	0.054078
53141		-0.675121	-0.423208	-0.604240	0.548603	0.259580	-0.794766	0.493200	-0.868051	0.056925
53142		-0.688668	-0.426775	-0.586174	0.536642	0.243649	-0.807868	0.487598	-0.870918	0.061232
53143		-0.700006	-0.431235	-0.569235	0.525710	0.228320	-0.819450	0.483344	-0.872872	0.066879
53144		-0.709155	-0.436272	-0.553864	0.515941	0.214284	-0.829389	0.480524	-0.873927	0.073130
53145		-0.715966	-0.442193	-0.540239	0.507231	0.202228	-0.837748	0.479697	-0.873825	0.079505
53146		-0.720507	-0.448921	-0.528526	0.499578	0.192555	-0.844597	0.480927	-0.872578	0.085534
53147		-0.722987	-0.456356	-0.518681	0.492772	0.185566	-0.850142	0.484216	-0.870233	0.090718
53148		-0.723734	-0.464382	-0.510450	0.487863	0.178835	-0.854405	0.488057	-0.867391	0.097126
53149		-0.723066	-0.473213	-0.503234	0.485315	0.170418	-0.857570	0.491573	-0.864307	0.106434
53150		-0.721389	-0.482294	-0.496981	0.484690	0.160957	-0.859749	0.494644	-0.861095	0.117651
53151		-0.719211	-0.491060	-0.491523	0.484517	0.152560	-0.861376	0.497974	-0.857663	0.128204
53152		-0.716608	-0.499070	-0.487239	0.484657	0.146065	-0.862422	0.501577	-0.854163	0.137207
53153		-0.713356	-0.506442	-0.484395	0.485348	0.141579	-0.862782	0.505530	-0.850571	0.144804
53154		-0.709371	-0.513172	-0.483164	0.486415	0.139674	-0.862492	0.510092	-0.846844	0.150534
53155		-0.704315	-0.519670	-0.483615	0.487744	0.140745	-0.861566	0.515796	-0.842694	0.154338
53156		-0.698062	-0.525772	-0.486080	0.489757	0.144627	-0.859780	0.522348	-0.838241	0.156542
53157		-0.690486	-0.531425	-0.490731	0.492548	0.151414	-0.857013	0.529742	-0.833463	0.157203
53158		-0.681811	-0.536420	-0.497380	0.495653	0.161305	-0.853410	0.538017	-0.828392	0.155898
53159		-0.672212	-0.540578	-0.505872	0.498735	0.174349	-0.849038	0.547170	-0.823030	0.152406
53160		-0.661989	-0.543808	-0.515793	0.502662	0.188350	-0.843715	0.555969	-0.817800	0.148666
53161		-0.650933	-0.546470	-0.526932	0.508171	0.201989	-0.837235	0.563959	-0.812755	0.146219
53162		-0.639576	-0.548211	-0.538895	0.514886	0.215048	-0.829847	0.570819	-0.808220	0.144726
53163		-0.628478	-0.548992	-0.551019	0.522911	0.226230	-0.821817	0.575829	-0.804629	0.144893
53164		-0.617919	-0.549180	-0.562652	0.532109	0.234730	-0.813487	0.578823	-0.802061	0.147179
53165		-0.607187	-0.549097	-0.574296	0.541050	0.243592	-0.804940	0.581884	-0.799472	0.149183
53166		-0.595980	-0.548700	-0.586290	0.548693	0.254820	-0.796243	0.586297	-0.796238	0.149200
