// Start Time: Unknown
// Update Rate: 100.0Hz
// Filter Profile: human (46.1)
// Option Flags: AHS Disabled ICC Disabled 
// Firmware Version: 4.0.2
PacketCounter	SampleTimeFine	Mat[1][1]	Mat[2][1]	Mat[3][1]	Mat[1][2]	Mat[2][2]	Mat[3][2]	Mat[1][3]	Mat[2][3]	Mat[3][3]
03740		-0.064612	0.107674	-0.992084	-0.967015	-0.252218	0.035605	-0.246388	0.961661	0.120419
03741		-0.064594	0.107586	-0.992095	-0.967195	-0.251516	0.035697	-0.245688	0.961855	0.120303
03742		-0.064604	0.107425	-0.992112	-0.967185	-0.251547	0.035744	-0.245723	0.961865	0.120150
03743		-0.064653	0.107272	-0.992125	-0.967064	-0.252009	0.035771	-0.246187	0.961761	0.120032
03744		-0.064661	0.107175	-0.992135	-0.967049	-0.252062	0.035797	-0.246243	0.961758	0.119942
03745		-0.064613	0.107123	-0.992144	-0.967331	-0.250963	0.035900	-0.245146	0.962051	0.119838
03746		-0.064642	0.107058	-0.992149	-0.967346	-0.250895	0.035953	-0.245076	0.962076	0.119781
03747		-0.064695	0.106999	-0.992152	-0.967368	-0.250799	0.036032	-0.244976	0.962108	0.119733
03748		-0.064718	0.107001	-0.992150	-0.967420	-0.250593	0.036079	-0.244765	0.962161	0.119733
03749		-0.064721	0.107025	-0.992148	-0.967602	-0.249875	0.036166	-0.244042	0.962345	0.119730
03750		-0.064727	0.107037	-0.992146	-0.967657	-0.249658	0.036195	-0.243823	0.962400	0.119735
03751		-0.064736	0.106976	-0.992152	-0.967554	-0.250061	0.036169	-0.244230	0.962302	0.119693
03752		-0.064707	0.106926	-0.992159	-0.967581	-0.249958	0.036165	-0.244131	0.962335	0.119634
03753		-0.064682	0.106813	-0.992173	-0.967477	-0.250368	0.036118	-0.244551	0.962240	0.119533
03754		-0.064684	0.106726	-0.992182	-0.967482	-0.250345	0.036145	-0.244531	0.962256	0.119448
03755		-0.064664	0.106590	-0.992198	-0.967485	-0.250329	0.036161	-0.244522	0.962275	0.119312
03756		-0.064692	0.106534	-0.992202	-0.967467	-0.250394	0.036194	-0.244586	0.962265	0.119267
03757		-0.064736	0.106455	-0.992208	-0.967589	-0.249905	0.036317	-0.244092	0.962400	0.119182
03758		-0.064806	0.106395	-0.992210	-0.967550	-0.250045	0.036383	-0.244226	0.962371	0.119147
03759		-0.064939	0.106253	-0.992216	-0.967313	-0.250956	0.036435	-0.245131	0.962149	0.119076
03760		-0.065010	0.106217	-0.992216	-0.967293	-0.251023	0.036505	-0.245191	0.962136	0.119062
03761		-0.065054	0.106170	-0.992218	-0.967420	-0.250512	0.036623	-0.244675	0.962274	0.119008
03762		-0.065086	0.106100	-0.992223	-0.967432	-0.250459	0.036678	-0.244620	0.962296	0.118946
03763		-0.065120	0.105985	-0.992233	-0.967447	-0.250391	0.036748	-0.244551	0.962326	0.118840
03764		-0.065127	0.105906	-0.992241	-0.967513	-0.250127	0.036807	-0.244288	0.962403	0.118756
03765		-0.065197	0.105880	-0.992239	-0.967670	-0.249496	0.036959	-0.243647	0.962570	0.118723
03766		-0.065196	0.105901	-0.992237	-0.967757	-0.249154	0.036995	-0.243302	0.962656	0.118731
03767		-0.065298	0.105904	-0.992230	-0.967766	-0.249104	0.037100	-0.243240	0.962669	0.118757
03768		-0.065384	0.105887	-0.992226	-0.967789	-0.248997	0.037201	-0.243123	0.962698	0.118757
03769		-0.065476	0.105844	-0.992225	-0.967649	-0.249539	0.037235	-0.243658	0.962563	0.118758
03770		-0.065559	0.105787	-0.992225	-0.967601	-0.249711	0.037309	-0.243823	0.962525	0.118730
03771		-0.065649	0.105654	-0.992234	-0.967586	-0.249754	0.037424	-0.243860	0.962528	0.118625
03772		-0.065709	0.105527	-0.992243	-0.967561	-0.249840	0.037504	-0.243944	0.962520	0.118520
03773		-0.065783	0.105464	-0.992245	-0.967572	-0.249780	0.037599	-0.243878	0.962542	0.118475
03774		-0.065849	0.105348	-0.992253	-0.967583	-0.249723	0.037698	-0.243817	0.962570	0.118377
03775		-0.065954	0.105251	-0.992256	-0.967458	-0.250197	0.037766	-0.244284	0.962457	0.118327
03776		-0.066044	0.105221	-0.992253	-0.967487	-0.250069	0.037878	-0.244146	0.962494	0.118316
03777		-0.066130	0.105152	-0.992255	-0.967525	-0.249903	0.037999	-0.243972	0.962544	0.118263
03778		-0.066220	0.105121	-0.992252	-0.967566	-0.249726	0.038116	-0.243785	0.962594	0.118249
03779		-0.066359	0.105023	-0.992253	-0.967463	-0.250109	0.038229	-0.244157	0.962505	0.118203
03780		-0.066413	0.105019	-0.992250	-0.967489	-0.249995	0.038296	-0.244036	0.962535	0.118208
03781		-0.066497	0.105058	-0.992240	-0.967704	-0.249137	0.038474	-0.243162	0.962753	0.118232
03782		-0.066572	0.105099	-0.992231	-0.967690	-0.249182	0.038531	-0.243196	0.962737	0.118292
03783		-0.066681	0.105087	-0.992225	-0.967632	-0.249392	0.038615	-0.243395	0.962684	0.118316
03784		-0.066757	0.105097	-0.992219	-0.967609	-0.249475	0.038677	-0.243469	0.962661	0.118347
03785		-0.066824	0.105097	-0.992214	-0.967614	-0.249443	0.038746	-0.243429	0.962670	0.118362
03786		-0.066907	0.105096	-0.992209	-0.967583	-0.249553	0.038813	-0.243530	0.962641	0.118386
03787		-0.066971	0.105120	-0.992202	-0.967713	-0.249029	0.038935	-0.242994	0.962774	0.118404
03788		-0.067025	0.105071	-0.992204	-0.967665	-0.249208	0.038977	-0.243170	0.962733	0.118376
03789		-0.067097	0.105021	-0.992204	-0.967713	-0.249006	0.039084	-0.242960	0.962791	0.118338
03790		-0.067220	0.105024	-0.992195	-0.967628	-0.249323	0.039164	-0.243264	0.962709	0.118384
03791		-0.067284	0.105049	-0.992188	-0.967711	-0.248985	0.039262	-0.242916	0.962793	0.118410
03792		-0.067378	0.105027	-0.992184	-0.967640	-0.249250	0.039327	-0.243171	0.962727	0.118422
03793		-0.067441	0.105031	-0.992180	-0.967683	-0.249071	0.039409	-0.242984	0.962773	0.118434
03794		-0.067483	0.105061	-0.992173	-0.967654	-0.249182	0.039430	-0.243089	0.962741	0.118479
03795		-0.067512	0.105065	-0.992171	-0.967607	-0.249361	0.039435	-0.243265	0.962694	0.118496
03796		-0.067528	0.105144	-0.992162	-0.967636	-0.249248	0.039445	-0.243147	0.962715	0.118573
03797		-0.067518	0.105256	-0.992150	-0.967755	-0.248782	0.039465	-0.242676	0.962823	0.118659
03798		-0.067521	0.105332	-0.992142	-0.967804	-0.248589	0.039473	-0.242478	0.962865	0.118725
03799		-0.067503	0.105437	-0.992132	-0.967924	-0.248120	0.039487	-0.242005	0.962974	0.118804
03800		-0.067478	0.105523	-0.992125	-0.967948	-0.248032	0.039453	-0.241915	0.962988	0.118877
03801		-0.067438	0.105609	-0.992118	-0.968097	-0.247449	0.039465	-0.241331	0.963128	0.118927
03802		-0.067431	0.105686	-0.992111	-0.968105	-0.247420	0.039443	-0.241300	0.963127	0.118999
03803		-0.067425	0.105728	-0.992107	-0.968114	-0.247388	0.039430	-0.241267	0.963131	0.119036
03804		-0.067381	0.105773	-0.992105	-0.968117	-0.247386	0.039377	-0.241268	0.963126	0.119070
03805		-0.067352	0.105793	-0.992105	-0.968217	-0.246992	0.039392	-0.240874	0.963225	0.119065
03806		-0.067271	0.105830	-0.992106	-0.968244	-0.246895	0.039316	-0.240785	0.963246	0.119078
03807		-0.067195	0.105875	-0.992107	-0.968407	-0.246255	0.039310	-0.240150	0.963405	0.119077
03808		-0.067151	0.105919	-0.992105	-0.968422	-0.246204	0.039263	-0.240102	0.963413	0.119107
03809		-0.067100	0.105941	-0.992106	-0.968459	-0.246065	0.039224	-0.239967	0.963446	0.119111
03810		-0.067058	0.105980	-0.992105	-0.968471	-0.246028	0.039179	-0.239933	0.963451	0.119137
03811		-0.067026	0.106012	-0.992103	-0.968506	-0.245892	0.039157	-0.239800	0.963482	0.119154
03812		-0.066950	0.106012	-0.992108	-0.968520	-0.245847	0.039088	-0.239763	0.963494	0.119134
03813		-0.066910	0.106026	-0.992110	-0.968513	-0.245884	0.039041	-0.239805	0.963483	0.119139
03814		-0.066817	0.106036	-0.992115	-0.968530	-0.245828	0.038955	-0.239759	0.963496	0.119124
03815		-0.066739	0.106054	-0.992118	-0.968626	-0.245457	0.038920	-0.239395	0.963589	0.119108
03816		-0.066615	0.106069	-0.992125	-0.968680	-0.245261	0.038820	-0.239212	0.963637	0.119085
03817		-0.066527	0.106049	-0.992133	-0.968662	-0.245344	0.038728	-0.239307	0.963618	0.119048
03818		-0.066428	0.106093	-0.992135	-0.968730	-0.245089	0.038652	-0.239061	0.963678	0.119056
03819		-0.066317	0.106086	-0.992143	-0.968804	-0.244806	0.038581	-0.238790	0.963751	0.119012
03820		-0.066176	0.106111	-0.992150	-0.968861	-0.244599	0.038463	-0.238598	0.963801	0.118993
03821		-0.066111	0.106108	-0.992154	-0.968913	-0.244402	0.038425	-0.238407	0.963851	0.118967
03822		-0.066028	0.106093	-0.992162	-0.968940	-0.244303	0.038359	-0.238319	0.963878	0.118929
03823		-0.066014	0.105999	-0.992173	-0.968847	-0.244677	0.038322	-0.238700	0.963793	0.118849
03824		-0.065954	0.105939	-0.992183	-0.968845	-0.244691	0.038276	-0.238723	0.963796	0.118777
03825		-0.065874	0.105912	-0.992191	-0.968991	-0.244114	0.038275	-0.238154	0.963945	0.118708
03826		-0.065826	0.105879	-0.992198	-0.968999	-0.244087	0.038240	-0.238133	0.963956	0.118664
03827		-0.065830	0.105788	-0.992207	-0.968803	-0.244874	0.038169	-0.238928	0.963766	0.118608
03828		-0.065788	0.105766	-0.992212	-0.968847	-0.244703	0.038155	-0.238762	0.963812	0.118569
03829		-0.065748	0.105784	-0.992213	-0.968920	-0.244417	0.038146	-0.238478	0.963883	0.118566
03830		-0.065739	0.105832	-0.992209	-0.968958	-0.244266	0.038144	-0.238326	0.963916	0.118605
03831		-0.065768	0.105798	-0.992210	-0.968858	-0.244665	0.038132	-0.238725	0.963818	0.118594
03832		-0.065757	0.105795	-0.992211	-0.968883	-0.244562	0.038134	-0.238623	0.963845	0.118585
03833		-0.065784	0.105761	-0.992213	-0.968842	-0.244722	0.038150	-0.238782	0.963808	0.118565
03834		-0.065785	0.105760	-0.992213	-0.968872	-0.244602	0.038165	-0.238660	0.963839	0.118560
03835		-0.065755	0.105772	-0.992214	-0.969000	-0.244090	0.038196	-0.238149	0.963967	0.118543
03836		-0.065758	0.105822	-0.992208	-0.969042	-0.243922	0.038208	-0.237978	0.964004	0.118586
03837		-0.065751	0.105848	-0.992206	-0.969170	-0.243406	0.038258	-0.237460	0.964132	0.118589
03838		-0.065699	0.105875	-0.992207	-0.969221	-0.243205	0.038226	-0.237263	0.964179	0.118595
03839		-0.065615	0.105878	-0.992212	-0.969396	-0.242509	0.038228	-0.236573	0.964354	0.118550
03840		-0.065577	0.105877	-0.992215	-0.969429	-0.242378	0.038208	-0.236445	0.964388	0.118534
03841		-0.065561	0.105844	-0.992219	-0.969402	-0.242489	0.038186	-0.236561	0.964363	0.118503
03842		-0.065515	0.105836	-0.992223	-0.969417	-0.242438	0.038149	-0.236515	0.964377	0.118483
03843		-0.065501	0.105832	-0.992224	-0.969411	-0.242461	0.038134	-0.236540	0.964371	0.118476
03844		-0.065447	0.105901	-0.992221	-0.969416	-0.242454	0.038065	-0.236536	0.964366	0.118529
03845		-0.065472	0.105921	-0.992217	-0.969282	-0.242994	0.038018	-0.237076	0.964227	0.118576
03846		-0.065454	0.105996	-0.992210	-0.969286	-0.242984	0.037984	-0.237065	0.964222	0.118644
03847		-0.065453	0.106009	-0.992209	-0.969240	-0.243173	0.037957	-0.237255	0.964173	0.118664
03848		-0.065413	0.106015	-0.992211	-0.969253	-0.243126	0.037922	-0.237212	0.964184	0.118659
03849		-0.065362	0.106006	-0.992215	-0.969282	-0.243015	0.037888	-0.237107	0.964213	0.118633
03850		-0.065291	0.105969	-0.992224	-0.969283	-0.243023	0.037827	-0.237124	0.964215	0.118581
03851		-0.065232	0.105854	-0.992240	-0.969226	-0.243259	0.037767	-0.237374	0.964168	0.118465
03852		-0.065213	0.105789	-0.992248	-0.969216	-0.243299	0.037760	-0.237418	0.964165	0.118399
03853		-0.065225	0.105710	-0.992256	-0.969065	-0.243908	0.037715	-0.238033	0.964020	0.118349
03854		-0.065156	0.105725	-0.992259	-0.969077	-0.243868	0.037649	-0.238000	0.964028	0.118345
03855		-0.065134	0.105722	-0.992260	-0.969158	-0.243545	0.037668	-0.237678	0.964110	0.118324
03856		-0.065080	0.105756	-0.992260	-0.969189	-0.243429	0.037622	-0.237566	0.964136	0.118340
03857		-0.065021	0.105809	-0.992258	-0.969322	-0.242897	0.037616	-0.237037	0.964264	0.118356
03858		-0.064974	0.105825	-0.992260	-0.969367	-0.242725	0.037589	-0.236868	0.964306	0.118354
03859		-0.064949	0.105823	-0.992262	-0.969444	-0.242414	0.037602	-0.236559	0.964384	0.118334
03860		-0.064908	0.105803	-0.992266	-0.969463	-0.242342	0.037576	-0.236492	0.964404	0.118302
03861		-0.064937	0.105722	-0.992273	-0.969301	-0.242993	0.037544	-0.237147	0.964249	0.118256
03862		-0.064954	0.105663	-0.992278	-0.969291	-0.243030	0.037570	-0.237184	0.964247	0.118204
03863		-0.064961	0.105579	-0.992287	-0.969272	-0.243103	0.037588	-0.237260	0.964237	0.118127
03864		-0.064976	0.105526	-0.992291	-0.969253	-0.243176	0.037606	-0.237333	0.964225	0.118082
03865		-0.065006	0.105443	-0.992298	-0.969303	-0.242964	0.037682	-0.237119	0.964287	0.118001
03866		-0.065061	0.105417	-0.992298	-0.969286	-0.243023	0.037734	-0.237174	0.964275	0.117990
03867		-0.065088	0.105402	-0.992297	-0.969424	-0.242457	0.037834	-0.236601	0.964420	0.117960
03868		-0.065110	0.105421	-0.992294	-0.969408	-0.242520	0.037843	-0.236662	0.964402	0.117986
03869		-0.065123	0.105381	-0.992297	-0.969449	-0.242349	0.037886	-0.236490	0.964449	0.117944
03870		-0.065152	0.105300	-0.992304	-0.969424	-0.242443	0.037922	-0.236583	0.964434	0.117875
03871		-0.065168	0.105204	-0.992313	-0.969384	-0.242601	0.037942	-0.236744	0.964405	0.117793
03872		-0.065183	0.105150	-0.992318	-0.969377	-0.242624	0.037966	-0.236768	0.964405	0.117745
03873		-0.065229	0.105128	-0.992317	-0.969497	-0.242126	0.038078	-0.236263	0.964532	0.117715
03874		-0.065299	0.105121	-0.992313	-0.969511	-0.242061	0.038156	-0.236189	0.964550	0.117722
03875		-0.065381	0.105113	-0.992309	-0.969661	-0.241431	0.038315	-0.235547	0.964708	0.117709
03876		-0.065463	0.105167	-0.992298	-0.969658	-0.241434	0.038382	-0.235537	0.964702	0.117781
03877		-0.065594	0.105151	-0.992291	-0.969596	-0.241664	0.038486	-0.235754	0.964646	0.117805
03878		-0.065671	0.105193	-0.992281	-0.969558	-0.241810	0.038532	-0.235890	0.964605	0.117871
03879		-0.065698	0.105135	-0.992285	-0.969490	-0.242082	0.038539	-0.236162	0.964543	0.117831
03880		-0.065728	0.105114	-0.992286	-0.969421	-0.242359	0.038540	-0.236438	0.964476	0.117830
03881		-0.065695	0.105120	-0.992287	-0.969491	-0.242077	0.038541	-0.236158	0.964546	0.117816
03882		-0.065687	0.105123	-0.992287	-0.969445	-0.242269	0.038509	-0.236353	0.964497	0.117825
03883		-0.065709	0.105097	-0.992289	-0.969426	-0.242342	0.038527	-0.236424	0.964482	0.117808
03884		-0.065696	0.105137	-0.992285	-0.969392	-0.242483	0.038488	-0.236565	0.964442	0.117849
03885		-0.065704	0.105214	-0.992277	-0.969443	-0.242276	0.038503	-0.236354	0.964486	0.117917
03886		-0.065703	0.105253	-0.992273	-0.969437	-0.242301	0.038489	-0.236378	0.964475	0.117956
03887		-0.065695	0.105348	-0.992263	-0.969579	-0.241726	0.038529	-0.235797	0.964609	0.118024
03888		-0.065674	0.105428	-0.992256	-0.969587	-0.241703	0.038493	-0.235773	0.964606	0.118096
03889		-0.065607	0.105547	-0.992248	-0.969742	-0.241079	0.038475	-0.235149	0.964749	0.118170
03890		-0.065540	0.105621	-0.992244	-0.969723	-0.241174	0.038380	-0.235250	0.964717	0.118229
03891		-0.065487	0.105686	-0.992241	-0.969806	-0.240843	0.038354	-0.234920	0.964793	0.118267
03892		-0.065411	0.105754	-0.992239	-0.969767	-0.241018	0.038242	-0.235103	0.964742	0.118322
03893		-0.065388	0.105772	-0.992238	-0.969664	-0.241443	0.038163	-0.235532	0.964634	0.118350
03894		-0.065352	0.105832	-0.992234	-0.969641	-0.241545	0.038101	-0.235637	0.964601	0.118405
03895		-0.065354	0.105841	-0.992233	-0.969615	-0.241652	0.038087	-0.235744	0.964573	0.118418
03896		-0.065355	0.105875	-0.992229	-0.969606	-0.241691	0.038075	-0.235782	0.964560	0.118453
03897		-0.065377	0.105950	-0.992220	-0.969581	-0.241794	0.038066	-0.235880	0.964526	0.118535
03898		-0.065387	0.106015	-0.992212	-0.969609	-0.241680	0.038075	-0.235762	0.964547	0.118596
03899		-0.065339	0.106135	-0.992203	-0.969778	-0.240998	0.038083	-0.235076	0.964705	0.118674
03900		-0.065314	0.106194	-0.992198	-0.969807	-0.240887	0.038058	-0.234966	0.964726	0.118721
03901		-0.065226	0.106320	-0.992190	-0.969965	-0.240257	0.038020	-0.234338	0.964869	0.118797
03902		-0.065171	0.106360	-0.992190	-0.969987	-0.240176	0.037966	-0.234262	0.964885	0.118821
03903		-0.065098	0.106409	-0.992189	-0.969953	-0.240327	0.037865	-0.234421	0.964842	0.118857
03904		-0.065059	0.106473	-0.992185	-0.969958	-0.240318	0.037813	-0.234413	0.964837	0.118909
03905		-0.064976	0.106539	-0.992183	-0.970057	-0.239924	0.037764	-0.234026	0.964928	0.118938
03906		-0.064926	0.106544	-0.992186	-0.970054	-0.239945	0.037711	-0.234053	0.964922	0.118932
03907		-0.064910	0.106563	-0.992185	-0.970082	-0.239832	0.037706	-0.233940	0.964948	0.118942
03908		-0.064908	0.106576	-0.992184	-0.970082	-0.239833	0.037700	-0.233940	0.964946	0.118954
03909		-0.064895	0.106548	-0.992188	-0.970104	-0.239744	0.037705	-0.233854	0.964972	0.118921
03910		-0.064904	0.106564	-0.992185	-0.970095	-0.239777	0.037706	-0.233885	0.964962	0.118939
03911		-0.064906	0.106514	-0.992190	-0.970154	-0.239533	0.037750	-0.233641	0.965028	0.118882
03912		-0.064918	0.106466	-0.992195	-0.970151	-0.239543	0.037772	-0.233652	0.965031	0.118839
03913		-0.064950	0.106396	-0.992200	-0.970159	-0.239502	0.037825	-0.233609	0.965049	0.118777
03914		-0.064985	0.106325	-0.992206	-0.970169	-0.239453	0.037881	-0.233559	0.965069	0.118714
03915		-0.065069	0.106266	-0.992206	-0.970100	-0.239719	0.037945	-0.233819	0.965009	0.118686
03916		-0.065116	0.106222	-0.992208	-0.970120	-0.239629	0.038013	-0.233724	0.965036	0.118651
03917		-0.065126	0.106185	-0.992211	-0.970204	-0.239279	0.038074	-0.233372	0.965127	0.118605
03918		-0.065161	0.106139	-0.992214	-0.970232	-0.239157	0.038134	-0.233247	0.965163	0.118563
03919		-0.065166	0.106169	-0.992210	-0.970460	-0.238212	0.038248	-0.232295	0.965393	0.118556
03920		-0.065219	0.106114	-0.992213	-0.970472	-0.238149	0.038321	-0.232228	0.965414	0.118512
03921		-0.065230	0.106050	-0.992219	-0.970545	-0.237841	0.038384	-0.231920	0.965497	0.118441
03922		-0.065265	0.105955	-0.992227	-0.970537	-0.237865	0.038437	-0.231944	0.965502	0.118357
03923		-0.065298	0.105877	-0.992233	-0.970586	-0.237655	0.038514	-0.231732	0.965562	0.118281
03924		-0.065313	0.105740	-0.992247	-0.970581	-0.237668	0.038559	-0.231748	0.965574	0.118152
03925		-0.065265	0.105669	-0.992257	-0.970843	-0.236576	0.038662	-0.230659	0.965850	0.118028
03926		-0.065299	0.105573	-0.992265	-0.970847	-0.236551	0.038721	-0.230634	0.965866	0.117941
03927		-0.065301	0.105491	-0.992274	-0.970867	-0.236463	0.038754	-0.230548	0.965897	0.117859
03928		-0.065307	0.105426	-0.992280	-0.970888	-0.236372	0.038785	-0.230458	0.965926	0.117794
03929		-0.065261	0.105345	-0.992292	-0.970956	-0.236094	0.038793	-0.230187	0.966003	0.117693
03930		-0.065225	0.105285	-0.992301	-0.970984	-0.235977	0.038786	-0.230077	0.966038	0.117622
03931		-0.065145	0.105176	-0.992318	-0.971014	-0.235863	0.038747	-0.229975	0.966078	0.117493
03932		-0.065079	0.105100	-0.992330	-0.971024	-0.235826	0.038705	-0.229949	0.966095	0.117402
03933		-0.065028	0.104933	-0.992351	-0.970939	-0.236185	0.038651	-0.230322	0.966026	0.117242
03934		-0.064887	0.104884	-0.992365	-0.970929	-0.236249	0.038516	-0.230406	0.966015	0.117164
03935		-0.064781	0.104791	-0.992382	-0.970832	-0.236669	0.038383	-0.230844	0.965923	0.117066
03936		-0.064586	0.104792	-0.992395	-0.970884	-0.236481	0.038215	-0.230678	0.965969	0.117014
03937		-0.064430	0.104786	-0.992405	-0.970895	-0.236461	0.038066	-0.230677	0.965974	0.116972
03938		-0.064225	0.104810	-0.992416	-0.970949	-0.236267	0.037884	-0.230505	0.966019	0.116939
03939		-0.063981	0.104856	-0.992427	-0.971127	-0.235561	0.037720	-0.229822	0.966186	0.116900
03940		-0.063716	0.104866	-0.992443	-0.971210	-0.235257	0.037494	-0.229547	0.966259	0.116836
03941		-0.063423	0.104916	-0.992457	-0.971279	-0.235013	0.037225	-0.229334	0.966313	0.116808
03942		-0.063102	0.105064	-0.992461	-0.971437	-0.234404	0.036950	-0.228755	0.966445	0.116854
03943		-0.062775	0.105283	-0.992459	-0.971481	-0.234278	0.036595	-0.228659	0.966452	0.116987
03944		-0.062333	0.105544	-0.992459	-0.971707	-0.233400	0.036208	-0.227818	0.966636	0.117107
03945		-0.061756	0.105780	-0.992470	-0.971875	-0.232781	0.035664	-0.227255	0.966759	0.117180
03946		-0.061002	0.106228	-0.992469	-0.972182	-0.231601	0.034966	-0.226142	0.966994	0.117401
03947		-0.060115	0.106905	-0.992450	-0.972615	-0.229899	0.034149	-0.224513	0.967325	0.117798
03948		-0.059096	0.107803	-0.992414	-0.973146	-0.227782	0.033205	-0.222475	0.967726	0.118369
03949		-0.057865	0.108869	-0.992370	-0.973806	-0.225103	0.032087	-0.219893	0.968233	0.119043
03950		-0.056258	0.110149	-0.992322	-0.974405	-0.222719	0.030520	-0.217648	0.968640	0.119859
03951		-0.054224	0.111680	-0.992264	-0.975092	-0.219957	0.028529	-0.215069	0.969096	0.120825
03952		-0.051713	0.113528	-0.992188	-0.975817	-0.217032	0.026026	-0.212382	0.969540	0.122005
03953		-0.048658	0.115530	-0.992112	-0.976521	-0.214197	0.022951	-0.209856	0.969934	0.123240
03954		-0.044980	0.117973	-0.991998	-0.977336	-0.210815	0.019244	-0.206858	0.970381	0.124782
03955		-0.040597	0.120864	-0.991839	-0.978214	-0.207073	0.014805	-0.203593	0.970831	0.126638
03956		-0.035326	0.124174	-0.991631	-0.979230	-0.202528	0.009523	-0.199650	0.971372	0.128749
03957		-0.029028	0.128182	-0.991326	-0.980423	-0.196875	0.003252	-0.194750	0.972013	0.131388
03958		-0.021783	0.133189	-0.990851	-0.981743	-0.190170	-0.003980	-0.188960	0.972675	0.134900
03959		-0.013940	0.139742	-0.990090	-0.982978	-0.183331	-0.012036	-0.183196	0.973068	0.139919
03960		-0.005670	0.147703	-0.989015	-0.984231	-0.175686	-0.020595	-0.176798	0.973303	0.146371
03961		0.003233	0.156459	-0.987679	-0.985433	-0.167444	-0.029751	-0.170036	0.973387	0.153639
03962		0.012677	0.166327	-0.985989	-0.986497	-0.158944	-0.039496	-0.163287	0.973176	0.162066
03963		0.022223	0.177471	-0.983875	-0.987584	-0.149184	-0.049216	-0.155513	0.972753	0.171952
03964		0.031094	0.190164	-0.981260	-0.988550	-0.139175	-0.058296	-0.147653	0.971837	0.183659
03965		0.038913	0.204237	-0.978148	-0.989360	-0.129460	-0.066390	-0.140190	0.970323	0.197027
03966		0.046370	0.218452	-0.974745	-0.990226	-0.118439	-0.073650	-0.131536	0.968634	0.210825
03967		0.054200	0.232157	-0.971167	-0.990653	-0.109425	-0.081445	-0.125178	0.966504	0.224057
03968		0.062345	0.245554	-0.967376	-0.990509	-0.103740	-0.090169	-0.122497	0.963816	0.236756
03969		0.070465	0.258882	-0.963335	-0.990224	-0.098387	-0.098872	-0.120376	0.960885	0.249418
03970		0.078119	0.272124	-0.959086	-0.989552	-0.095772	-0.107774	-0.121181	0.957484	0.261799
03971		0.084795	0.284479	-0.954925	-0.988533	-0.096164	-0.116427	-0.124951	0.953847	0.273063
03972		0.089828	0.296297	-0.950862	-0.987510	-0.097587	-0.123699	-0.129444	0.950097	0.283830
03973		0.093384	0.308000	-0.946792	-0.986639	-0.098886	-0.129483	-0.133505	0.946233	0.294650
03974		0.095101	0.319623	-0.942760	-0.985534	-0.103228	-0.134413	-0.140281	0.941905	0.305182
03975		0.094916	0.331589	-0.938637	-0.984367	-0.109267	-0.138140	-0.148368	0.937075	0.316034
03976		0.091953	0.344180	-0.934390	-0.982924	-0.118826	-0.140499	-0.159387	0.931354	0.327376
03977		0.087129	0.357029	-0.930021	-0.981329	-0.129928	-0.141814	-0.171467	0.925013	0.339043
03978		0.078935	0.370154	-0.925611	-0.979554	-0.143558	-0.140944	-0.185050	0.917811	0.351254
03979		0.067738	0.382821	-0.921336	-0.978541	-0.154624	-0.136192	-0.194597	0.910790	0.364133
03980		0.052269	0.394171	-0.917549	-0.977445	-0.168069	-0.127883	-0.204619	0.903539	0.376496
03981		0.033158	0.404633	-0.913878	-0.976541	-0.181536	-0.115809	-0.212762	0.896280	0.389121
03982		0.009373	0.413347	-0.910525	-0.974693	-0.199610	-0.100650	-0.223353	0.888426	0.401016
03983		-0.017521	0.420275	-0.907228	-0.972181	-0.219133	-0.082738	-0.233576	0.880540	0.412422
03984		-0.048387	0.425696	-0.903571	-0.968161	-0.242434	-0.062371	-0.245608	0.871784	0.423873
03985		-0.081733	0.429069	-0.899566	-0.963288	-0.265599	-0.039161	-0.255726	0.863340	0.435026
03986		-0.119957	0.430768	-0.894455	-0.956153	-0.292594	-0.012682	-0.267175	0.853714	0.446979
03987		-0.161477	0.431870	-0.887363	-0.947789	-0.318416	0.017503	-0.274992	0.843860	0.460739
03988		-0.208136	0.431884	-0.877585	-0.936163	-0.347873	0.050831	-0.283335	0.832142	0.476719
03989		-0.257802	0.432134	-0.864175	-0.922744	-0.375328	0.087590	-0.286498	0.819993	0.495509
03990		-0.312637	0.429833	-0.847055	-0.905013	-0.405603	0.128208	-0.288460	0.806678	0.515811
03991		-0.370782	0.426268	-0.825116	-0.884835	-0.432019	0.174430	-0.282112	0.794767	0.537362
03992		-0.432642	0.416608	-0.799537	-0.858607	-0.460882	0.224458	-0.274981	0.783598	0.557099
03993		-0.494455	0.401065	-0.771143	-0.828006	-0.487232	0.277511	-0.264425	0.775727	0.572998
03994		-0.555125	0.374625	-0.742625	-0.791061	-0.513676	0.332203	-0.257017	0.771876	0.581506
03995		-0.612580	0.341932	-0.712621	-0.748608	-0.540301	0.384266	-0.253637	0.768867	0.586951
03996		-0.668409	0.306066	-0.677903	-0.697655	-0.573992	0.428733	-0.257890	0.759511	0.597190
03997		-0.723705	0.269607	-0.635267	-0.636881	-0.615433	0.464354	-0.265771	0.740645	0.617099
03998		-0.774923	0.231337	-0.588198	-0.570883	-0.655581	0.494273	-0.271268	0.718816	0.640091
03999		-0.822431	0.190167	-0.536138	-0.500158	-0.690732	0.522237	-0.271015	0.697657	0.663193
04000		-0.862078	0.145283	-0.485503	-0.430739	-0.714793	0.550940	-0.266992	0.684079	0.678787
04001		-0.894282	0.098950	-0.436427	-0.360052	-0.738243	0.570403	-0.265748	0.667238	0.695824
04002		-0.919865	0.051470	-0.388843	-0.290018	-0.756695	0.585920	-0.264078	0.651739	0.710985
04003		-0.939849	-0.008918	-0.341475	-0.211110	-0.770730	0.601172	-0.268546	0.637100	0.722487
04004		-0.951569	-0.075431	-0.298038	-0.128744	-0.782564	0.609113	-0.279180	0.617984	0.734952
04005		-0.952719	-0.146240	-0.266347	-0.047477	-0.794152	0.605862	-0.300121	0.589861	0.749660
04006		-0.946080	-0.207481	-0.248765	0.016758	-0.798274	0.602062	-0.323499	0.565430	0.758708
04007		-0.936645	-0.254288	-0.240903	0.054310	-0.784851	0.617300	-0.346045	0.565107	0.748937
04008		-0.923577	-0.289755	-0.251094	0.064923	-0.763621	0.642392	-0.377877	0.576997	0.724074
04009		-0.916892	-0.297218	-0.266403	0.040053	-0.732596	0.679484	-0.397121	0.612343	0.683616
04010		-0.917879	-0.281738	-0.279504	-0.002945	-0.699431	0.714694	-0.396850	0.656825	0.641164
04011		-0.923410	-0.255832	-0.286119	-0.050091	-0.658756	0.750688	-0.380532	0.707525	0.595487
04012		-0.929559	-0.224120	-0.292728	-0.092428	-0.626976	0.773536	-0.356899	0.746104	0.562096
04013		-0.933152	-0.188904	-0.305848	-0.136684	-0.600452	0.787893	-0.332483	0.777028	0.534492
04014		-0.932623	-0.152023	-0.327265	-0.179364	-0.591657	0.785984	-0.313117	0.791727	0.524526
04015		-0.928743	-0.113035	-0.353071	-0.220309	-0.597689	0.770864	-0.298162	0.793720	0.530197
04016		-0.922859	-0.068327	-0.379027	-0.259760	-0.616172	0.743543	-0.284350	0.784642	0.550891
04017		-0.912065	-0.021568	-0.409477	-0.301224	-0.642305	0.704776	-0.278210	0.766146	0.579327
04018		-0.897673	0.022905	-0.440068	-0.341214	-0.668070	0.661253	-0.278850	0.743745	0.607524
04019		-0.881783	0.068246	-0.466692	-0.380060	-0.688765	0.617379	-0.279308	0.721765	0.633279
04020		-0.864532	0.113611	-0.489569	-0.418454	-0.702238	0.575985	-0.278355	0.702819	0.654648
04021		-0.845910	0.159516	-0.508912	-0.457245	-0.708093	0.538081	-0.274524	0.687865	0.671921
04022		-0.827284	0.207229	-0.522165	-0.495751	-0.706514	0.505044	-0.264257	0.676679	0.687222
04023		-0.808872	0.255547	-0.529548	-0.534813	-0.694009	0.482003	-0.244337	0.673088	0.698034
04024		-0.791530	0.300150	-0.532345	-0.569968	-0.676849	0.465846	-0.220494	0.672150	0.706822
04025		-0.776258	0.336774	-0.532923	-0.597307	-0.663261	0.450899	-0.201616	0.668333	0.716019
04026		-0.766280	0.364248	-0.529281	-0.614748	-0.655172	0.439129	-0.186818	0.661870	0.725966
04027		-0.763979	0.380326	-0.521237	-0.621133	-0.652242	0.434483	-0.174728	0.655693	0.734532
04028		-0.769596	0.384873	-0.509505	-0.616513	-0.655608	0.435993	-0.166234	0.649655	0.741832
04029		-0.782629	0.378383	-0.494285	-0.601105	-0.665716	0.442148	-0.161752	0.643155	0.748457
04030		-0.801531	0.363118	-0.475072	-0.576159	-0.681550	0.451143	-0.159967	0.635322	0.755497
04031		-0.824646	0.340237	-0.451882	-0.542420	-0.702239	0.461131	-0.160436	0.625380	0.763650
04032		-0.850470	0.311314	-0.424010	-0.501313	-0.723839	0.474071	-0.159330	0.615744	0.771669
04033		-0.878565	0.275449	-0.390194	-0.451279	-0.746297	0.489273	-0.156431	0.605945	0.779975
04034		-0.907331	0.232353	-0.350375	-0.392361	-0.767338	0.507193	-0.151008	0.597666	0.787396
04035		-0.934571	0.180712	-0.306464	-0.323837	-0.788801	0.522420	-0.147332	0.587483	0.795712
04036		-0.957100	0.121885	-0.262874	-0.248558	-0.811630	0.528654	-0.148921	0.571314	0.807107
04037		-0.972308	0.057757	-0.226456	-0.172552	-0.830935	0.528936	-0.157620	0.553364	0.817890
04038		-0.979294	-0.021209	-0.201328	-0.086278	-0.855931	0.509842	-0.183136	0.516655	0.836378
04039		-0.975929	-0.117118	-0.183975	0.016199	-0.880170	0.474382	-0.217488	0.459982	0.860880
04040		-0.964260	-0.205043	-0.167808	0.104676	-0.876626	0.469648	-0.243403	0.435297	0.866759
04041		-0.947413	-0.280975	-0.153172	0.174624	-0.855013	0.488323	-0.268170	0.435896	0.859116
04042		-0.929696	-0.332317	-0.158842	0.209005	-0.831070	0.515402	-0.303285	0.445968	0.842099
04043		-0.919344	-0.350772	-0.178229	0.200114	-0.806881	0.555785	-0.338763	0.475291	0.811996
04044		-0.915713	-0.348250	-0.200480	0.157543	-0.770112	0.618149	-0.369663	0.534463	0.760065
04045		-0.919073	-0.334742	-0.207972	0.109825	-0.724383	0.680594	-0.378475	0.602675	0.702524
04046		-0.923248	-0.315660	-0.219025	0.066748	-0.693184	0.717663	-0.378362	0.647962	0.661051
04047		-0.925561	-0.292449	-0.240437	0.017286	-0.667053	0.744810	-0.378203	0.685211	0.622453
04048		-0.923764	-0.267014	-0.274526	-0.033857	-0.657097	0.753045	-0.381464	0.704930	0.597962
04049		-0.915846	-0.244251	-0.318697	-0.081063	-0.664891	0.742529	-0.393262	0.705876	0.589138
04050		-0.908326	-0.209138	-0.362223	-0.132173	-0.678119	0.722970	-0.396831	0.704568	0.588310
04051		-0.891231	-0.173900	-0.418886	-0.188126	-0.698638	0.690300	-0.412693	0.694020	0.589932
04052		-0.865965	-0.143775	-0.478992	-0.242366	-0.717139	0.653430	-0.437451	0.681939	0.586171
04053		-0.837453	-0.112855	-0.534730	-0.296171	-0.728588	0.617610	-0.459298	0.675591	0.576734
04054		-0.806214	-0.081109	-0.586038	-0.352460	-0.729739	0.585877	-0.475175	0.678897	0.559739
04055		-0.772287	-0.052029	-0.633140	-0.409208	-0.721593	0.558438	-0.485924	0.690360	0.535986
04056		-0.735528	-0.027865	-0.676921	-0.465553	-0.705095	0.534885	-0.492198	0.708565	0.505644
04057		-0.696828	-0.005754	-0.717215	-0.521987	-0.681727	0.512618	-0.491894	0.731584	0.472043
04058		-0.655513	0.013632	-0.755060	-0.577727	-0.652959	0.489771	-0.486347	0.757270	0.435899
04059		-0.612123	0.030744	-0.790165	-0.630942	-0.621336	0.464601	-0.476674	0.782941	0.399732
04060		-0.565893	0.044173	-0.823295	-0.682177	-0.585886	0.437461	-0.463033	0.809189	0.361682
04061		-0.518406	0.055087	-0.853359	-0.732363	-0.543791	0.409799	-0.441474	0.837411	0.322248
04062		-0.473213	0.065085	-0.878540	-0.780006	-0.494484	0.383506	-0.409463	0.866747	0.284763
04063		-0.430943	0.074872	-0.899268	-0.824664	-0.437267	0.358785	-0.366357	0.896210	0.250181
04064		-0.390918	0.084305	-0.916556	-0.865360	-0.372925	0.334781	-0.313584	0.924023	0.218737
04065		-0.352463	0.095539	-0.930936	-0.900950	-0.303685	0.309944	-0.253099	0.947970	0.193114
04066		-0.314447	0.109620	-0.942925	-0.930045	-0.234497	0.282890	-0.190103	0.965916	0.175688
04067		-0.276106	0.125313	-0.952923	-0.952713	-0.166587	0.254139	-0.126897	0.978031	0.165383
04068		-0.238319	0.140660	-0.960947	-0.968820	-0.103475	0.225125	-0.067768	0.984636	0.160935
04069		-0.201266	0.155508	-0.967114	-0.979421	-0.047123	0.196250	-0.015054	0.986710	0.161792
04070		-0.165797	0.168214	-0.971707	-0.985744	0.000350	0.168252	0.028642	0.985750	0.165758
04071		-0.132418	0.178408	-0.975006	-0.989261	0.037606	0.141236	0.061864	0.983238	0.171512
04072		-0.100415	0.186589	-0.977293	-0.991170	0.066737	0.114582	0.086601	0.980169	0.178240
04073		-0.068699	0.194216	-0.978550	-0.991728	0.093309	0.088143	0.108427	0.976511	0.186199
04074		-0.036597	0.202411	-0.978617	-0.990927	0.119373	0.061748	0.129319	0.971998	0.196206
04075		-0.003901	0.212180	-0.977223	-0.988646	0.145975	0.035641	0.150213	0.966266	0.209202
04076		0.030223	0.223563	-0.974221	-0.984882	0.172984	0.009142	0.170568	0.959216	0.225412
04077		0.066701	0.235289	-0.969634	-0.979844	0.198842	-0.019153	0.188298	0.951368	0.243810
04078		0.106171	0.246421	-0.963330	-0.974053	0.220511	-0.050946	0.199870	0.943744	0.263439
04079		0.150143	0.256283	-0.954870	-0.967045	0.238941	-0.087927	0.205624	0.936603	0.283713
04080		0.197993	0.262892	-0.944292	-0.958010	0.255737	-0.129672	0.207401	0.930315	0.302487
04081		0.248139	0.265432	-0.931650	-0.946363	0.271867	-0.174602	0.206940	0.925005	0.318656
04082		0.298372	0.265170	-0.916875	-0.931988	0.288123	-0.219962	0.205846	0.920147	0.333103
04083		0.346600	0.264470	-0.899958	-0.914949	0.306767	-0.262225	0.206726	0.914303	0.348302
04084		0.391959	0.265026	-0.880982	-0.895776	0.328167	-0.299819	0.209650	0.906679	0.366032
04085		0.434315	0.266506	-0.860433	-0.875521	0.349440	-0.333698	0.211737	0.898257	0.385099
04086		0.473730	0.268244	-0.838824	-0.855027	0.368265	-0.365115	0.210970	0.890183	0.403814
04087		0.510166	0.268914	-0.816955	-0.834255	0.385722	-0.394002	0.209165	0.882555	0.421125
04088		0.543539	0.268107	-0.795414	-0.813381	0.402272	-0.420224	0.207308	0.875383	0.436723
04089		0.573545	0.267419	-0.774295	-0.793586	0.415784	-0.444235	0.203143	0.869258	0.450691
04090		0.600275	0.267785	-0.753632	-0.775375	0.425909	-0.466256	0.196122	0.864229	0.463297
04091		0.623377	0.269529	-0.734000	-0.759340	0.432640	-0.486030	0.186559	0.860335	0.474362
04092		0.643000	0.271673	-0.716062	-0.745677	0.435340	-0.504425	0.174692	0.858296	0.482504
04093		0.658615	0.273762	-0.700914	-0.734963	0.433849	-0.521157	0.161418	0.858387	0.486945
04094		0.670730	0.275715	-0.688551	-0.727265	0.426750	-0.537560	0.145625	0.861316	0.486752
04095		0.679148	0.277217	-0.679639	-0.722997	0.412385	-0.554268	0.126620	0.867807	0.480497
04096		0.684765	0.277450	-0.673883	-0.721271	0.390275	-0.572235	0.104233	0.877899	0.467363
04097		0.687725	0.275606	-0.671622	-0.721556	0.361383	-0.590559	0.079951	0.890755	0.447397
04098		0.688757	0.272007	-0.672032	-0.722946	0.327272	-0.608475	0.054428	0.904934	0.422057
04099		0.687566	0.267893	-0.674898	-0.725591	0.289012	-0.624491	0.027757	0.919079	0.393095
04100		0.684234	0.264818	-0.679482	-0.729263	0.247697	-0.637826	-0.000602	0.931943	0.362604
04101		0.678706	0.263399	-0.685550	-0.733756	0.203842	-0.648113	-0.030968	0.942905	0.331619
04102		0.671097	0.263190	-0.693080	-0.738724	0.158495	-0.655107	-0.062568	0.951636	0.300791
04103		0.660547	0.263453	-0.703043	-0.744712	0.111056	-0.658081	-0.095296	0.958258	0.269555
04104		0.646442	0.263238	-0.716113	-0.751745	0.059395	-0.656774	-0.130354	0.962901	0.236284
04105		0.627535	0.264583	-0.732254	-0.759392	0.000436	-0.650634	-0.171827	0.964363	0.201196
04106		0.603682	0.266816	-0.751250	-0.766358	-0.065456	-0.639070	-0.219688	0.961522	0.164963
04107		0.574951	0.268243	-0.772966	-0.771528	-0.136728	-0.621330	-0.272353	0.953599	0.128345
04108		0.541841	0.266147	-0.797229	-0.774017	-0.211679	-0.596732	-0.327576	0.940403	0.091306
04109		0.503591	0.258373	-0.824403	-0.773801	-0.289488	-0.563408	-0.384225	0.921651	0.054146
04110		0.459279	0.244713	-0.853919	-0.771192	-0.367210	-0.520018	-0.440823	0.897369	0.020069
04111		0.407774	0.225311	-0.884848	-0.765785	-0.443393	-0.465807	-0.497286	0.867547	-0.008264
04112		0.349458	0.198787	-0.915621	-0.755216	-0.518632	-0.400836	-0.554552	0.831567	-0.031113
04113		0.285425	0.162742	-0.944483	-0.739947	-0.588896	-0.325085	-0.609107	0.791654	-0.047666
04114		0.216443	0.117156	-0.969240	-0.722957	-0.647954	-0.239766	-0.656114	0.752615	-0.055546
04115		0.141668	0.061882	-0.987978	-0.704913	-0.694404	-0.144573	-0.695002	0.716920	-0.054753
04116		0.059338	-0.001361	-0.998237	-0.691088	-0.721658	-0.040097	-0.720331	0.692248	-0.043762
04117		-0.032248	-0.072929	-0.996816	-0.684729	-0.724909	0.075187	-0.728084	0.684974	-0.026560
04118		-0.131018	-0.152342	-0.979605	-0.684664	-0.700727	0.200543	-0.716986	0.696975	-0.012495
04119		-0.233796	-0.237580	-0.942812	-0.684664	-0.648269	0.333139	-0.690343	0.723397	-0.011100
04120		-0.336469	-0.321707	-0.885039	-0.680267	-0.566852	0.464668	-0.651173	0.758408	-0.028119
04121		-0.430981	-0.398490	-0.809606	-0.666957	-0.463659	0.583258	-0.607803	0.791345	-0.065947
04122		-0.501484	-0.473867	-0.723854	-0.644033	-0.354200	0.678059	-0.577699	0.806221	-0.127560
04123		-0.537788	-0.556314	-0.633482	-0.592911	-0.284618	0.753292	-0.599368	0.780709	-0.176781
04124		-0.544198	-0.631523	-0.552292	-0.531822	-0.249464	0.809280	-0.648856	0.734129	-0.200100
04125		-0.546366	-0.691654	-0.472334	-0.459714	-0.223753	0.859417	-0.700105	0.686694	-0.195712
04126		-0.547153	-0.739576	-0.391984	-0.375246	-0.201874	0.904675	-0.748207	0.642086	-0.167067
04127		-0.546252	-0.774226	-0.319659	-0.300415	-0.175151	0.937589	-0.781895	0.608191	-0.136913
04128		-0.543138	-0.799312	-0.257101	-0.238133	-0.146989	0.960045	-0.805167	0.582661	-0.110507
04129		-0.536869	-0.816583	-0.212046	-0.201656	-0.119848	0.972096	-0.819211	0.564649	-0.100326
04130		-0.528226	-0.828776	-0.184684	-0.183363	-0.101034	0.977840	-0.829069	0.550384	-0.098598
04131		-0.519828	-0.835921	-0.176112	-0.185386	-0.090856	0.978456	-0.833913	0.541278	-0.107739
04132		-0.512892	-0.838154	-0.185582	-0.201117	-0.092848	0.975157	-0.834562	0.537474	-0.120946
04133		-0.508665	-0.834918	-0.210172	-0.227216	-0.105278	0.968137	-0.830441	0.540212	-0.136155
04134		-0.507168	-0.826311	-0.244931	-0.256025	-0.126914	0.958303	-0.822941	0.548729	-0.147189
04135		-0.508041	-0.812279	-0.286525	-0.284816	-0.155515	0.945883	-0.812880	0.562154	-0.152342
04136		-0.509862	-0.793467	-0.332341	-0.311831	-0.189584	0.931031	-0.801749	0.578332	-0.150766
04137		-0.511601	-0.770185	-0.380893	-0.337173	-0.227784	0.913471	-0.790303	0.595759	-0.143151
04138		-0.512136	-0.742575	-0.431624	-0.363539	-0.267888	0.892231	-0.778175	0.613855	-0.132760
04139		-0.511486	-0.709828	-0.484279	-0.392060	-0.308720	0.866591	-0.764638	0.633116	-0.120389
04140		-0.508835	-0.672714	-0.537161	-0.421253	-0.349596	0.836856	-0.750755	0.652103	-0.105497
04141		-0.503883	-0.632158	-0.588624	-0.448907	-0.390548	0.803713	-0.737960	0.669215	-0.086990
04142		-0.496147	-0.589828	-0.637135	-0.474073	-0.430743	0.767929	-0.727388	0.683054	-0.065909
04143		-0.485730	-0.546773	-0.681987	-0.496270	-0.469772	0.730090	-0.719571	0.693076	-0.043165
04144		-0.473222	-0.503736	-0.722711	-0.516941	-0.505502	0.690825	-0.713326	0.700512	-0.021187
04145		-0.458964	-0.460880	-0.759567	-0.539064	-0.535126	0.650423	-0.706231	0.707976	-0.002840
04146		-0.441933	-0.419553	-0.792887	-0.560735	-0.560717	0.609239	-0.700194	0.713843	0.012541
04147		-0.424173	-0.378504	-0.822686	-0.584156	-0.579820	0.567953	-0.691983	0.721487	0.024839
04148		-0.405207	-0.338606	-0.849207	-0.608063	-0.593817	0.526917	-0.682691	0.729882	0.034725
04149		-0.386443	-0.298270	-0.872752	-0.632422	-0.603086	0.486138	-0.671345	0.739812	0.044426
04150		-0.368505	-0.258966	-0.892827	-0.654886	-0.609331	0.447035	-0.659794	0.749434	0.054949
04151		-0.351947	-0.219669	-0.909878	-0.676441	-0.612191	0.409451	-0.646963	0.759584	0.066866
04152		-0.336397	-0.180669	-0.924227	-0.696715	-0.612547	0.373329	-0.633581	0.769510	0.080184
04153		-0.321566	-0.142173	-0.936153	-0.713660	-0.613389	0.338295	-0.622322	0.776879	0.095782
04154		-0.306740	-0.103877	-0.946108	-0.729166	-0.613240	0.303735	-0.611742	0.783037	0.112361
04155		-0.290163	-0.066711	-0.954649	-0.743541	-0.612293	0.268784	-0.602456	0.787812	0.128063
04156		-0.271693	-0.031670	-0.961863	-0.755117	-0.612611	0.233466	-0.596642	0.789750	0.142528
04157		-0.252405	0.002712	-0.967618	-0.765028	-0.612855	0.197841	-0.592473	0.790191	0.156763
04158		-0.233728	0.036954	-0.971600	-0.773221	-0.612911	0.162694	-0.589492	0.789288	0.171828
04159		-0.215884	0.068878	-0.973987	-0.780747	-0.611211	0.129829	-0.586369	0.788465	0.185727
04160		-0.200036	0.098652	-0.974809	-0.787024	-0.608781	0.099892	-0.583591	0.787181	0.199420
04161		-0.187240	0.127546	-0.973999	-0.792987	-0.604820	0.073241	-0.579752	0.786082	0.214388
04162		-0.177826	0.156738	-0.971499	-0.799590	-0.598478	0.049803	-0.573615	0.785657	0.231751
04163		-0.170611	0.185499	-0.967720	-0.807119	-0.589663	0.029266	-0.565200	0.786058	0.250323
04164		-0.164592	0.212150	-0.963277	-0.814718	-0.579743	0.011527	-0.556008	0.786696	0.268263
04165		-0.159398	0.236483	-0.958472	-0.821715	-0.569885	-0.003953	-0.547153	0.786961	0.285160
04166		-0.155307	0.259774	-0.953099	-0.827872	-0.560631	-0.017903	-0.538987	0.786264	0.302129
04167		-0.152300	0.282651	-0.947055	-0.833842	-0.551166	-0.030403	-0.530577	0.785064	0.319629
04168		-0.149885	0.305186	-0.940423	-0.839598	-0.541587	-0.041940	-0.522121	0.783291	0.337409
04169		-0.147258	0.327292	-0.933378	-0.845401	-0.531497	-0.052993	-0.513432	0.781275	0.354960
04170		-0.144055	0.348402	-0.926209	-0.851092	-0.521142	-0.063661	-0.504866	0.779119	0.371596
04171		-0.139688	0.368621	-0.919024	-0.857410	-0.509292	-0.073954	-0.495313	0.777650	0.387202
04172		-0.133534	0.388199	-0.911850	-0.865383	-0.494085	-0.083616	-0.482991	0.777934	0.401918
04173		-0.126212	0.408360	-0.904054	-0.875578	-0.474240	-0.091977	-0.466298	0.779961	0.417405
04174		-0.117910	0.430060	-0.895067	-0.887902	-0.449275	-0.098901	-0.444665	0.783071	0.434825
04175		-0.107716	0.453714	-0.884614	-0.902344	-0.418135	-0.104585	-0.417340	0.786960	0.454446
04176		-0.094623	0.478599	-0.872920	-0.918698	-0.379733	-0.108612	-0.383459	0.791673	0.475620
04177		-0.078614	0.504246	-0.859974	-0.936518	-0.333029	-0.109661	-0.341692	0.796761	0.498417
04178		-0.060464	0.529903	-0.845900	-0.953990	-0.280011	-0.107219	-0.293677	0.800498	0.522453
04179		-0.041399	0.554607	-0.831082	-0.969757	-0.222552	-0.100209	-0.240535	0.801799	0.547048
04180		-0.021647	0.577186	-0.816326	-0.982352	-0.164013	-0.089916	-0.185786	0.799973	0.570550
04181		-0.001433	0.596900	-0.802314	-0.991357	-0.106098	-0.077163	-0.131182	0.795270	0.591893
04182		0.020039	0.613753	-0.789244	-0.996625	-0.050588	-0.064644	-0.079601	0.787876	0.610668
04183		0.043169	0.627531	-0.777394	-0.998583	0.002875	-0.053131	-0.031107	0.778586	0.626767
04184		0.068291	0.638115	-0.766907	-0.997586	0.053372	-0.044424	0.012584	0.768089	0.640219
04185		0.094824	0.645203	-0.758104	-0.994123	0.101324	-0.038112	0.052224	0.757262	0.651020
04186		0.122400	0.648855	-0.751003	-0.988540	0.147068	-0.034050	0.088355	0.746564	0.659420
04187		0.150210	0.648498	-0.746249	-0.981084	0.191003	-0.031497	0.122110	0.736864	0.664921
04188		0.177946	0.644059	-0.743991	-0.972069	0.232621	-0.031122	0.153023	0.728750	0.667464
04189		0.204956	0.636035	-0.743944	-0.961862	0.271560	-0.032822	0.181149	0.722298	0.667436
04190		0.230638	0.625592	-0.745279	-0.950876	0.307449	-0.036188	0.206497	0.717014	0.665770
04191		0.254657	0.613409	-0.747582	-0.939597	0.339786	-0.041263	0.228707	0.712934	0.662886
04192		0.277083	0.600441	-0.750130	-0.928112	0.369293	-0.047226	0.248661	0.709291	0.659601
04193		0.298104	0.587150	-0.752588	-0.916497	0.396413	-0.053758	0.266771	0.705771	0.656293
04194		0.318013	0.573961	-0.754610	-0.904841	0.421384	-0.060817	0.283074	0.702143	0.653349
04195		0.336846	0.560919	-0.756244	-0.893409	0.443970	-0.068641	0.297247	0.698756	0.650680
04196		0.355283	0.548123	-0.757189	-0.882473	0.463795	-0.078331	0.308245	0.696028	0.648482
04197		0.373840	0.535912	-0.756995	-0.872209	0.480703	-0.090426	0.315429	0.694063	0.647133
04198		0.392393	0.524588	-0.755536	-0.862464	0.495315	-0.104016	0.319663	0.692438	0.646796
04199		0.409795	0.513852	-0.753674	-0.853244	0.508099	-0.117514	0.322556	0.691225	0.646657
04200		0.425183	0.503565	-0.752092	-0.845169	0.518246	-0.130810	0.323897	0.691263	0.645946
04201		0.438142	0.493775	-0.751144	-0.839145	0.524269	-0.144838	0.322284	0.693778	0.644053
04202		0.449064	0.484659	-0.750631	-0.835307	0.525947	-0.160133	0.317182	0.698917	0.641023
04203		0.458315	0.476157	-0.750481	-0.833143	0.524247	-0.176178	0.309550	0.706003	0.636976
04204		0.465973	0.468265	-0.750731	-0.832167	0.520209	-0.192042	0.300610	0.714220	0.632078
04205		0.471812	0.460951	-0.751610	-0.832267	0.514256	-0.207057	0.291077	0.723232	0.626266
04206		0.475504	0.454266	-0.753351	-0.833706	0.506013	-0.221099	0.280768	0.733207	0.619336
04207		0.477242	0.448343	-0.755796	-0.836484	0.495358	-0.234342	0.269324	0.744049	0.611437
04208		0.477539	0.443231	-0.758619	-0.840278	0.482647	-0.246950	0.256689	0.755380	0.602920
04209		0.476638	0.438565	-0.761891	-0.844655	0.468691	-0.258624	0.243668	0.766805	0.593832
04210		0.475049	0.433964	-0.765508	-0.849046	0.454605	-0.269176	0.231192	0.777823	0.584416
04211		0.473022	0.429128	-0.769480	-0.853116	0.441267	-0.278347	0.220100	0.788119	0.574825
04212		0.470866	0.423940	-0.773667	-0.856696	0.429092	-0.286272	0.210612	0.797593	0.565232
04213		0.468695	0.418292	-0.778047	-0.859685	0.418540	-0.292858	0.203144	0.806136	0.555767
04214		0.466493	0.412215	-0.782600	-0.862195	0.409459	-0.298267	0.197492	0.813893	0.546420
04215		0.464006	0.405951	-0.787338	-0.864401	0.401821	-0.302243	0.193673	0.820819	0.537352
04216		0.461001	0.399574	-0.792350	-0.866397	0.395776	-0.304497	0.191924	0.826863	0.528643
04217		0.456945	0.393082	-0.797927	-0.868482	0.390994	-0.304734	0.192199	0.832232	0.520047
04218		0.451848	0.386825	-0.803866	-0.870839	0.386792	-0.303366	0.193579	0.837113	0.511634
04219		0.446085	0.381297	-0.809704	-0.873429	0.382859	-0.300900	0.195270	0.841446	0.503823
04220		0.440537	0.376757	-0.814850	-0.875901	0.379348	-0.298147	0.196783	0.845073	0.497119
04221		0.435830	0.372919	-0.819136	-0.877891	0.376756	-0.295570	0.198391	0.847931	0.491584
04222		0.432058	0.369126	-0.822844	-0.879538	0.374147	-0.293986	0.199347	0.850741	0.486313
04223		0.429204	0.364947	-0.826195	-0.880991	0.370792	-0.293884	0.199094	0.854006	0.480661
04224		0.427167	0.360233	-0.829313	-0.882346	0.366396	-0.295330	0.197469	0.857896	0.474362
04225		0.425523	0.354855	-0.832471	-0.883762	0.360839	-0.297927	0.194667	0.862481	0.467153
04226		0.424067	0.348756	-0.835785	-0.885314	0.354029	-0.301469	0.190753	0.867775	0.458890
04227		0.422475	0.342109	-0.839331	-0.887098	0.346037	-0.305475	0.185934	0.873625	0.449676
04228		0.420729	0.335213	-0.842982	-0.889066	0.337156	-0.309659	0.180415	0.879749	0.439878
04229		0.419123	0.328632	-0.846367	-0.891045	0.327827	-0.313957	0.174286	0.885737	0.430226
04230		0.417908	0.322856	-0.849186	-0.892860	0.318596	-0.318273	0.167791	0.891213	0.421409
04231		0.417118	0.318138	-0.851352	-0.894477	0.309645	-0.322537	0.161006	0.896051	0.413726
04232		0.416727	0.314561	-0.852872	-0.895850	0.301309	-0.326597	0.154243	0.900147	0.407363
04233		0.416448	0.311838	-0.854007	-0.897101	0.293429	-0.330318	0.147585	0.903690	0.401948
04234		0.416106	0.309616	-0.854982	-0.898286	0.285970	-0.333622	0.141204	0.906840	0.397117
04235		0.415666	0.307643	-0.855908	-0.899485	0.278434	-0.336750	0.134715	0.909852	0.392456
04236		0.415264	0.305634	-0.856822	-0.900643	0.270712	-0.339937	0.128056	0.912854	0.387684
04237		0.414571	0.303589	-0.857884	-0.901956	0.262276	-0.343055	0.120854	0.915994	0.382556
04238		0.413322	0.301564	-0.859199	-0.903578	0.252656	-0.345993	0.112742	0.919361	0.376915
04239		0.411510	0.299259	-0.860873	-0.905556	0.241091	-0.349060	0.103090	0.923211	0.370208
04240		0.409217	0.296474	-0.862928	-0.907782	0.227695	-0.352259	0.092049	0.927501	0.362310
04241		0.406438	0.292949	-0.865441	-0.910208	0.212299	-0.355599	0.079560	0.932261	0.352931
04242		0.403364	0.288856	-0.868251	-0.912644	0.195619	-0.358908	0.066174	0.937174	0.342528
04243		0.399921	0.284468	-0.871287	-0.915045	0.178367	-0.361771	0.052497	0.941946	0.331634
04244		0.396127	0.280073	-0.874438	-0.917360	0.161336	-0.363896	0.039160	0.946324	0.320838
04245		0.391964	0.276127	-0.877564	-0.919593	0.145270	-0.365027	0.026690	0.950079	0.310865
04246		0.387225	0.272870	-0.880681	-0.921857	0.130542	-0.364882	0.015400	0.953153	0.302096
04247		0.381625	0.270468	-0.883860	-0.924299	0.117733	-0.363058	0.005864	0.955503	0.294923
04248		0.374931	0.268894	-0.887199	-0.927051	0.106990	-0.359346	-0.001705	0.957209	0.289392
04249		0.367381	0.267704	-0.890711	-0.930036	0.097498	-0.354297	-0.008004	0.958556	0.284793
04250		0.359473	0.266527	-0.894283	-0.933056	0.088661	-0.348635	-0.013633	0.959741	0.280556
04251		0.351956	0.265154	-0.897675	-0.935800	0.079028	-0.343560	-0.020154	0.960962	0.275945
04252		0.345124	0.263716	-0.900746	-0.938125	0.067824	-0.339589	-0.028463	0.962213	0.270806
04253		0.337931	0.262299	-0.903882	-0.940471	0.057076	-0.335047	-0.036292	0.963297	0.265972
04254		0.329169	0.261320	-0.907391	-0.943327	0.048041	-0.328370	-0.042218	0.964056	0.262324
04255		0.317970	0.261688	-0.911271	-0.946837	0.038032	-0.319458	-0.048941	0.964403	0.259869
04256		0.303709	0.263347	-0.915647	-0.951143	0.027760	-0.307499	-0.055561	0.964302	0.258912
04257		0.286001	0.266293	-0.920485	-0.956202	0.016856	-0.292222	-0.062300	0.963745	0.259451
04258		0.265057	0.270143	-0.925617	-0.961688	0.004371	-0.274111	-0.070003	0.962810	0.260952
04259		0.240288	0.273783	-0.931292	-0.967356	-0.012051	-0.253136	-0.080527	0.961716	0.261950
04260		0.211432	0.276075	-0.937592	-0.972945	-0.031966	-0.228816	-0.093142	0.960604	0.261847
04261		0.179259	0.277286	-0.943917	-0.977948	-0.054290	-0.201670	-0.107165	0.959252	0.261440
04262		0.144069	0.278090	-0.949689	-0.981968	-0.078531	-0.171961	-0.122401	0.957339	0.261762
04263		0.105416	0.279518	-0.954336	-0.985375	-0.099840	-0.138087	-0.133879	0.954935	0.264905
04264		0.063135	0.282884	-0.957074	-0.988044	-0.117437	-0.099889	-0.140653	0.951938	0.272087
04265		0.016568	0.288524	-0.957329	-0.989320	-0.133943	-0.057490	-0.144815	0.948057	0.283224
04266		-0.033943	0.295791	-0.954649	-0.988869	-0.148392	-0.010819	-0.144862	0.943656	0.297536
04267		-0.088128	0.304708	-0.948360	-0.986041	-0.161708	0.039672	-0.141269	0.938618	0.314706
04268		-0.145550	0.313932	-0.938223	-0.980015	-0.175722	0.093236	-0.135597	0.933043	0.333234
04269		-0.207425	0.323291	-0.923286	-0.969751	-0.192102	0.150599	-0.128678	0.926596	0.353358
04270		-0.273062	0.330963	-0.903272	-0.954127	-0.213028	0.210381	-0.122794	0.919284	0.373951
04271		-0.341644	0.334749	-0.878193	-0.932221	-0.239361	0.271423	-0.119347	0.911400	0.393836
04272		-0.409098	0.328042	-0.851485	-0.904312	-0.270411	0.330300	-0.121899	0.905133	0.407277
04273		-0.473485	0.307924	-0.825224	-0.870754	-0.304756	0.385891	-0.132667	0.901281	0.412423
04274		-0.536361	0.279823	-0.796251	-0.829702	-0.347673	0.436713	-0.154632	0.894887	0.418648
04275		-0.602225	0.251234	-0.757764	-0.776610	-0.404254	0.483173	-0.184940	0.879466	0.438563
04276		-0.670576	0.222663	-0.707636	-0.710557	-0.466874	0.526438	-0.213158	0.855833	0.471290
04277		-0.736715	0.190071	-0.648940	-0.634798	-0.525059	0.566873	-0.232986	0.829570	0.507475
04278		-0.796498	0.150760	-0.585544	-0.553608	-0.571230	0.605982	-0.243123	0.806826	0.538446
04279		-0.846568	0.107274	-0.521358	-0.471201	-0.606609	0.640309	-0.247572	0.787730	0.564084
04280		-0.887682	0.061844	-0.456284	-0.386867	-0.637562	0.666220	-0.249707	0.767913	0.589878
04281		-0.919303	0.007339	-0.393483	-0.300523	-0.658645	0.689835	-0.254103	0.752418	0.607700
04282		-0.943445	-0.056294	-0.326714	-0.208285	-0.666062	0.716225	-0.257931	0.743769	0.616668
04283		-0.956861	-0.137852	-0.255761	-0.101479	-0.666275	0.738769	-0.272248	0.732854	0.623544
04284		-0.954894	-0.229447	-0.188496	0.012876	-0.666180	0.745680	-0.296667	0.709618	0.639086
04285		-0.943600	-0.305166	-0.128424	0.113058	-0.661560	0.741321	-0.311186	0.684991	0.658749
04286		-0.926946	-0.365485	-0.084809	0.180095	-0.631717	0.753989	-0.329147	0.683634	0.651389
04287		-0.909715	-0.411287	-0.057109	0.224843	-0.603545	0.764970	-0.349090	0.683064	0.641529
04288		-0.901781	-0.429793	-0.045486	0.238424	-0.582496	0.777079	-0.360479	0.689910	0.627757
04289		-0.898945	-0.436306	-0.039193	0.229391	-0.545065	0.806402	-0.373200	0.715920	0.590068
04290		-0.903009	-0.428802	-0.026517	0.219457	-0.513454	0.829580	-0.369341	0.743299	0.557757
04291		-0.910954	-0.412050	-0.019449	0.209045	-0.501772	0.839360	-0.355617	0.760552	0.543228
04292		-0.921793	-0.386826	-0.025753	0.186860	-0.501519	0.844726	-0.339678	0.773850	0.534579
04293		-0.931047	-0.361924	-0.046511	0.157764	-0.514186	0.843044	-0.329033	0.777576	0.535829
04294		-0.939017	-0.335700	-0.074516	0.123037	-0.530348	0.838805	-0.321106	0.778484	0.539309
04295		-0.945574	-0.307579	-0.106231	0.085392	-0.549556	0.831082	-0.314003	0.776778	0.545911
04296		-0.950933	-0.276546	-0.138738	0.044838	-0.566862	0.822592	-0.306130	0.776009	0.551448
04297		-0.953976	-0.245358	-0.172423	0.000523	-0.576325	0.817221	-0.299883	0.779518	0.549928
04298		-0.954150	-0.215048	-0.208213	-0.048493	-0.575354	0.816465	-0.295376	0.789127	0.538546
04299		-0.951589	-0.184662	-0.245720	-0.101166	-0.566719	0.817676	-0.290248	0.802950	0.520602
04300		-0.946462	-0.154025	-0.283701	-0.155484	-0.552672	0.818766	-0.282904	0.819042	0.499135
04301		-0.938935	-0.122396	-0.321589	-0.210688	-0.534419	0.818539	-0.272050	0.836311	0.475998
04302		-0.928784	-0.090857	-0.359313	-0.265552	-0.513159	0.816180	-0.258540	0.853471	0.452487
04303		-0.915594	-0.060931	-0.397461	-0.319206	-0.490966	0.810592	-0.244530	0.869045	0.430076
04304		-0.899015	-0.034312	-0.436572	-0.371052	-0.469783	0.801014	-0.232579	0.882115	0.409610
04305		-0.879003	-0.010796	-0.476695	-0.421066	-0.451532	0.786653	-0.223735	0.892190	0.392352
04306		-0.856021	0.010421	-0.516836	-0.468925	-0.436448	0.767869	-0.217570	0.899669	0.378495
04307		-0.829336	0.027059	-0.558095	-0.515295	-0.423235	0.745214	-0.216041	0.905616	0.364947
04308		-0.801256	0.041547	-0.596877	-0.557632	-0.413455	0.719793	-0.216876	0.909576	0.354451
04309		-0.771414	0.058512	-0.633638	-0.598768	-0.403812	0.691673	-0.215399	0.912969	0.346542
04310		-0.739484	0.075677	-0.668907	-0.638707	-0.392751	0.661665	-0.212641	0.916526	0.338768
04311		-0.706078	0.091868	-0.702149	-0.676028	-0.382626	0.629749	-0.210807	0.919325	0.332269
04312		-0.670982	0.107020	-0.733710	-0.712301	-0.367871	0.597745	-0.205940	0.923698	0.323065
04313		-0.633906	0.124459	-0.763330	-0.747809	-0.350466	0.563875	-0.197342	0.928269	0.315234
04314		-0.594739	0.142233	-0.791236	-0.781710	-0.332061	0.527887	-0.187656	0.932472	0.308675
04315		-0.554390	0.159742	-0.816783	-0.813189	-0.312848	0.490765	-0.177133	0.936274	0.303340
04316		-0.513468	0.176086	-0.839848	-0.841487	-0.295026	0.452614	-0.168078	0.939124	0.299661
04317		-0.471466	0.190359	-0.861094	-0.867350	-0.276631	0.413737	-0.159446	0.941933	0.295530
04318		-0.429123	0.203062	-0.880124	-0.890255	-0.259753	0.374133	-0.152643	0.944084	0.292243
04319		-0.386797	0.214004	-0.896989	-0.910215	-0.244683	0.334124	-0.147974	0.945692	0.289433
04320		-0.344878	0.223200	-0.911724	-0.927381	-0.231062	0.294235	-0.144991	0.946991	0.286680
04321		-0.303146	0.231739	-0.924337	-0.942325	-0.217301	0.254566	-0.141866	0.948197	0.284247
04322		-0.262088	0.241643	-0.934301	-0.955385	-0.201599	0.215862	-0.136193	0.949192	0.283699
04323		-0.222476	0.252441	-0.941689	-0.966780	-0.181817	0.179664	-0.125861	0.950377	0.284505
04324		-0.185319	0.261810	-0.947160	-0.976316	-0.158555	0.147197	-0.111640	0.952006	0.284993
04325		-0.150920	0.270540	-0.950806	-0.983779	-0.135448	0.117614	-0.096965	0.953133	0.286593
04326		-0.119339	0.278862	-0.952887	-0.989305	-0.114470	0.090400	-0.083868	0.953484	0.289541
04327		-0.090198	0.285958	-0.953988	-0.993304	-0.095268	0.065359	-0.072195	0.953495	0.292636
04328		-0.063693	0.291367	-0.954488	-0.995990	-0.078770	0.042417	-0.062826	0.953363	0.295216
04329		-0.039855	0.295789	-0.954422	-0.997649	-0.065071	0.021494	-0.055748	0.953035	0.297687
04330		-0.018945	0.299514	-0.953904	-0.998625	-0.052308	0.003409	-0.048876	0.952657	0.300093
04331		-0.000987	0.303012	-0.952986	-0.999124	-0.040174	-0.011739	-0.041843	0.952140	0.302786
04332		0.014000	0.306886	-0.951643	-0.999294	-0.028880	-0.024014	-0.034853	0.951308	0.306265
04333		0.026016	0.311056	-0.950035	-0.999261	-0.018815	-0.033525	-0.028303	0.950205	0.310337
04334		0.035489	0.315029	-0.948418	-0.999107	-0.010573	-0.040898	-0.022912	0.949023	0.314373
04335		0.042752	0.318504	-0.946957	-0.998896	-0.004821	-0.046718	-0.019446	0.947909	0.317946
04336		0.047856	0.321053	-0.945851	-0.998683	-0.002157	-0.051262	-0.018498	0.947059	0.320527
04337		0.050694	0.322702	-0.945142	-0.998513	-0.002642	-0.054459	-0.020071	0.946497	0.322088
04338		0.051399	0.323858	-0.944708	-0.998402	-0.005599	-0.056240	-0.023503	0.946089	0.323053
04339		0.050140	0.324592	-0.944524	-0.998345	-0.010380	-0.056564	-0.028164	0.945797	0.323535
04340		0.047237	0.324594	-0.944673	-0.998303	-0.016898	-0.055725	-0.034051	0.945703	0.323245
04341		0.042701	0.324099	-0.945059	-0.998257	-0.024725	-0.053584	-0.040733	0.945700	0.322479
04342		0.036915	0.323300	-0.945576	-0.998169	-0.033436	-0.050400	-0.047910	0.945706	0.321473
04343		0.029860	0.322293	-0.946169	-0.998039	-0.042493	-0.045971	-0.055022	0.945686	0.320392
04344		0.021753	0.321043	-0.946815	-0.997821	-0.052028	-0.040567	-0.062284	0.945634	0.319212
04345		0.012684	0.319684	-0.947439	-0.997517	-0.061600	-0.034139	-0.069276	0.945520	0.318109
04346		0.002836	0.318431	-0.947942	-0.997168	-0.070338	-0.026611	-0.075150	0.945333	0.317329
04347		-0.008033	0.317017	-0.948386	-0.996801	-0.077958	-0.017616	-0.079519	0.945210	0.316629
04348		-0.019707	0.315455	-0.948736	-0.996393	-0.084530	-0.007409	-0.082533	0.945168	0.315983
04349		-0.032184	0.313987	-0.948881	-0.995889	-0.090502	0.003831	-0.084673	0.945104	0.315609
04350		-0.044895	0.312706	-0.948788	-0.995301	-0.095563	0.015600	-0.085791	0.945031	0.315527
04351		-0.057819	0.311143	-0.948603	-0.994604	-0.099936	0.027844	-0.086136	0.945094	0.315243
04352		-0.071001	0.309000	-0.948408	-0.993665	-0.104944	0.040197	-0.087109	0.945254	0.314494
04353		-0.084656	0.306254	-0.948178	-0.992472	-0.110437	0.052940	-0.088500	0.945522	0.313298
04354		-0.098388	0.303079	-0.947873	-0.991055	-0.116144	0.065733	-0.090168	0.945861	0.311795
04355		-0.111999	0.299663	-0.947448	-0.989476	-0.121531	0.078529	-0.091612	0.946273	0.310121
04356		-0.125511	0.296287	-0.946816	-0.987781	-0.126196	0.091450	-0.092389	0.946725	0.308506
04357		-0.139208	0.292826	-0.945978	-0.985950	-0.130049	0.104833	-0.092326	0.947280	0.306816
04358		-0.153041	0.289497	-0.944865	-0.983964	-0.133280	0.118538	-0.091615	0.947854	0.305252
04359		-0.166802	0.286428	-0.943470	-0.981854	-0.135810	0.132357	-0.090222	0.948427	0.303884
04360		-0.180335	0.283961	-0.941725	-0.979715	-0.136927	0.146322	-0.087398	0.949009	0.302893
04361		-0.193975	0.282594	-0.939422	-0.977544	-0.136068	0.160915	-0.082352	0.949540	0.302642
04362		-0.207928	0.282732	-0.936391	-0.975281	-0.133121	0.176369	-0.074788	0.949917	0.303423
04363		-0.222259	0.284435	-0.932576	-0.972860	-0.127858	0.192863	-0.064380	0.950131	0.305133
04364		-0.237074	0.287950	-0.927836	-0.970172	-0.119941	0.210668	-0.050624	0.950105	0.307796
04365		-0.252759	0.293546	-0.921924	-0.966952	-0.109563	0.230218	-0.033429	0.949646	0.311538
04366		-0.269378	0.300815	-0.914847	-0.962929	-0.098176	0.251255	-0.014234	0.948616	0.316110
04367		-0.286975	0.309468	-0.906573	-0.957917	-0.086368	0.273745	0.006416	0.946979	0.321230
04368		-0.305626	0.319151	-0.897070	-0.951747	-0.074928	0.297597	0.027762	0.944737	0.326651
04369		-0.325656	0.329807	-0.886102	-0.944193	-0.064394	0.323038	0.049480	0.941850	0.332371
04370		-0.346769	0.341366	-0.873625	-0.935205	-0.054616	0.349870	0.071720	0.938342	0.338186
04371		-0.368866	0.353947	-0.859453	-0.924706	-0.046124	0.377877	0.094107	0.934128	0.344310
04372		-0.391942	0.367174	-0.843543	-0.912581	-0.039033	0.407029	0.116525	0.929333	0.350375
04373		-0.416106	0.381068	-0.825617	-0.898620	-0.033471	0.437450	0.139064	0.923941	0.356363
04374		-0.441151	0.395306	-0.805679	-0.882631	-0.028736	0.469187	0.162320	0.918100	0.361586
04375		-0.467025	0.410424	-0.783224	-0.864158	-0.024127	0.502642	0.187399	0.911576	0.365939
04376		-0.493104	0.426585	-0.758204	-0.843023	-0.019068	0.537539	0.214848	0.904247	0.369024
04377		-0.519752	0.443628	-0.730104	-0.818533	-0.013843	0.574292	0.244666	0.896104	0.370319
04378		-0.546490	0.460213	-0.699680	-0.790902	-0.008911	0.611878	0.275360	0.887764	0.368853
04379		-0.573318	0.475645	-0.667135	-0.760189	-0.005054	0.649682	0.305646	0.879623	0.364477
04380		-0.599636	0.489793	-0.632882	-0.727228	-0.003409	0.686388	0.334030	0.871832	0.358236
04381		-0.625340	0.502924	-0.596672	-0.692596	-0.005421	0.721305	0.359527	0.864314	0.351713
04382		-0.649981	0.515107	-0.558739	-0.656713	-0.010727	0.754065	0.382431	0.857059	0.345250
04383		-0.673620	0.526753	-0.518428	-0.619250	-0.019356	0.784956	0.403443	0.849798	0.339230
04384		-0.695555	0.537902	-0.476303	-0.581100	-0.031315	0.813229	0.422522	0.842426	0.334356
04385		-0.716021	0.548373	-0.431974	-0.543070	-0.048759	0.838271	0.438622	0.834811	0.332717
04386		-0.734875	0.557302	-0.386489	-0.506899	-0.072743	0.858931	0.450569	0.827117	0.335953
04387		-0.752742	0.563512	-0.340343	-0.472742	-0.102916	0.875170	0.458142	0.819672	0.343865
04388		-0.769136	0.567060	-0.294742	-0.442536	-0.139833	0.885781	0.461077	0.811720	0.358495
04389		-0.783785	0.568604	-0.249742	-0.416698	-0.183324	0.890368	0.460483	0.801924	0.380622
04390		-0.795850	0.569857	-0.204661	-0.393397	-0.229694	0.890213	0.460285	0.788989	0.406982
04391		-0.806364	0.570170	-0.157111	-0.370254	-0.279528	0.885876	0.461183	0.772509	0.436509
04392		-0.815731	0.568454	-0.106974	-0.344466	-0.328834	0.879325	0.464678	0.754141	0.464053
04393		-0.823462	0.564714	-0.054856	-0.314921	-0.374500	0.872109	0.471948	0.735424	0.486226
04394		-0.828739	0.559632	-0.001817	-0.281964	-0.414741	0.865151	0.483413	0.717497	0.501508
04395		-0.831037	0.553822	0.051555	-0.246067	-0.449189	0.858883	0.498827	0.701078	0.509570
04396		-0.828997	0.549159	0.105772	-0.208320	-0.478746	0.852880	0.519005	0.685001	0.511280
04397		-0.823855	0.544301	0.158116	-0.168449	-0.501481	0.848612	0.541192	0.672498	0.504834
04398		-0.816255	0.539227	0.207273	-0.128761	-0.519590	0.844658	0.563159	0.662768	0.493549
04399		-0.805990	0.535069	0.253143	-0.090759	-0.534309	0.840403	0.584930	0.654381	0.479210
04400		-0.794451	0.531102	0.294581	-0.055171	-0.546150	0.835868	0.604817	0.647804	0.463191
04401		-0.783889	0.525996	0.329919	-0.022477	-0.555048	0.831515	0.620494	0.644399	0.446919
04402		-0.773914	0.521050	0.359951	0.006825	-0.561486	0.827458	0.633255	0.642838	0.430985
04403		-0.764315	0.517160	0.385186	0.032749	-0.565430	0.824146	0.644011	0.642521	0.415230
04404		-0.755023	0.514345	0.406681	0.055629	-0.567742	0.821325	0.653334	0.642743	0.400046
04405		-0.746518	0.512025	0.424902	0.075640	-0.569152	0.818746	0.661052	0.643348	0.386153
04406		-0.740016	0.508207	0.440570	0.093672	-0.570778	0.815744	0.666034	0.644933	0.374780
04407		-0.735856	0.501322	0.455184	0.111200	-0.573625	0.811535	0.667945	0.647789	0.366358
04408		-0.730416	0.496418	0.469106	0.126494	-0.576627	0.807156	0.671186	0.648899	0.358384
04409		-0.724800	0.492807	0.481463	0.140435	-0.578476	0.803519	0.674495	0.650005	0.350072
04410		-0.719961	0.488952	0.492526	0.153384	-0.580024	0.800028	0.676853	0.651535	0.342597
04411		-0.715653	0.485217	0.502399	0.165472	-0.581038	0.796878	0.678571	0.653421	0.335532
04412		-0.711495	0.482463	0.510885	0.177287	-0.580272	0.794892	0.679958	0.656136	0.327326
04413		-0.707871	0.480890	0.517363	0.188274	-0.577497	0.794387	0.680788	0.659729	0.318254
04414		-0.705560	0.479307	0.521968	0.198001	-0.573894	0.794633	0.680427	0.664011	0.310013
04415		-0.704788	0.477080	0.525041	0.207139	-0.569459	0.795493	0.678504	0.669411	0.302526
04416		-0.705160	0.474120	0.527220	0.216544	-0.564033	0.796854	0.675173	0.676075	0.295065
04417		-0.706283	0.471029	0.528485	0.225508	-0.557938	0.798656	0.671052	0.683255	0.287841
04418		-0.707512	0.468653	0.528953	0.233803	-0.551108	0.801010	0.666906	0.690395	0.280343
04419		-0.707800	0.468552	0.528657	0.241721	-0.542548	0.804495	0.663770	0.697209	0.270757
04420		-0.706438	0.472184	0.527245	0.248469	-0.532071	0.809422	0.662728	0.702811	0.258552
04421		-0.704316	0.479035	0.523893	0.251425	-0.521827	0.815158	0.663871	0.705848	0.247090
04422		-0.701894	0.488405	0.518464	0.250149	-0.512503	0.821442	0.666911	0.706259	0.237548
04423		-0.699867	0.499205	0.510862	0.244325	-0.504761	0.827962	0.671187	0.704280	0.231297
04424		-0.698683	0.510453	0.501279	0.233785	-0.499303	0.834291	0.676156	0.700096	0.229518
04425		-0.697757	0.523060	0.489432	0.219385	-0.494376	0.841108	0.681913	0.694263	0.230203
04426		-0.696910	0.537338	0.474957	0.201977	-0.488407	0.848919	0.688129	0.687551	0.231846
04427		-0.695729	0.553756	0.457510	0.182059	-0.480191	0.858062	0.694850	0.680273	0.233266
04428		-0.693789	0.572371	0.437091	0.160106	-0.469148	0.868485	0.702156	0.672526	0.233850
04429		-0.690874	0.592639	0.414092	0.136577	-0.455463	0.879716	0.709958	0.664328	0.233727
04430		-0.687517	0.613201	0.388981	0.112815	-0.438964	0.891394	0.717352	0.656731	0.232617
04431		-0.682131	0.634384	0.363669	0.094108	-0.417041	0.904003	0.725149	0.650872	0.224776
04432		-0.674074	0.655750	0.340023	0.081133	-0.391809	0.916462	0.734194	0.645351	0.210905
04433		-0.664659	0.676130	0.317927	0.068452	-0.368625	0.927054	0.744005	0.637938	0.198727
04434		-0.656147	0.694209	0.295880	0.050557	-0.350764	0.935098	0.752937	0.628521	0.195056
04435		-0.648352	0.710377	0.273869	0.030762	-0.334983	0.941722	0.760719	0.618992	0.195334
04436		-0.640681	0.724841	0.253248	0.015233	-0.317768	0.948046	0.767656	0.611253	0.192546
04437		-0.633928	0.736806	0.235059	0.004158	-0.300681	0.953716	0.773381	0.605564	0.187547
04438		-0.627811	0.746062	0.221913	-0.004428	-0.288520	0.957464	0.778354	0.600123	0.184440
04439		-0.623170	0.751905	0.215172	-0.010612	-0.283229	0.958994	0.782015	0.595332	0.184478
04440		-0.620507	0.754671	0.213171	-0.014912	-0.283138	0.958963	0.784059	0.591865	0.186943
04441		-0.618997	0.755410	0.214936	-0.018375	-0.287521	0.957598	0.785178	0.588801	0.191856
04442		-0.618142	0.754692	0.219865	-0.023651	-0.297433	0.954450	0.785711	0.584785	0.201705
04443		-0.618487	0.751981	0.228033	-0.028826	-0.311710	0.949740	0.785266	0.580828	0.214465
04444		-0.619659	0.747513	0.239262	-0.031754	-0.328470	0.943980	0.784228	0.577349	0.227276
04445		-0.621190	0.741393	0.253888	-0.031375	-0.347246	0.937249	0.783031	0.574244	0.238968
04446		-0.622812	0.733991	0.270854	-0.027331	-0.366397	0.930057	0.781894	0.571848	0.248257
04447		-0.623724	0.725917	0.289848	-0.021250	-0.386429	0.922074	0.781356	0.568961	0.256451
04448		-0.623017	0.718358	0.309535	-0.013744	-0.405712	0.913898	0.782088	0.565119	0.262638
04449		-0.621495	0.710549	0.329947	-0.002745	-0.423136	0.906062	0.783414	0.562207	0.264927
04450		-0.620122	0.701850	0.350506	0.010528	-0.439300	0.898279	0.784435	0.560733	0.265031
04451		-0.618950	0.692167	0.371222	0.026963	-0.453632	0.890781	0.784968	0.561358	0.262112
04452		-0.618339	0.682077	0.390421	0.047464	-0.463458	0.884847	0.784477	0.565666	0.254199
04453		-0.619508	0.671034	0.407336	0.068826	-0.470475	0.879725	0.781967	0.573032	0.245279
04454		-0.623472	0.658806	0.421019	0.087032	-0.476667	0.874765	0.776986	0.582034	0.239851
04455		-0.629393	0.646023	0.431879	0.102712	-0.481731	0.870279	0.770269	0.592107	0.236844
04456		-0.635999	0.634292	0.439522	0.117297	-0.483480	0.867461	0.762723	0.603259	0.233092
04457		-0.642917	0.623956	0.444225	0.132626	-0.480527	0.866893	0.754366	0.616256	0.226186
04458		-0.649965	0.614882	0.446616	0.147866	-0.474128	0.867950	0.745440	0.630177	0.217246
04459		-0.656436	0.607254	0.447587	0.163050	-0.465082	0.870122	0.736550	0.644159	0.206284
04460		-0.661000	0.602039	0.447916	0.177545	-0.454488	0.872879	0.729080	0.656498	0.193528
04461		-0.663017	0.600012	0.447653	0.189991	-0.443535	0.875888	0.724094	0.665779	0.180074
04462		-0.662457	0.601386	0.446637	0.199611	-0.432959	0.879034	0.722015	0.671476	0.166774
04463		-0.659764	0.605850	0.444586	0.204936	-0.424136	0.882106	0.722989	0.673093	0.155669
04464		-0.655671	0.612143	0.442014	0.205447	-0.418684	0.884588	0.726558	0.670809	0.148756
04465		-0.650779	0.619606	0.438833	0.201309	-0.416478	0.886578	0.732094	0.665307	0.146303
04466		-0.645906	0.627165	0.435281	0.193253	-0.417280	0.887993	0.738552	0.657679	0.148322
04467		-0.642525	0.633777	0.430683	0.181763	-0.419954	0.889157	0.744395	0.649588	0.154634
04468		-0.640960	0.639122	0.425080	0.167609	-0.423894	0.890068	0.749051	0.641745	0.164577
04469		-0.641332	0.643401	0.418005	0.150531	-0.428700	0.890818	0.752352	0.634233	0.178088
04470		-0.643087	0.646763	0.410044	0.131814	-0.433971	0.891232	0.754363	0.627189	0.193829
04471		-0.646511	0.649018	0.400997	0.112218	-0.439000	0.891452	0.754606	0.621333	0.210987
04472		-0.650967	0.650374	0.391479	0.093719	-0.442909	0.891655	0.753298	0.617127	0.227366
04473		-0.655776	0.651642	0.381208	0.077107	-0.444489	0.892459	0.751007	0.614648	0.241239
04474		-0.660080	0.653559	0.370345	0.062672	-0.443377	0.894142	0.748577	0.613415	0.251704
04475		-0.664225	0.656009	0.358409	0.049396	-0.439891	0.896691	0.745899	0.613309	0.259783
04476		-0.667690	0.659404	0.345509	0.037398	-0.433823	0.900222	0.743500	0.613990	0.264999
04477		-0.670537	0.663891	0.331103	0.026865	-0.424282	0.905131	0.741390	0.615819	0.266661
04478		-0.672815	0.669393	0.315013	0.017617	-0.411185	0.911382	0.739601	0.618741	0.264858
04479		-0.674736	0.675641	0.297054	0.008688	-0.395181	0.918562	0.738008	0.622368	0.260773
04480		-0.676451	0.682007	0.277992	-0.000009	-0.377465	0.926024	0.736487	0.626408	0.255342
04481		-0.677529	0.688690	0.258185	-0.008655	-0.358478	0.933498	0.735445	0.630238	0.248840
04482		-0.678081	0.695204	0.238532	-0.016976	-0.339266	0.940537	0.734791	0.633711	0.241851
04483		-0.677234	0.702418	0.219003	-0.025862	-0.320195	0.946999	0.735313	0.635676	0.235013
04484		-0.675910	0.709428	0.199643	-0.035499	-0.301917	0.952673	0.736129	0.636834	0.229253
04485		-0.674356	0.716271	0.179443	-0.047132	-0.284272	0.957585	0.736900	0.637296	0.225460
04486		-0.672757	0.722765	0.158142	-0.061799	-0.267892	0.961465	0.737278	0.637060	0.224892
04487		-0.671228	0.728875	0.134890	-0.080477	-0.252558	0.964229	0.736870	0.636362	0.228182
04488		-0.669836	0.734312	0.110026	-0.102881	-0.238539	0.965668	0.735347	0.635519	0.235329
04489		-0.668714	0.738934	0.082451	-0.129691	-0.225116	0.965662	0.732121	0.635059	0.246371
04490		-0.667086	0.743182	0.051740	-0.160591	-0.211271	0.964145	0.727466	0.634858	0.260285
04491		-0.664467	0.747107	0.017769	-0.195570	-0.196787	0.960743	0.721274	0.634907	0.276871
04492		-0.659647	0.751376	-0.017323	-0.232391	-0.181993	0.955444	0.714745	0.634281	0.294665
04493		-0.652731	0.755797	-0.052094	-0.269257	-0.167167	0.948449	0.708127	0.633109	0.312618
04494		-0.643979	0.760363	-0.084486	-0.304156	-0.153128	0.940235	0.701983	0.631189	0.329880
04495		-0.633807	0.764908	-0.114909	-0.336699	-0.139087	0.931283	0.696364	0.628944	0.345698
04496		-0.622370	0.769409	-0.143756	-0.366320	-0.124013	0.922188	0.691712	0.626602	0.359032
04497		-0.610462	0.772918	-0.173017	-0.394982	-0.107733	0.912350	0.686532	0.625293	0.371055
04498		-0.598675	0.774711	-0.203499	-0.423902	-0.090871	0.901138	0.679629	0.625752	0.382803
04499		-0.586331	0.774835	-0.236318	-0.454593	-0.073263	0.887681	0.670493	0.627904	0.395191
04500		-0.572228	0.774159	-0.270616	-0.486869	-0.055151	0.871732	0.659935	0.630584	0.408474
04501		-0.555627	0.773171	-0.305753	-0.521301	-0.037482	0.852549	0.647706	0.633089	0.423881
04502		-0.537338	0.771635	-0.340363	-0.557149	-0.021815	0.830126	0.633129	0.635691	0.441638
04503		-0.518200	0.768535	-0.375264	-0.594275	-0.008012	0.804222	0.615067	0.639757	0.460872
04504		-0.499797	0.762775	-0.410338	-0.630549	0.004368	0.776137	0.593810	0.646649	0.478784
04505		-0.480399	0.755385	-0.445657	-0.666261	0.016132	0.745544	0.570362	0.655083	0.495534
04506		-0.459689	0.745989	-0.481858	-0.700537	0.028889	0.713031	0.545834	0.665332	0.509312
04507		-0.437038	0.734384	-0.519305	-0.734664	0.041630	0.677152	0.518909	0.677456	0.521332
04508		-0.413119	0.721424	-0.555770	-0.767343	0.052897	0.639051	0.490425	0.690470	0.531727
04509		-0.388118	0.706994	-0.591205	-0.797262	0.064235	0.600206	0.462318	0.704296	0.538729
04510		-0.363486	0.691690	-0.624053	-0.823468	0.074691	0.562424	0.435635	0.718322	0.542436
04511		-0.338146	0.676130	-0.654603	-0.846618	0.085200	0.525337	0.410969	0.731839	0.543614
04512		-0.312647	0.660678	-0.682463	-0.867002	0.095009	0.489164	0.388020	0.744633	0.543105
04513		-0.286655	0.645069	-0.708318	-0.884285	0.106310	0.454685	0.368605	0.756693	0.539951
04514		-0.261756	0.628886	-0.732111	-0.898612	0.117939	0.422596	0.352109	0.768500	0.534253
04515		-0.238305	0.610871	-0.755015	-0.910683	0.129561	0.392263	0.337443	0.781057	0.525435
04516		-0.218047	0.591229	-0.776469	-0.921505	0.137271	0.363299	0.321380	0.794736	0.514888
04517		-0.198967	0.570757	-0.796648	-0.931056	0.143610	0.335426	0.305853	0.808463	0.502834
04518		-0.180464	0.550199	-0.815299	-0.941044	0.144549	0.305845	0.286127	0.822427	0.491676
04519		-0.162003	0.528120	-0.833573	-0.950483	0.143520	0.275653	0.265212	0.836954	0.478718
04520		-0.145135	0.505580	-0.850485	-0.958546	0.141181	0.247502	0.245204	0.851150	0.464132
04521		-0.128879	0.483734	-0.865674	-0.965206	0.139101	0.221426	0.227527	0.864090	0.448976
04522		-0.114622	0.462269	-0.879301	-0.971017	0.134739	0.197413	0.209734	0.876444	0.433426
04523		-0.102555	0.440061	-0.892093	-0.975588	0.130582	0.176568	0.194192	0.888423	0.415926
04524		-0.093639	0.417175	-0.903989	-0.979370	0.124713	0.159000	0.179070	0.900229	0.396891
04525		-0.087824	0.392671	-0.915476	-0.982272	0.118659	0.145128	0.165617	0.911992	0.375289
04526		-0.085195	0.367198	-0.926233	-0.984600	0.111403	0.134729	0.152658	0.923447	0.352052
04527		-0.085962	0.341076	-0.936097	-0.985997	0.105642	0.129036	0.142903	0.934081	0.327218
04528		-0.090030	0.316195	-0.944413	-0.986779	0.099997	0.127548	0.134768	0.943409	0.303012
04529		-0.096243	0.292621	-0.951373	-0.986937	0.096015	0.129373	0.129204	0.951396	0.279558
04530		-0.104080	0.270437	-0.957095	-0.986642	0.093183	0.133623	0.125322	0.958217	0.257126
04531		-0.113444	0.248758	-0.961899	-0.986083	0.090242	0.139634	0.121538	0.964353	0.235059
04532		-0.124487	0.227584	-0.965768	-0.985335	0.086119	0.147303	0.116694	0.969943	0.213525
04533		-0.137899	0.205580	-0.968876	-0.984392	0.079550	0.156987	0.109347	0.975402	0.191402
04534		-0.151886	0.183214	-0.971269	-0.983503	0.069664	0.166940	0.098248	0.980602	0.169610
04535		-0.164110	0.161248	-0.973174	-0.982838	0.057530	0.175272	0.084248	0.985236	0.149040
04536		-0.173131	0.139684	-0.974943	-0.982479	0.044856	0.180896	0.069000	0.989180	0.129470
04537		-0.178184	0.119585	-0.976704	-0.982521	0.032731	0.183253	0.053883	0.992284	0.111663
04538		-0.179554	0.102874	-0.978354	-0.982931	0.021767	0.182683	0.040089	0.994456	0.097210
04539		-0.177542	0.089199	-0.980063	-0.983734	0.011546	0.179258	0.027305	0.995947	0.085698
04540		-0.172130	0.078662	-0.981928	-0.984930	0.003305	0.172921	0.016847	0.996896	0.076907
04541		-0.163173	0.072690	-0.983916	-0.986548	-0.002077	0.163456	0.009838	0.997352	0.072051
04542		-0.151470	0.071982	-0.985837	-0.988428	-0.002823	0.151662	0.008133	0.997402	0.071576
04543		-0.137873	0.076137	-0.987519	-0.990353	0.003330	0.138525	0.013836	0.997092	0.074943
04544		-0.122627	0.082675	-0.989003	-0.992210	0.011838	0.124015	0.021960	0.996506	0.080579
04545		-0.105973	0.089970	-0.990290	-0.993923	0.020232	0.108199	0.029770	0.995739	0.087280
04546		-0.089251	0.098296	-0.991147	-0.995316	0.028311	0.092434	0.037146	0.994754	0.095309
04547		-0.072660	0.107196	-0.991579	-0.996368	0.036452	0.076952	0.044394	0.993569	0.104158
04548		-0.057142	0.114808	-0.991743	-0.997067	0.044100	0.062554	0.050917	0.992408	0.111951
04549		-0.042413	0.121200	-0.991722	-0.997361	0.053403	0.049180	0.058922	0.991191	0.118615
04550		-0.028866	0.127733	-0.991388	-0.997088	0.066351	0.037581	0.070580	0.989587	0.125446
04551		-0.016182	0.134447	-0.990789	-0.996346	0.080940	0.027257	0.083859	0.987610	0.132646
04552		-0.004548	0.141187	-0.989972	-0.995164	0.096505	0.018335	0.098126	0.985268	0.140065
04553		0.005818	0.147266	-0.989080	-0.993831	0.110395	0.010591	0.110749	0.982917	0.147000
04554		0.014543	0.152049	-0.988266	-0.992549	0.121779	0.004130	0.120978	0.980842	0.152687
04555		0.021532	0.155639	-0.987579	-0.991402	0.130847	-0.000994	0.129067	0.979109	0.157119
04556		0.027040	0.158155	-0.987044	-0.990388	0.138229	-0.004983	0.135650	0.977691	0.160373
04557		0.030896	0.159786	-0.986668	-0.989604	0.143608	-0.007732	0.140458	0.976650	0.162561
04558		0.033360	0.160401	-0.986488	-0.989190	0.146318	-0.009660	0.142791	0.976147	0.163548
04559		0.034713	0.160372	-0.986446	-0.989141	0.146560	-0.010981	0.142813	0.976115	0.163718
04560		0.035138	0.159855	-0.986515	-0.989456	0.144345	-0.011853	0.140503	0.976530	0.163242
04561		0.034721	0.158982	-0.986671	-0.990202	0.139084	-0.012434	0.135253	0.977436	0.162254
04562		0.033511	0.157933	-0.986881	-0.991288	0.131104	-0.012679	0.127381	0.978708	0.160951
04563		0.031314	0.156617	-0.987163	-0.992561	0.121128	-0.012268	0.117652	0.980204	0.159245
04564		0.028296	0.155133	-0.987488	-0.993909	0.109625	-0.011258	0.106507	0.981792	0.157290
04565		0.024610	0.153471	-0.987847	-0.995218	0.097198	-0.009693	0.094529	0.983361	0.155129
04566		0.020554	0.151702	-0.988213	-0.996398	0.084445	-0.007761	0.082273	0.984812	0.152891
04567		0.016488	0.149843	-0.988572	-0.997391	0.071962	-0.005728	0.070282	0.986088	0.150638
04568		0.012754	0.148234	-0.988870	-0.998142	0.060813	-0.003758	0.059579	0.987081	0.148735
04569		0.009463	0.146986	-0.989093	-0.998685	0.051231	-0.001942	0.050386	0.987811	0.147277
04570		0.006749	0.145957	-0.989268	-0.999065	0.043222	-0.000439	0.042694	0.988346	0.146112
04571		0.004394	0.145098	-0.989408	-0.999326	0.036688	0.000942	0.036436	0.988737	0.145161
04572		0.002282	0.144482	-0.989505	-0.999503	0.031442	0.002286	0.031442	0.989008	0.144482
04573		0.000270	0.144305	-0.989533	-0.999618	0.027372	0.003719	0.027623	0.989155	0.144257
04574		-0.001470	0.144467	-0.989509	-0.999692	0.024318	0.005036	0.024790	0.989211	0.144386
04575		-0.002912	0.144784	-0.989459	-0.999743	0.021835	0.006137	0.022493	0.989222	0.144683
04576		-0.004037	0.145266	-0.989384	-0.999778	0.019867	0.006996	0.020673	0.989193	0.145153
04577		-0.004694	0.145732	-0.989313	-0.999807	0.018193	0.007423	0.019080	0.989157	0.145618
04578		-0.004906	0.145985	-0.989275	-0.999834	0.016656	0.007416	0.017560	0.989147	0.145879
04579		-0.004798	0.146079	-0.989261	-0.999865	0.014854	0.007042	0.015724	0.989161	0.145988
04580		-0.004661	0.146163	-0.989250	-0.999893	0.013043	0.006638	0.013873	0.989175	0.146086
04581		-0.004663	0.146192	-0.989245	-0.999915	0.011385	0.006395	0.012197	0.989191	0.146127
04582		-0.004955	0.146230	-0.989238	-0.999930	0.009912	0.006474	0.010752	0.989201	0.146171
04583		-0.005601	0.146214	-0.989237	-0.999941	0.008389	0.006901	0.009308	0.989217	0.146158
04584		-0.006460	0.146130	-0.989244	-0.999950	0.006622	0.007508	0.007648	0.989243	0.146080
04585		-0.007584	0.145780	-0.989288	-0.999954	0.004648	0.008350	0.005816	0.989306	0.145738
04586		-0.008920	0.145197	-0.989363	-0.999953	0.002471	0.009378	0.003807	0.989400	0.145168
04587		-0.010578	0.144389	-0.989464	-0.999943	0.000053	0.010698	0.001597	0.989521	0.144380
04588		-0.012447	0.143413	-0.989585	-0.999922	-0.002522	0.012212	-0.000745	0.989660	0.143433
04589		-0.014500	0.142246	-0.989725	-0.999890	-0.005137	0.013910	-0.003106	0.989818	0.142305
04590		-0.016894	0.141043	-0.989859	-0.999842	-0.007840	0.015948	-0.005511	0.989972	0.141153
04591		-0.019499	0.139635	-0.990011	-0.999778	-0.010633	0.018192	-0.007987	0.990146	0.139811
04592		-0.022303	0.138277	-0.990142	-0.999694	-0.013722	0.020602	-0.010738	0.990299	0.138541
04593		-0.025319	0.136787	-0.990277	-0.999584	-0.017186	0.023183	-0.013848	0.990451	0.137165
04594		-0.028452	0.135279	-0.990399	-0.999444	-0.021097	0.025831	-0.017400	0.990583	0.135804
04595		-0.031718	0.133688	-0.990516	-0.999266	-0.025523	0.028554	-0.021463	0.990695	0.134400
04596		-0.034954	0.132010	-0.990632	-0.999052	-0.030335	0.031209	-0.025931	0.990784	0.132946
04597		-0.038346	0.130265	-0.990737	-0.998796	-0.035360	0.034008	-0.030602	0.990848	0.131464
04598		-0.041733	0.128497	-0.990831	-0.998499	-0.040564	0.036795	-0.035464	0.990880	0.129997
04599		-0.045102	0.126603	-0.990928	-0.998165	-0.045820	0.039578	-0.040394	0.990895	0.128438
04600		-0.048492	0.124820	-0.990994	-0.997797	-0.051024	0.042398	-0.045272	0.990867	0.127019
04601		-0.051931	0.123095	-0.991035	-0.997395	-0.056135	0.045292	-0.050056	0.990806	0.125690
04602		-0.055272	0.121437	-0.991059	-0.996968	-0.061158	0.048108	-0.054769	0.990713	0.124449
04603		-0.058392	0.119785	-0.991081	-0.996534	-0.065916	0.050746	-0.059249	0.990609	0.123219
04604		-0.061330	0.118276	-0.991085	-0.996111	-0.070184	0.053266	-0.063258	0.990497	0.122120
04605		-0.064077	0.116762	-0.991091	-0.995708	-0.073933	0.055665	-0.066774	0.990404	0.120998
04606		-0.066767	0.115386	-0.991074	-0.995319	-0.077265	0.058058	-0.069877	0.990311	0.120004
04607		-0.069342	0.114117	-0.991044	-0.994937	-0.080354	0.060362	-0.072746	0.990212	0.119112
04608		-0.071812	0.112849	-0.991014	-0.994578	-0.083028	0.062616	-0.075216	0.990137	0.118200
04609		-0.074230	0.111517	-0.990986	-0.994226	-0.085494	0.064852	-0.077491	0.990078	0.117219
04610		-0.076594	0.110289	-0.990944	-0.993872	-0.087890	0.067038	-0.079700	0.990006	0.116345
04611		-0.078763	0.109065	-0.990909	-0.993532	-0.090148	0.069049	-0.081797	0.989938	0.115460
04612		-0.080675	0.107997	-0.990872	-0.993225	-0.092131	0.070825	-0.083641	0.989873	0.114698
04613		-0.082215	0.107122	-0.990841	-0.992984	-0.093584	0.072276	-0.084985	0.989832	0.114064
04614		-0.083634	0.106558	-0.990783	-0.992788	-0.094612	0.073628	-0.085894	0.989795	0.113702
04615		-0.084715	0.106046	-0.990746	-0.992654	-0.095180	0.074691	-0.086379	0.989795	0.113330
04616		-0.085673	0.105829	-0.990687	-0.992552	-0.095497	0.075633	-0.086603	0.989788	0.113222
04617		-0.086431	0.105715	-0.990633	-0.992488	-0.095563	0.076395	-0.086592	0.989794	0.113181
04618		-0.087056	0.105659	-0.990584	-0.992456	-0.095369	0.077048	-0.086330	0.989819	0.113164
04619		-0.087465	0.105580	-0.990557	-0.992463	-0.094916	0.077516	-0.085835	0.989871	0.113086
04620		-0.087696	0.105552	-0.990539	-0.992511	-0.094139	0.077840	-0.085032	0.989948	0.113017
04621		-0.087719	0.105585	-0.990534	-0.992591	-0.093193	0.077967	-0.084079	0.990034	0.112977
04622		-0.087668	0.105718	-0.990524	-0.992695	-0.092015	0.078040	-0.082893	0.990130	0.113012
04623		-0.087507	0.105796	-0.990530	-0.992810	-0.090794	0.078011	-0.081681	0.990234	0.112980
04624		-0.087330	0.106013	-0.990522	-0.992930	-0.089515	0.077962	-0.080402	0.990327	0.113081
04625		-0.087023	0.106389	-0.990509	-0.993060	-0.088220	0.077772	-0.079109	0.990403	0.113328
04626		-0.086738	0.106852	-0.990484	-0.993193	-0.086862	0.077604	-0.077743	0.990474	0.113659
04627		-0.086264	0.107414	-0.990465	-0.993330	-0.085629	0.077227	-0.076517	0.990520	0.114084
04628		-0.085860	0.107910	-0.990446	-0.993454	-0.084454	0.076919	-0.075347	0.990567	0.114454
04629		-0.085376	0.108413	-0.990433	-0.993576	-0.083371	0.076521	-0.074278	0.990604	0.114835
04630		-0.084868	0.108868	-0.990427	-0.993691	-0.082385	0.076091	-0.073313	0.990636	0.115173
04631		-0.084360	0.109257	-0.990427	-0.993800	-0.081470	0.075660	-0.072424	0.990669	0.115452
04632		-0.083790	0.109622	-0.990435	-0.993910	-0.080581	0.075165	-0.071570	0.990702	0.115707
04633		-0.083120	0.110013	-0.990448	-0.994022	-0.079754	0.074562	-0.070789	0.990725	0.115984
04634		-0.082415	0.110400	-0.990464	-0.994138	-0.078895	0.073927	-0.069981	0.990751	0.116255
04635		-0.081590	0.110724	-0.990496	-0.994269	-0.077927	0.073189	-0.069083	0.990791	0.116448
04636		-0.080663	0.111168	-0.990523	-0.994403	-0.077007	0.072336	-0.068236	0.990814	0.116757
04637		-0.079604	0.111581	-0.990562	-0.994543	-0.076121	0.071349	-0.067441	0.990836	0.117031
04638		-0.078665	0.112020	-0.990587	-0.994673	-0.075218	0.070483	-0.066614	0.990855	0.117340
04639		-0.077650	0.112380	-0.990627	-0.994809	-0.074274	0.069552	-0.065762	0.990886	0.117564
04640		-0.076645	0.112793	-0.990658	-0.994946	-0.073288	0.068633	-0.064862	0.990912	0.117840
04641		-0.075507	0.113189	-0.990700	-0.995092	-0.072282	0.067583	-0.063960	0.990941	0.118091
04642		-0.074429	0.113633	-0.990731	-0.995230	-0.071302	0.066589	-0.063074	0.990961	0.118398
04643		-0.073318	0.114128	-0.990757	-0.995362	-0.070420	0.065547	-0.062288	0.990967	0.118761
04644		-0.072084	0.114626	-0.990790	-0.995500	-0.069535	0.064382	-0.061515	0.990972	0.119122
04645		-0.070775	0.115189	-0.990819	-0.995636	-0.068726	0.063129	-0.060823	0.990963	0.119551
04646		-0.069428	0.115720	-0.990852	-0.995782	-0.067769	0.061859	-0.059991	0.990967	0.119937
04647		-0.068128	0.116247	-0.990881	-0.995928	-0.066702	0.060650	-0.059043	0.990978	0.120318
04648		-0.066769	0.116707	-0.990919	-0.996077	-0.065602	0.059390	-0.058076	0.990997	0.120629
04649		-0.065321	0.117087	-0.990971	-0.996235	-0.064387	0.058060	-0.057007	0.991032	0.120852
04650		-0.063889	0.117444	-0.991022	-0.996396	-0.063026	0.056766	-0.055793	0.991078	0.121047
04651		-0.062446	0.117761	-0.991077	-0.996564	-0.061491	0.055485	-0.054408	0.991136	0.121196
04652		-0.061024	0.118181	-0.991115	-0.996737	-0.059777	0.054242	-0.052835	0.991191	0.121443
04653		-0.059570	0.118587	-0.991155	-0.996911	-0.057985	0.052978	-0.051190	0.991249	0.121675
04654		-0.058151	0.119069	-0.991182	-0.997077	-0.056223	0.051743	-0.049566	0.991293	0.121991
04655		-0.056775	0.119552	-0.991203	-0.997235	-0.054464	0.050551	-0.047941	0.991333	0.122314
04656		-0.055370	0.120146	-0.991211	-0.997389	-0.052753	0.049321	-0.046364	0.991354	0.122753
04657		-0.054002	0.120744	-0.991214	-0.997529	-0.051204	0.048109	-0.044946	0.991362	0.123210
04658		-0.052689	0.121285	-0.991218	-0.997657	-0.049781	0.046940	-0.043651	0.991369	0.123623
04659		-0.051414	0.121758	-0.991227	-0.997763	-0.048716	0.045769	-0.042716	0.991364	0.123990
04660		-0.050292	0.122089	-0.991244	-0.997851	-0.047882	0.044730	-0.042002	0.991364	0.124234
04661		-0.049277	0.122252	-0.991275	-0.997916	-0.047430	0.043758	-0.041667	0.991365	0.124334
04662		-0.048430	0.122301	-0.991311	-0.997958	-0.047302	0.042919	-0.041642	0.991365	0.124342
04663		-0.047693	0.122319	-0.991344	-0.997978	-0.047579	0.042141	-0.042013	0.991350	0.124341
04664		-0.047137	0.122223	-0.991383	-0.997979	-0.048098	0.041521	-0.042609	0.991337	0.124243
04665		-0.046770	0.121956	-0.991433	-0.997968	-0.048691	0.041089	-0.043263	0.991340	0.123985
04666		-0.046590	0.121700	-0.991473	-0.997945	-0.049381	0.040832	-0.043991	0.991338	0.123750
04667		-0.046567	0.121379	-0.991513	-0.997916	-0.050027	0.040743	-0.044657	0.991345	0.123456
04668		-0.046697	0.121059	-0.991546	-0.997885	-0.050592	0.040819	-0.045223	0.991355	0.123165
04669		-0.046958	0.120701	-0.991578	-0.997843	-0.051255	0.041015	-0.045873	0.991365	0.122847
04670		-0.047298	0.120270	-0.991614	-0.997796	-0.051950	0.041292	-0.046549	0.991381	0.122463
04671		-0.047657	0.119728	-0.991662	-0.997743	-0.052718	0.041585	-0.047300	0.991406	0.121970
04672		-0.048131	0.119158	-0.991708	-0.997686	-0.053479	0.041995	-0.048032	0.991434	0.121456
04673		-0.048662	0.118509	-0.991760	-0.997632	-0.054093	0.042487	-0.048612	0.991478	0.120861
04674		-0.049244	0.117947	-0.991798	-0.997580	-0.054601	0.043038	-0.049077	0.991518	0.120350
04675		-0.049872	0.117354	-0.991837	-0.997534	-0.054953	0.043656	-0.049381	0.991569	0.119806
04676		-0.050536	0.116814	-0.991867	-0.997482	-0.055385	0.044300	-0.049760	0.991608	0.119318
04677		-0.051247	0.116231	-0.991899	-0.997425	-0.055860	0.044987	-0.050179	0.991650	0.118795
04678		-0.051837	0.115697	-0.991931	-0.997368	-0.056425	0.045540	-0.050701	0.991681	0.118317
04679		-0.052369	0.115154	-0.991966	-0.997315	-0.056952	0.046040	-0.051193	0.991714	0.117827
04680		-0.052824	0.114666	-0.991999	-0.997265	-0.057471	0.046462	-0.051684	0.991740	0.117389
04681		-0.053285	0.114163	-0.992032	-0.997215	-0.058006	0.046888	-0.052191	0.991767	0.116936
04682		-0.053735	0.113702	-0.992061	-0.997158	-0.058653	0.047289	-0.052810	0.991782	0.116531
04683		-0.054245	0.113234	-0.992086	-0.997091	-0.059422	0.047737	-0.053546	0.991790	0.116128
04684		-0.054870	0.112698	-0.992113	-0.997013	-0.060267	0.048295	-0.054349	0.991800	0.115668
04685		-0.055512	0.112137	-0.992141	-0.996922	-0.061316	0.048849	-0.055357	0.991799	0.115196
04686		-0.056249	0.111557	-0.992165	-0.996819	-0.062464	0.049490	-0.056453	0.991793	0.114715
04687		-0.057017	0.111020	-0.992181	-0.996720	-0.063501	0.050173	-0.057435	0.991787	0.114276
04688		-0.057750	0.110475	-0.992200	-0.996623	-0.064492	0.050827	-0.058374	0.991784	0.113826
04689		-0.058434	0.109864	-0.992227	-0.996535	-0.065350	0.051452	-0.059189	0.991796	0.113302
04690		-0.059184	0.109340	-0.992241	-0.996446	-0.066158	0.052145	-0.059943	0.991800	0.112867
04691		-0.059887	0.108765	-0.992262	-0.996361	-0.066917	0.052799	-0.060656	0.991813	0.112376
04692		-0.060685	0.108207	-0.992274	-0.996272	-0.067636	0.053553	-0.061319	0.991825	0.111908
04693		-0.061517	0.107637	-0.992285	-0.996176	-0.068417	0.054336	-0.062040	0.991833	0.111434
04694		-0.062353	0.107077	-0.992294	-0.996075	-0.069263	0.055116	-0.062827	0.991835	0.110975
04695		-0.063281	0.106367	-0.992311	-0.995964	-0.070151	0.055994	-0.063656	0.991849	0.110377
04696		-0.064217	0.105717	-0.992321	-0.995841	-0.071185	0.056861	-0.064627	0.991845	0.109849
04697		-0.065195	0.105080	-0.992324	-0.995714	-0.072225	0.057770	-0.065601	0.991838	0.109338
04698		-0.066145	0.104478	-0.992325	-0.995591	-0.073204	0.058655	-0.066514	0.991829	0.108859
04699		-0.067063	0.103879	-0.992326	-0.995478	-0.074030	0.059526	-0.067278	0.991831	0.108374
04700		-0.067936	0.103377	-0.992319	-0.995380	-0.074666	0.060367	-0.067852	0.991836	0.107972
04701		-0.068746	0.102797	-0.992324	-0.995294	-0.075156	0.061167	-0.068291	0.991859	0.107480
04702		-0.069531	0.102294	-0.992321	-0.995219	-0.075502	0.061951	-0.068585	0.991885	0.107055
04703		-0.070302	0.101800	-0.992318	-0.995154	-0.075711	0.062736	-0.068743	0.991920	0.106630
04704		-0.071011	0.101413	-0.992307	-0.995093	-0.075925	0.063451	-0.068906	0.991943	0.106307
04705		-0.071668	0.101038	-0.992298	-0.995029	-0.076213	0.064105	-0.069149	0.991959	0.105997
04706		-0.072263	0.100633	-0.992296	-0.994968	-0.076508	0.064698	-0.069408	0.991978	0.105655
04707		-0.072800	0.100226	-0.992298	-0.994902	-0.076916	0.065222	-0.069786	0.991987	0.105314
04708		-0.073304	0.099856	-0.992298	-0.994838	-0.077323	0.065710	-0.070166	0.991993	0.105009
04709		-0.073736	0.099507	-0.992301	-0.994773	-0.077817	0.066116	-0.070639	0.991989	0.104725
04710		-0.074105	0.099206	-0.992304	-0.994714	-0.078272	0.066459	-0.071076	0.991984	0.104482
04711		-0.074419	0.098903	-0.992310	-0.994662	-0.078680	0.066754	-0.071473	0.991982	0.104230
04712		-0.074699	0.098622	-0.992317	-0.994620	-0.078988	0.067022	-0.071772	0.991985	0.103992
04713		-0.074909	0.098402	-0.992323	-0.994591	-0.079183	0.067228	-0.071960	0.991992	0.103801
04714		-0.075037	0.098236	-0.992330	-0.994578	-0.079220	0.067364	-0.071995	0.992005	0.103648
04715		-0.075114	0.098099	-0.992338	-0.994580	-0.079121	0.067462	-0.071897	0.992026	0.103510
04716		-0.075085	0.098027	-0.992347	-0.994590	-0.079000	0.067451	-0.071784	0.992043	0.103428
04717		-0.074993	0.097946	-0.992362	-0.994615	-0.078742	0.067391	-0.071540	0.992072	0.103324
04718		-0.074896	0.097933	-0.992371	-0.994646	-0.078400	0.067331	-0.071208	0.992100	0.103281
04719		-0.074651	0.097989	-0.992384	-0.994688	-0.078050	0.067118	-0.070879	0.992122	0.103295
04720		-0.074437	0.098068	-0.992392	-0.994733	-0.077625	0.066942	-0.070470	0.992148	0.103330
04721		-0.074150	0.098200	-0.992400	-0.994781	-0.077221	0.066687	-0.070085	0.992166	0.103414
04722		-0.073831	0.098323	-0.992412	-0.994837	-0.076746	0.066408	-0.069634	0.992191	0.103482
04723		-0.073477	0.098515	-0.992419	-0.994899	-0.076202	0.066097	-0.069113	0.992214	0.103612
04724		-0.072999	0.098737	-0.992432	-0.994977	-0.075553	0.065669	-0.068497	0.992241	0.103757
04725		-0.072475	0.099037	-0.992441	-0.995069	-0.074743	0.065208	-0.067720	0.992273	0.103965
04726		-0.071910	0.099391	-0.992447	-0.995160	-0.073970	0.064699	-0.066981	0.992295	0.104229
04727		-0.071302	0.099768	-0.992453	-0.995252	-0.073197	0.064145	-0.066245	0.992315	0.104513
04728		-0.070700	0.100092	-0.992463	-0.995343	-0.072437	0.063600	-0.065525	0.992338	0.104747
04729		-0.070141	0.100390	-0.992473	-0.995425	-0.071752	0.063092	-0.064878	0.992358	0.104963
04730		-0.069608	0.100609	-0.992488	-0.995499	-0.071144	0.062607	-0.064311	0.992379	0.105108
04731		-0.069117	0.100813	-0.992502	-0.995563	-0.070653	0.062153	-0.063858	0.992393	0.105249
04732		-0.068636	0.100981	-0.992518	-0.995625	-0.070154	0.061713	-0.063398	0.992412	0.105355
04733		-0.068162	0.101128	-0.992536	-0.995683	-0.069714	0.061275	-0.062997	0.992428	0.105443
04734		-0.067705	0.101276	-0.992552	-0.995741	-0.069255	0.060856	-0.062576	0.992445	0.105534
04735		-0.067255	0.101471	-0.992563	-0.995796	-0.068825	0.060438	-0.062180	0.992455	0.105673
04736		-0.066830	0.101635	-0.992574	-0.995853	-0.068348	0.060053	-0.061737	0.992471	0.105781
04737		-0.066365	0.101765	-0.992592	-0.995912	-0.067842	0.059631	-0.061271	0.992493	0.105851
04738		-0.065898	0.101910	-0.992609	-0.995974	-0.067298	0.059212	-0.060766	0.992515	0.105934
04739		-0.065392	0.102033	-0.992629	-0.996038	-0.066757	0.058755	-0.060271	0.992539	0.105994
04740		-0.064880	0.102164	-0.992650	-0.996103	-0.066183	0.058294	-0.059741	0.992563	0.106060
04741		-0.064285	0.102230	-0.992681	-0.996176	-0.065546	0.057762	-0.059161	0.992599	0.106052
04742		-0.063733	0.102362	-0.992703	-0.996247	-0.064894	0.057270	-0.058558	0.992628	0.106114
04743		-0.063144	0.102453	-0.992732	-0.996326	-0.064135	0.056753	-0.057854	0.992668	0.106126
04744		-0.062576	0.102639	-0.992748	-0.996400	-0.063437	0.056247	-0.057203	0.992694	0.106239
04745		-0.062031	0.102825	-0.992763	-0.996469	-0.062765	0.055761	-0.056577	0.992717	0.106356
04746		-0.061427	0.103022	-0.992781	-0.996538	-0.062161	0.055209	-0.056025	0.992735	0.106483
04747		-0.060798	0.103138	-0.992807	-0.996603	-0.061628	0.054628	-0.055551	0.992756	0.106535
04748		-0.060105	0.103246	-0.992838	-0.996665	-0.061196	0.053973	-0.055185	0.992772	0.106580
04749		-0.059444	0.103357	-0.992866	-0.996722	-0.060822	0.053343	-0.054875	0.992783	0.106634
04750		-0.058798	0.103452	-0.992895	-0.996778	-0.060444	0.052730	-0.054560	0.992796	0.106672
04751		-0.058219	0.103474	-0.992927	-0.996833	-0.059988	0.052197	-0.054163	0.992822	0.106639
04752		-0.057686	0.103534	-0.992952	-0.996881	-0.059629	0.051697	-0.053856	0.992837	0.106651
04753		-0.057245	0.103536	-0.992977	-0.996922	-0.059296	0.051290	-0.053569	0.992857	0.106612
04754		-0.056844	0.103529	-0.993001	-0.996956	-0.059043	0.050914	-0.053359	0.992872	0.106570
04755		-0.056507	0.103540	-0.993019	-0.996983	-0.058857	0.050596	-0.053208	0.992882	0.106554
04756		-0.056146	0.103480	-0.993046	-0.997008	-0.058732	0.050250	-0.053123	0.992896	0.106468
04757		-0.055893	0.103406	-0.993068	-0.997026	-0.058632	0.050010	-0.053054	0.992910	0.106375
04758		-0.055651	0.103301	-0.993092	-0.997042	-0.058554	0.049782	-0.053007	0.992925	0.106254
04759		-0.055423	0.103210	-0.993114	-0.997059	-0.058445	0.049570	-0.052926	0.992941	0.106146
04760		-0.055222	0.103134	-0.993133	-0.997079	-0.058251	0.049392	-0.052757	0.992960	0.106050
04761		-0.055010	0.103078	-0.993151	-0.997101	-0.058041	0.049204	-0.052572	0.992978	0.105972
04762		-0.054825	0.103046	-0.993165	-0.997122	-0.057809	0.049046	-0.052360	0.992995	0.105918
04763		-0.054675	0.103071	-0.993170	-0.997139	-0.057623	0.048913	-0.052188	0.993003	0.105927
04764		-0.054489	0.103034	-0.993184	-0.997152	-0.057559	0.048736	-0.052145	0.993011	0.105877
04765		-0.054291	0.103007	-0.993198	-0.997162	-0.057540	0.048540	-0.052149	0.993015	0.105838
04766		-0.054112	0.102933	-0.993215	-0.997172	-0.057530	0.048365	-0.052162	0.993023	0.105754
04767		-0.053943	0.102877	-0.993230	-0.997171	-0.057698	0.048181	-0.052351	0.993019	0.105698
04768		-0.053822	0.102788	-0.993246	-0.997169	-0.057842	0.048049	-0.052513	0.993020	0.105610
04769		-0.053824	0.102662	-0.993259	-0.997161	-0.057979	0.048042	-0.052656	0.993025	0.105491
04770		-0.053850	0.102595	-0.993264	-0.997148	-0.058206	0.048049	-0.052885	0.993019	0.105437
04771		-0.053912	0.102546	-0.993266	-0.997129	-0.058505	0.048082	-0.053180	0.993006	0.105406
04772		-0.054010	0.102514	-0.993264	-0.997103	-0.058883	0.048142	-0.053551	0.992987	0.105398
04773		-0.054141	0.102472	-0.993261	-0.997079	-0.059212	0.048240	-0.053870	0.992972	0.105378
04774		-0.054289	0.102375	-0.993263	-0.997051	-0.059593	0.048354	-0.054242	0.992959	0.105309
04775		-0.054467	0.102285	-0.993263	-0.997021	-0.059971	0.048498	-0.054607	0.992946	0.105247
04776		-0.054597	0.102151	-0.993269	-0.996995	-0.060326	0.048598	-0.054956	0.992938	0.105138
04777		-0.054747	0.102018	-0.993275	-0.996968	-0.060681	0.048718	-0.055303	0.992930	0.105031
04778		-0.054940	0.101894	-0.993277	-0.996939	-0.061011	0.048884	-0.055620	0.992923	0.104934
04779		-0.055154	0.101765	-0.993278	-0.996905	-0.061422	0.049063	-0.056016	0.992910	0.104838
04780		-0.055427	0.101664	-0.993274	-0.996868	-0.061831	0.049299	-0.056403	0.992895	0.104773
04781		-0.055717	0.101516	-0.993272	-0.996829	-0.062255	0.049554	-0.056806	0.992884	0.104663
04782		-0.055951	0.101508	-0.993260	-0.996797	-0.062618	0.049750	-0.057146	0.992862	0.104687
04783		-0.056198	0.101461	-0.993251	-0.996770	-0.062861	0.049976	-0.057366	0.992852	0.104665
04784		-0.056443	0.101461	-0.993237	-0.996742	-0.063140	0.050192	-0.057620	0.992834	0.104694
04785		-0.056685	0.101442	-0.993225	-0.996715	-0.063393	0.050410	-0.057850	0.992820	0.104702
04786		-0.056888	0.101423	-0.993216	-0.996692	-0.063606	0.050592	-0.058043	0.992808	0.104706
04787		-0.057045	0.101362	-0.993213	-0.996678	-0.063702	0.050743	-0.058127	0.992808	0.104660
04788		-0.057231	0.101377	-0.993201	-0.996661	-0.063828	0.050915	-0.058232	0.992798	0.104692
04789		-0.057415	0.101396	-0.993188	-0.996641	-0.064011	0.051080	-0.058396	0.992785	0.104731
04790		-0.057588	0.101408	-0.993177	-0.996624	-0.064154	0.051238	-0.058521	0.992774	0.104760
04791		-0.057810	0.101402	-0.993164	-0.996604	-0.064289	0.051446	-0.058633	0.992766	0.104774
04792		-0.057996	0.101396	-0.993154	-0.996593	-0.064323	0.051630	-0.058647	0.992765	0.104781
04793		-0.058186	0.101434	-0.993139	-0.996577	-0.064422	0.051808	-0.058725	0.992754	0.104835
04794		-0.058349	0.101447	-0.993128	-0.996569	-0.064416	0.051971	-0.058701	0.992753	0.104857
04795		-0.058485	0.101393	-0.993126	-0.996569	-0.064291	0.052124	-0.058564	0.992767	0.104806
04796		-0.058699	0.101373	-0.993115	-0.996569	-0.064095	0.052361	-0.058346	0.992782	0.104787
04797		-0.058860	0.101393	-0.993104	-0.996578	-0.063799	0.052552	-0.058030	0.992799	0.104801
04798		-0.059051	0.101442	-0.993087	-0.996588	-0.063462	0.052777	-0.057669	0.992815	0.104844
04799		-0.059234	0.101527	-0.993068	-0.996600	-0.063089	0.052995	-0.057271	0.992830	0.104919
04800		-0.059353	0.101656	-0.993048	-0.996612	-0.062774	0.053140	-0.056936	0.992837	0.105037
04801		-0.059434	0.101810	-0.993027	-0.996625	-0.062489	0.053242	-0.056632	0.992839	0.105180
04802		-0.059491	0.101903	-0.993014	-0.996637	-0.062224	0.053322	-0.056355	0.992846	0.105262
04803		-0.059599	0.101920	-0.993006	-0.996648	-0.061930	0.053461	-0.056048	0.992863	0.105269
04804		-0.059620	0.101911	-0.993005	-0.996663	-0.061636	0.053514	-0.055752	0.992882	0.105245
04805		-0.059710	0.101932	-0.992998	-0.996670	-0.061421	0.053626	-0.055525	0.992893	0.105260
04806		-0.059718	0.101920	-0.992999	-0.996682	-0.061197	0.053658	-0.055300	0.992909	0.105236
04807		-0.059705	0.101901	-0.993001	-0.996695	-0.060976	0.053670	-0.055081	0.992924	0.105205
04808		-0.059653	0.101991	-0.992995	-0.996708	-0.060797	0.053631	-0.054902	0.992926	0.105282
04809		-0.059559	0.102062	-0.992994	-0.996724	-0.060604	0.053554	-0.054714	0.992930	0.105337
04810		-0.059451	0.102156	-0.992990	-0.996741	-0.060403	0.053461	-0.054518	0.992933	0.105414
04811		-0.059280	0.102217	-0.992994	-0.996762	-0.060203	0.053307	-0.054332	0.992939	0.105455
04812		-0.059109	0.102301	-0.992996	-0.996781	-0.060026	0.053150	-0.054168	0.992941	0.105519
04813		-0.058895	0.102359	-0.993003	-0.996802	-0.059847	0.052951	-0.054008	0.992946	0.105556
04814		-0.058712	0.102439	-0.993005	-0.996821	-0.059687	0.052780	-0.053863	0.992947	0.105618
04815		-0.058569	0.102489	-0.993008	-0.996837	-0.059522	0.052651	-0.053710	0.992952	0.105651
