// Start Time: Unknown
// Update Rate: 100.0Hz
// Filter Profile: human (46.1)
// Option Flags: AHS Disabled ICC Disabled 
// Firmware Version: 4.0.2
PacketCounter	SampleTimeFine	Mat[1][1]	Mat[2][1]	Mat[3][1]	Mat[1][2]	Mat[2][2]	Mat[3][2]	Mat[1][3]	Mat[2][3]	Mat[3][3]
03740		0.113557	-0.052902	-0.992122	0.600986	0.798830	0.026193	0.791151	-0.599226	0.122506
03741		0.113479	-0.052904	-0.992131	0.601271	0.798616	0.026188	0.790946	-0.599512	0.122436
03742		0.113517	-0.052919	-0.992126	0.601209	0.798663	0.026189	0.790988	-0.599448	0.122477
03743		0.113610	-0.052927	-0.992115	0.600946	0.798860	0.026198	0.791174	-0.599184	0.122565
03744		0.113697	-0.053005	-0.992101	0.600824	0.798953	0.026170	0.791255	-0.599053	0.122685
03745		0.113735	-0.053146	-0.992089	0.600984	0.798835	0.026105	0.791128	-0.599198	0.122795
03746		0.113785	-0.053215	-0.992079	0.600898	0.798901	0.026066	0.791186	-0.599104	0.122880
03747		0.113801	-0.053274	-0.992074	0.600932	0.798876	0.026033	0.791157	-0.599132	0.122927
03748		0.113811	-0.053364	-0.992068	0.600853	0.798938	0.025955	0.791216	-0.599041	0.122992
03749		0.113833	-0.053361	-0.992066	0.600507	0.799200	0.025917	0.791476	-0.598692	0.123019
03750		0.113832	-0.053413	-0.992063	0.600448	0.799245	0.025865	0.791520	-0.598627	0.123051
03751		0.113835	-0.053547	-0.992056	0.600617	0.799121	0.025785	0.791391	-0.598781	0.123129
03752		0.113835	-0.053609	-0.992052	0.600635	0.799109	0.025739	0.791378	-0.598792	0.123166
03753		0.113874	-0.053658	-0.992045	0.600742	0.799028	0.025740	0.791291	-0.598895	0.123223
03754		0.113873	-0.053703	-0.992043	0.600763	0.799014	0.025705	0.791275	-0.598910	0.123249
03755		0.113767	-0.053820	-0.992049	0.601175	0.798707	0.025611	0.790978	-0.599308	0.123222
03756		0.113752	-0.053803	-0.992051	0.601143	0.798731	0.025611	0.791004	-0.599278	0.123200
03757		0.113767	-0.053838	-0.992048	0.601107	0.798759	0.025585	0.791030	-0.599237	0.123235
03758		0.113705	-0.053852	-0.992054	0.601094	0.798770	0.025535	0.791048	-0.599221	0.123194
03759		0.113555	-0.053978	-0.992064	0.601694	0.798322	0.025436	0.790613	-0.599807	0.123131
03760		0.113507	-0.054052	-0.992066	0.601774	0.798264	0.025360	0.790559	-0.599878	0.123136
03761		0.113429	-0.054205	-0.992066	0.602228	0.797925	0.025259	0.790225	-0.600315	0.123152
03762		0.113418	-0.054295	-0.992063	0.602193	0.797953	0.025175	0.790253	-0.600269	0.123198
03763		0.113331	-0.054471	-0.992063	0.602419	0.797788	0.025014	0.790093	-0.600473	0.123228
03764		0.113306	-0.054582	-0.992060	0.602216	0.797945	0.024879	0.790251	-0.600254	0.123282
03765		0.113234	-0.054694	-0.992062	0.602265	0.797913	0.024752	0.790225	-0.600287	0.123292
03766		0.113266	-0.054857	-0.992049	0.602184	0.797977	0.024628	0.790282	-0.600186	0.123418
03767		0.113233	-0.054847	-0.992053	0.602041	0.798086	0.024594	0.790395	-0.600042	0.123390
03768		0.113195	-0.054828	-0.992059	0.601860	0.798224	0.024557	0.790539	-0.599860	0.123354
03769		0.113166	-0.054873	-0.992060	0.601972	0.798140	0.024521	0.790457	-0.599967	0.123354
03770		0.113179	-0.054871	-0.992058	0.601764	0.798298	0.024498	0.790614	-0.599757	0.123370
03771		0.113222	-0.054907	-0.992051	0.601684	0.798359	0.024483	0.790668	-0.599674	0.123429
03772		0.113280	-0.054914	-0.992044	0.601503	0.798495	0.024484	0.790798	-0.599492	0.123485
03773		0.113472	-0.054949	-0.992021	0.601320	0.798631	0.024545	0.790910	-0.599307	0.123664
03774		0.113614	-0.054937	-0.992005	0.601239	0.798690	0.024629	0.790951	-0.599230	0.123772
03775		0.113685	-0.054912	-0.991998	0.601118	0.798779	0.024673	0.791033	-0.599113	0.123818
03776		0.113763	-0.054914	-0.991989	0.600972	0.798889	0.024697	0.791133	-0.598967	0.123886
03777		0.113869	-0.054849	-0.991981	0.600591	0.799173	0.024753	0.791407	-0.598593	0.123943
03778		0.113903	-0.054846	-0.991977	0.600377	0.799334	0.024744	0.791564	-0.598379	0.123975
03779		0.113924	-0.054837	-0.991975	0.600092	0.799549	0.024718	0.791777	-0.598092	0.123995
03780		0.113901	-0.054830	-0.991978	0.599879	0.799710	0.024677	0.791942	-0.597877	0.123979
03781		0.113908	-0.054851	-0.991976	0.599599	0.799922	0.024620	0.792153	-0.597592	0.124006
03782		0.113861	-0.054889	-0.991979	0.599398	0.800075	0.024530	0.792311	-0.597384	0.123998
03783		0.113835	-0.054932	-0.991980	0.599258	0.800182	0.024457	0.792421	-0.597236	0.124007
03784		0.113769	-0.054979	-0.991985	0.599178	0.800245	0.024367	0.792491	-0.597148	0.123985
03785		0.113628	-0.055058	-0.991997	0.599414	0.800072	0.024254	0.792333	-0.597373	0.123914
03786		0.113533	-0.055095	-0.992005	0.599433	0.800060	0.024169	0.792332	-0.597385	0.123859
03787		0.113384	-0.055104	-0.992022	0.599654	0.799896	0.024106	0.792186	-0.597603	0.123739
03788		0.113311	-0.055074	-0.992032	0.599743	0.799830	0.024100	0.792129	-0.597695	0.123659
03789		0.113225	-0.055038	-0.992044	0.599830	0.799765	0.024090	0.792076	-0.597785	0.123567
03790		0.113205	-0.055040	-0.992046	0.599889	0.799721	0.024085	0.792034	-0.597844	0.123551
03791		0.113131	-0.055013	-0.992056	0.599908	0.799707	0.024065	0.792030	-0.597865	0.123475
03792		0.113043	-0.054985	-0.992068	0.599871	0.799736	0.024029	0.792071	-0.597829	0.123388
03793		0.112937	-0.054998	-0.992079	0.600028	0.799620	0.023978	0.791967	-0.597983	0.123307
03794		0.112856	-0.054975	-0.992089	0.599974	0.799661	0.023939	0.792019	-0.597930	0.123230
03795		0.112912	-0.054889	-0.992088	0.599793	0.799795	0.024014	0.792149	-0.597758	0.123228
03796		0.112854	-0.054876	-0.992095	0.599772	0.799812	0.023986	0.792173	-0.597737	0.123175
03797		0.112797	-0.054858	-0.992103	0.599973	0.799660	0.023997	0.792029	-0.597942	0.123112
03798		0.112800	-0.054818	-0.992104	0.599981	0.799654	0.024032	0.792022	-0.597954	0.123091
03799		0.112793	-0.054730	-0.992110	0.599874	0.799732	0.024082	0.792104	-0.597857	0.123035
03800		0.112726	-0.054692	-0.992120	0.599911	0.799705	0.024077	0.792086	-0.597897	0.122958
03801		0.112632	-0.054629	-0.992134	0.600136	0.799534	0.024107	0.791928	-0.598131	0.122838
03802		0.112580	-0.054595	-0.992142	0.600221	0.799471	0.024115	0.791872	-0.598219	0.122774
03803		0.112491	-0.054561	-0.992154	0.600485	0.799272	0.024129	0.791684	-0.598488	0.122674
03804		0.112437	-0.054512	-0.992162	0.600572	0.799206	0.024150	0.791625	-0.598581	0.122599
03805		0.112457	-0.054464	-0.992163	0.600644	0.799150	0.024212	0.791568	-0.598659	0.122583
03806		0.112441	-0.054443	-0.992166	0.600653	0.799143	0.024220	0.791563	-0.598671	0.122558
03807		0.112450	-0.054461	-0.992164	0.600736	0.799080	0.024225	0.791499	-0.598753	0.122573
03808		0.112444	-0.054468	-0.992164	0.600649	0.799147	0.024201	0.791567	-0.598663	0.122576
03809		0.112427	-0.054437	-0.992168	0.600564	0.799210	0.024203	0.791633	-0.598581	0.122546
03810		0.112448	-0.054435	-0.992165	0.600420	0.799319	0.024195	0.791740	-0.598436	0.122566
03811		0.112426	-0.054445	-0.992167	0.600470	0.799282	0.024181	0.791705	-0.598485	0.122552
03812		0.112369	-0.054445	-0.992174	0.600291	0.799418	0.024118	0.791848	-0.598304	0.122512
03813		0.112402	-0.054451	-0.992170	0.600233	0.799461	0.024124	0.791888	-0.598245	0.122544
03814		0.112405	-0.054481	-0.992168	0.600128	0.799541	0.024086	0.791967	-0.598135	0.122568
03815		0.112446	-0.054472	-0.992164	0.599996	0.799640	0.024098	0.792061	-0.598004	0.122599
03816		0.112505	-0.054488	-0.992156	0.599893	0.799717	0.024105	0.792131	-0.597899	0.122659
03817		0.112643	-0.054446	-0.992143	0.599607	0.799929	0.024179	0.792328	-0.597619	0.122752
03818		0.112706	-0.054432	-0.992136	0.599532	0.799984	0.024217	0.792375	-0.597547	0.122797
03819		0.112784	-0.054369	-0.992131	0.599260	0.800186	0.024272	0.792570	-0.597282	0.122829
03820		0.112791	-0.054365	-0.992130	0.599223	0.800214	0.024274	0.792597	-0.597245	0.122834
03821		0.112739	-0.054367	-0.992136	0.599436	0.800055	0.024275	0.792443	-0.597459	0.122787
03822		0.112765	-0.054396	-0.992132	0.599481	0.800021	0.024273	0.792406	-0.597501	0.122824
03823		0.112709	-0.054414	-0.992137	0.599673	0.799877	0.024255	0.792268	-0.597692	0.122784
03824		0.112704	-0.054417	-0.992137	0.599820	0.799767	0.024272	0.792158	-0.597839	0.122778
03825		0.112685	-0.054431	-0.992139	0.600170	0.799503	0.024304	0.791895	-0.598191	0.122760
03826		0.112701	-0.054428	-0.992137	0.600352	0.799365	0.024343	0.791755	-0.598375	0.122765
03827		0.112776	-0.054359	-0.992132	0.600489	0.799259	0.024467	0.791641	-0.598523	0.122779
03828		0.112786	-0.054367	-0.992131	0.600683	0.799112	0.024496	0.791492	-0.598719	0.122786
03829		0.112730	-0.054371	-0.992137	0.600975	0.798892	0.024504	0.791278	-0.599012	0.122734
03830		0.112743	-0.054408	-0.992133	0.601204	0.798720	0.024518	0.791102	-0.599239	0.122760
03831		0.112670	-0.054398	-0.992142	0.601677	0.798362	0.024555	0.790753	-0.599716	0.122682
03832		0.112635	-0.054386	-0.992147	0.601807	0.798264	0.024563	0.790659	-0.599848	0.122642
03833		0.112622	-0.054373	-0.992149	0.601930	0.798170	0.024585	0.790567	-0.599973	0.122621
03834		0.112648	-0.054403	-0.992145	0.601976	0.798136	0.024583	0.790529	-0.600016	0.122658
03835		0.112670	-0.054404	-0.992142	0.602090	0.798049	0.024614	0.790438	-0.600132	0.122672
03836		0.112734	-0.054400	-0.992135	0.602093	0.798045	0.024657	0.790427	-0.600137	0.122721
03837		0.112738	-0.054565	-0.992125	0.602826	0.797492	0.024640	0.789868	-0.600857	0.122801
03838		0.112810	-0.054567	-0.992117	0.602813	0.797501	0.024681	0.789867	-0.600845	0.122860
03839		0.112861	-0.054527	-0.992113	0.602948	0.797396	0.024765	0.789757	-0.600988	0.122872
03840		0.112933	-0.054533	-0.992105	0.602896	0.797434	0.024797	0.789786	-0.600937	0.122934
03841		0.112991	-0.054537	-0.992098	0.603041	0.797323	0.024850	0.789667	-0.601084	0.122978
03842		0.113073	-0.054567	-0.992087	0.603126	0.797258	0.024890	0.789591	-0.601168	0.123060
03843		0.113097	-0.054560	-0.992085	0.603153	0.797236	0.024915	0.789567	-0.601197	0.123073
03844		0.113114	-0.054578	-0.992082	0.603293	0.797130	0.024933	0.789457	-0.601336	0.123093
03845		0.113029	-0.054588	-0.992091	0.603695	0.796825	0.024935	0.789162	-0.601739	0.123019
03846		0.113057	-0.054631	-0.992085	0.603972	0.796615	0.024961	0.788946	-0.602014	0.123058
03847		0.113033	-0.054654	-0.992087	0.604324	0.796347	0.024982	0.788680	-0.602366	0.123042
03848		0.112991	-0.054652	-0.992092	0.604468	0.796237	0.024981	0.788575	-0.602511	0.123004
03849		0.112910	-0.054625	-0.992103	0.604506	0.796210	0.024959	0.788558	-0.602550	0.122921
03850		0.112843	-0.054600	-0.992112	0.604387	0.796301	0.024919	0.788659	-0.602431	0.122857
03851		0.112845	-0.054557	-0.992114	0.604159	0.796474	0.024920	0.788833	-0.602207	0.122839
03852		0.112883	-0.054589	-0.992108	0.603905	0.796668	0.024878	0.789022	-0.601947	0.122897
03853		0.112929	-0.054599	-0.992102	0.603772	0.796769	0.024877	0.789117	-0.601813	0.122943
03854		0.112989	-0.054642	-0.992093	0.603550	0.796938	0.024845	0.789279	-0.601584	0.123025
03855		0.113027	-0.054701	-0.992085	0.603584	0.796913	0.024826	0.789247	-0.601612	0.123089
03856		0.113060	-0.054753	-0.992078	0.603418	0.797040	0.024779	0.789369	-0.601439	0.123153
03857		0.113068	-0.054783	-0.992076	0.603259	0.797162	0.024734	0.789490	-0.601275	0.123182
03858		0.113068	-0.054787	-0.992076	0.603082	0.797297	0.024704	0.789625	-0.601096	0.123190
03859		0.113015	-0.054842	-0.992079	0.603146	0.797251	0.024637	0.789584	-0.601152	0.123179
03860		0.113010	-0.054865	-0.992078	0.603058	0.797318	0.024602	0.789652	-0.601060	0.123192
03861		0.112955	-0.054971	-0.992078	0.603501	0.796984	0.024552	0.789321	-0.601493	0.123199
03862		0.112946	-0.055015	-0.992077	0.603502	0.796985	0.024511	0.789322	-0.601489	0.123218
03863		0.112858	-0.055063	-0.992084	0.603765	0.796787	0.024460	0.789133	-0.601746	0.123168
03864		0.112820	-0.055103	-0.992086	0.603786	0.796772	0.024408	0.789122	-0.601762	0.123162
03865		0.112801	-0.055129	-0.992087	0.603852	0.796723	0.024385	0.789075	-0.601825	0.123161
03866		0.112735	-0.055185	-0.992091	0.603852	0.796726	0.024300	0.789084	-0.601815	0.123143
03867		0.112661	-0.055241	-0.992097	0.603890	0.796700	0.024216	0.789065	-0.601846	0.123117
03868		0.112622	-0.055272	-0.992099	0.603836	0.796743	0.024158	0.789113	-0.601786	0.123106
03869		0.112643	-0.055316	-0.992095	0.603718	0.796833	0.024117	0.789200	-0.601662	0.123153
03870		0.112662	-0.055302	-0.992093	0.603540	0.796968	0.024113	0.789333	-0.601484	0.123165
03871		0.112674	-0.055394	-0.992087	0.603855	0.796730	0.024095	0.789090	-0.601792	0.123221
03872		0.112693	-0.055380	-0.992085	0.603677	0.796865	0.024091	0.789224	-0.601614	0.123233
03873		0.112706	-0.055386	-0.992083	0.603531	0.796976	0.024071	0.789333	-0.601466	0.123252
03874		0.112707	-0.055386	-0.992083	0.603589	0.796932	0.024080	0.789289	-0.601524	0.123251
03875		0.112611	-0.055399	-0.992094	0.604010	0.796613	0.024077	0.788981	-0.601946	0.123169
03876		0.112596	-0.055313	-0.992100	0.604096	0.796545	0.024150	0.788917	-0.602043	0.123102
03877		0.112517	-0.055226	-0.992114	0.604304	0.796386	0.024204	0.788769	-0.602262	0.122980
03878		0.112505	-0.055182	-0.992118	0.604267	0.796413	0.024226	0.788799	-0.602230	0.122946
03879		0.112497	-0.055097	-0.992123	0.604283	0.796399	0.024292	0.788788	-0.602256	0.122887
03880		0.112552	-0.055011	-0.992122	0.604146	0.796500	0.024374	0.788885	-0.602130	0.122882
03881		0.112635	-0.054866	-0.992121	0.604011	0.796599	0.024519	0.788976	-0.602014	0.122865
03882		0.112715	-0.054741	-0.992118	0.603978	0.796619	0.024664	0.788991	-0.601998	0.122853
03883		0.112774	-0.054677	-0.992115	0.604329	0.796349	0.024806	0.788713	-0.602362	0.122850
03884		0.112786	-0.054575	-0.992119	0.604437	0.796263	0.024913	0.788628	-0.602484	0.122794
03885		0.112768	-0.054470	-0.992127	0.604643	0.796104	0.025017	0.788474	-0.602703	0.122710
03886		0.112706	-0.054415	-0.992137	0.604748	0.796023	0.025040	0.788401	-0.602816	0.122624
03887		0.112662	-0.054319	-0.992148	0.604761	0.796012	0.025092	0.788398	-0.602839	0.122530
03888		0.112581	-0.054282	-0.992159	0.604869	0.795930	0.025089	0.788327	-0.602950	0.122440
03889		0.112483	-0.054273	-0.992170	0.605244	0.795644	0.025094	0.788053	-0.603328	0.122345
03890		0.112438	-0.054249	-0.992177	0.605277	0.795619	0.025091	0.788034	-0.603363	0.122294
03891		0.112361	-0.054249	-0.992185	0.605527	0.795429	0.025083	0.787853	-0.603614	0.122225
03892		0.112374	-0.054167	-0.992188	0.605400	0.795524	0.025137	0.787948	-0.603496	0.122189
03893		0.112341	-0.054168	-0.992192	0.605712	0.795286	0.025164	0.787713	-0.603810	0.122153
03894		0.112387	-0.054131	-0.992189	0.605636	0.795342	0.025210	0.787765	-0.603739	0.122170
03895		0.112415	-0.054035	-0.992191	0.605417	0.795507	0.025270	0.787930	-0.603530	0.122141
03896		0.112407	-0.054023	-0.992193	0.605376	0.795539	0.025268	0.787963	-0.603489	0.122128
03897		0.112369	-0.054009	-0.992198	0.605412	0.795511	0.025262	0.787940	-0.603527	0.122089
03898		0.112314	-0.054025	-0.992203	0.605429	0.795500	0.025218	0.787935	-0.603541	0.122054
03899		0.112265	-0.054011	-0.992209	0.605367	0.795548	0.025190	0.787989	-0.603479	0.122008
03900		0.112244	-0.054016	-0.992211	0.605391	0.795530	0.025176	0.787974	-0.603501	0.121995
03901		0.112220	-0.054042	-0.992213	0.605368	0.795549	0.025137	0.787995	-0.603475	0.121992
03902		0.112166	-0.054009	-0.992221	0.605263	0.795630	0.025114	0.788084	-0.603371	0.121933
03903		0.112232	-0.053930	-0.992218	0.604826	0.795961	0.025150	0.788410	-0.602941	0.121950
03904		0.112227	-0.053889	-0.992220	0.604620	0.796117	0.025148	0.788568	-0.602739	0.121928
03905		0.112255	-0.053849	-0.992219	0.604419	0.796269	0.025167	0.788718	-0.602541	0.121933
03906		0.112285	-0.053798	-0.992219	0.604219	0.796420	0.025195	0.788867	-0.602347	0.121932
03907		0.112280	-0.053790	-0.992220	0.604283	0.796371	0.025208	0.788819	-0.602412	0.121921
03908		0.112302	-0.053798	-0.992217	0.604219	0.796419	0.025206	0.788864	-0.602347	0.121945
03909		0.112376	-0.053731	-0.992212	0.603967	0.796609	0.025265	0.789047	-0.602102	0.121971
03910		0.112363	-0.053743	-0.992213	0.603975	0.796603	0.025249	0.789043	-0.602109	0.121968
03911		0.112349	-0.053803	-0.992211	0.604030	0.796563	0.025201	0.789003	-0.602157	0.121992
03912		0.112291	-0.053861	-0.992215	0.604055	0.796547	0.025123	0.788992	-0.602173	0.121980
03913		0.112176	-0.053962	-0.992222	0.604468	0.796236	0.025035	0.788692	-0.602575	0.121937
03914		0.112135	-0.054048	-0.992222	0.604459	0.796246	0.024940	0.788705	-0.602554	0.121957
03915		0.111993	-0.054137	-0.992233	0.604680	0.796082	0.024815	0.788556	-0.602763	0.121891
03916		0.111964	-0.054202	-0.992233	0.604645	0.796110	0.024740	0.788586	-0.602719	0.121909
03917		0.111892	-0.054251	-0.992238	0.604761	0.796025	0.024674	0.788508	-0.602828	0.121878
03918		0.111913	-0.054311	-0.992233	0.604780	0.796011	0.024642	0.788490	-0.602841	0.121930
03919		0.112019	-0.054271	-0.992223	0.604564	0.796173	0.024706	0.788641	-0.602630	0.121996
03920		0.112063	-0.054276	-0.992218	0.604689	0.796077	0.024748	0.788538	-0.602757	0.122031
03921		0.112098	-0.054272	-0.992214	0.604804	0.795988	0.024790	0.788445	-0.602874	0.122053
03922		0.112148	-0.054263	-0.992209	0.604956	0.795871	0.024852	0.788322	-0.603029	0.122083
03923		0.112122	-0.054293	-0.992210	0.605249	0.795648	0.024858	0.788100	-0.603322	0.122070
03924		0.112147	-0.054313	-0.992206	0.605416	0.795520	0.024883	0.787969	-0.603488	0.122097
03925		0.112105	-0.054376	-0.992208	0.605659	0.795337	0.024843	0.787788	-0.603724	0.122094
03926		0.112083	-0.054427	-0.992207	0.605844	0.795196	0.024818	0.787649	-0.603905	0.122102
03927		0.112054	-0.054511	-0.992206	0.606286	0.794860	0.024801	0.787313	-0.604340	0.122116
03928		0.112039	-0.054567	-0.992204	0.606456	0.794731	0.024774	0.787184	-0.604504	0.122134
03929		0.112085	-0.054555	-0.992200	0.606402	0.794771	0.024804	0.787219	-0.604452	0.122164
03930		0.112139	-0.054582	-0.992192	0.606509	0.794689	0.024832	0.787129	-0.604558	0.122220
03931		0.112180	-0.054631	-0.992185	0.606944	0.794355	0.024885	0.786787	-0.604993	0.122269
03932		0.112314	-0.054607	-0.992171	0.606963	0.794337	0.024989	0.786754	-0.605018	0.122360
03933		0.112436	-0.054651	-0.992155	0.607135	0.794204	0.025056	0.786604	-0.605189	0.122478
03934		0.112579	-0.054572	-0.992143	0.607173	0.794170	0.025214	0.786554	-0.605241	0.122541
03935		0.112655	-0.054646	-0.992130	0.607916	0.793597	0.025317	0.785969	-0.605984	0.122623
03936		0.112846	-0.054614	-0.992110	0.608091	0.793458	0.025488	0.785806	-0.606170	0.122749
03937		0.112960	-0.054608	-0.992098	0.608612	0.793054	0.025644	0.785386	-0.606699	0.122818
03938		0.113114	-0.054557	-0.992083	0.608939	0.792796	0.025832	0.785110	-0.607040	0.122898
03939		0.113278	-0.054422	-0.992072	0.609145	0.792630	0.026073	0.784927	-0.607269	0.122939
03940		0.113402	-0.054420	-0.992058	0.609576	0.792294	0.026219	0.784575	-0.607708	0.123021
03941		0.113526	-0.054403	-0.992044	0.610251	0.791768	0.026415	0.784032	-0.608395	0.123086
03942		0.113756	-0.054322	-0.992022	0.610578	0.791507	0.026674	0.783743	-0.608741	0.123207
03943		0.113993	-0.054208	-0.992002	0.610940	0.791218	0.026969	0.783427	-0.609127	0.123311
03944		0.114397	-0.054077	-0.991962	0.611105	0.791077	0.027349	0.783239	-0.609322	0.123544
03945		0.114814	-0.053892	-0.991924	0.611260	0.790942	0.027780	0.783058	-0.609513	0.123753
03946		0.115302	-0.053701	-0.991878	0.611132	0.791026	0.028215	0.783086	-0.609421	0.124026
03947		0.115912	-0.053396	-0.991823	0.610457	0.791528	0.028730	0.783522	-0.608796	0.124344
03948		0.116480	-0.053136	-0.991771	0.610282	0.791644	0.029262	0.783574	-0.608668	0.124638
03949		0.117109	-0.052892	-0.991710	0.610494	0.791457	0.029880	0.783315	-0.608932	0.124977
03950		0.117818	-0.052622	-0.991640	0.610378	0.791523	0.030517	0.783299	-0.608870	0.125375
03951		0.118580	-0.052345	-0.991564	0.610225	0.791614	0.031187	0.783303	-0.608775	0.125812
03952		0.119329	-0.052092	-0.991487	0.610380	0.791467	0.031878	0.783069	-0.608988	0.126241
03953		0.120089	-0.051807	-0.991410	0.610859	0.791066	0.032655	0.782579	-0.609533	0.126645
03954		0.121157	-0.051337	-0.991305	0.611446	0.790564	0.033789	0.781956	-0.610223	0.127172
03955		0.122611	-0.050532	-0.991168	0.612138	0.789956	0.035449	0.781187	-0.611078	0.127790
03956		0.124749	-0.049402	-0.990958	0.612106	0.789877	0.037679	0.780874	-0.611272	0.128776
03957		0.127425	-0.048007	-0.990686	0.611397	0.790295	0.040343	0.780997	-0.610843	0.130055
03958		0.130388	-0.046302	-0.990381	0.610461	0.790857	0.043396	0.781240	-0.610247	0.131384
03959		0.133596	-0.044324	-0.990044	0.609353	0.791517	0.046790	0.781563	-0.609538	0.132752
03960		0.136870	-0.041887	-0.989703	0.607970	0.792349	0.050545	0.782073	-0.608628	0.133915
03961		0.140426	-0.038857	-0.989328	0.605979	0.793588	0.054844	0.782988	-0.607214	0.134987
03962		0.144512	-0.035578	-0.988863	0.603673	0.795000	0.059617	0.784025	-0.605565	0.136364
03963		0.149297	-0.032034	-0.988273	0.600481	0.797002	0.064880	0.785578	-0.603126	0.138226
03964		0.154529	-0.028202	-0.987586	0.596912	0.799196	0.070577	0.787284	-0.600408	0.140333
03965		0.160182	-0.024075	-0.986794	0.592871	0.801638	0.076681	0.789206	-0.597324	0.142681
03966		0.165978	-0.019825	-0.985930	0.588920	0.803920	0.082977	0.790964	-0.594406	0.145108
03967		0.171600	-0.015000	-0.985052	0.585456	0.805724	0.089719	0.792335	-0.592101	0.147045
03968		0.177254	-0.009766	-0.984117	0.582041	0.807375	0.096823	0.793605	-0.589958	0.148794
03969		0.182709	-0.004293	-0.983158	0.578252	0.809212	0.103928	0.795137	-0.587501	0.150333
03970		0.187570	0.001355	-0.982250	0.573482	0.811714	0.110632	0.797456	-0.584054	0.151476
03971		0.192009	0.007402	-0.981365	0.567446	0.815031	0.117171	0.800711	-0.579369	0.152293
03972		0.195862	0.013422	-0.980540	0.560987	0.818596	0.123262	0.804320	-0.574212	0.152803
03973		0.199377	0.019284	-0.979733	0.553582	0.822766	0.128849	0.808576	-0.568052	0.153365
03974		0.202295	0.024701	-0.979013	0.545727	0.827238	0.133637	0.813178	-0.561308	0.153866
03975		0.204659	0.029816	-0.978379	0.537532	0.831909	0.137794	0.818030	-0.554111	0.154231
03976		0.206264	0.034697	-0.977881	0.529276	0.836597	0.141324	0.822995	-0.546720	0.154196
03977		0.207357	0.039665	-0.977461	0.521342	0.840986	0.144724	0.827771	-0.539601	0.153705
03978		0.208208	0.044814	-0.977057	0.513569	0.845152	0.148204	0.832404	-0.532643	0.152953
03979		0.208713	0.050557	-0.976669	0.505156	0.849550	0.151928	0.837410	-0.525080	0.151773
03980		0.208915	0.056542	-0.976298	0.496315	0.854072	0.155668	0.842630	-0.517073	0.150366
03981		0.209058	0.062604	-0.975897	0.486461	0.859054	0.159318	0.848322	-0.508043	0.149137
03982		0.209020	0.068188	-0.975531	0.475943	0.864353	0.162394	0.854277	-0.498241	0.148214
03983		0.208713	0.073297	-0.975226	0.464902	0.869875	0.164875	0.860410	-0.487796	0.147479
03984		0.207769	0.077427	-0.975109	0.453564	0.875596	0.166167	0.866667	-0.476799	0.146804
03985		0.205941	0.081177	-0.975192	0.441500	0.881654	0.166626	0.873308	-0.464862	0.145730
03986		0.203199	0.084423	-0.975491	0.429492	0.887629	0.166284	0.879913	-0.452755	0.144106
03987		0.200059	0.087127	-0.975902	0.417441	0.893534	0.165348	0.886408	-0.440461	0.142389
03988		0.196396	0.089200	-0.976459	0.405659	0.899239	0.163737	0.892675	-0.428267	0.140422
03989		0.192298	0.090595	-0.977146	0.394661	0.904517	0.161528	0.898479	-0.416703	0.138183
03990		0.187504	0.091670	-0.977977	0.385249	0.909000	0.159067	0.903562	-0.406591	0.135125
03991		0.182381	0.092714	-0.978847	0.376800	0.912948	0.156679	0.908162	-0.397405	0.131569
03992		0.177006	0.093579	-0.979751	0.369624	0.916281	0.154295	0.912166	-0.389450	0.127598
03993		0.171927	0.093963	-0.980618	0.363378	0.919194	0.151786	0.915641	-0.382431	0.123890
03994		0.167176	0.093640	-0.981470	0.358233	0.921674	0.148953	0.918543	-0.376496	0.120537
03995		0.163372	0.092527	-0.982216	0.354944	0.923413	0.146026	0.920502	-0.372488	0.118018
03996		0.159986	0.091080	-0.982908	0.353668	0.924342	0.143218	0.921588	-0.370536	0.115670
03997		0.156860	0.089408	-0.983566	0.356020	0.923817	0.140755	0.921219	-0.372248	0.113079
03998		0.153167	0.087885	-0.984284	0.360949	0.922242	0.138514	0.919921	-0.376492	0.109535
03999		0.149427	0.085973	-0.985028	0.367545	0.920000	0.136053	0.917923	-0.382372	0.105874
04000		0.145303	0.083899	-0.985824	0.375209	0.917295	0.133370	0.915481	-0.389269	0.101806
04001		0.141023	0.082200	-0.986588	0.383828	0.914062	0.131022	0.912573	-0.397157	0.097353
04002		0.135782	0.081101	-0.987414	0.392440	0.910720	0.128767	0.909700	-0.404984	0.091832
04003		0.130315	0.080217	-0.988222	0.400282	0.907625	0.126459	0.907079	-0.412047	0.086167
04004		0.124449	0.079811	-0.989011	0.406641	0.905105	0.124209	0.905072	-0.417630	0.080185
04005		0.118674	0.079816	-0.989720	0.411546	0.903162	0.122182	0.903630	-0.421815	0.074334
04006		0.111850	0.080481	-0.990461	0.414291	0.902187	0.120093	0.903246	-0.423771	0.067567
04007		0.104178	0.081502	-0.991214	0.415676	0.901846	0.117842	0.903527	-0.424300	0.060074
04008		0.095355	0.083190	-0.991961	0.414831	0.902530	0.115567	0.904888	-0.422516	0.051551
04009		0.085716	0.085661	-0.992630	0.410853	0.904604	0.113543	0.907663	-0.417558	0.042345
04010		0.075405	0.089109	-0.993163	0.401947	0.908780	0.112056	0.912553	-0.407649	0.032709
04011		0.065070	0.093328	-0.993507	0.387649	0.915057	0.111348	0.919507	-0.392378	0.023364
04012		0.055034	0.098379	-0.993626	0.367120	0.923435	0.111763	0.928544	-0.370931	0.014703
04013		0.047057	0.104515	-0.993409	0.341404	0.932938	0.114325	0.938738	-0.344534	0.008219
04014		0.042448	0.112233	-0.992775	0.312665	0.942267	0.119891	0.948914	-0.315495	0.004906
04015		0.041305	0.122325	-0.991630	0.283104	0.950371	0.129027	0.958199	-0.286064	0.004624
04016		0.041381	0.135197	-0.989954	0.254177	0.956781	0.141292	0.966272	-0.257470	0.005229
04017		0.041473	0.150349	-0.987763	0.227477	0.961229	0.155861	0.972900	-0.231157	0.005664
04018		0.040424	0.166909	-0.985143	0.203641	0.963879	0.171663	0.978211	-0.207555	0.004975
04019		0.037952	0.184357	-0.982126	0.182578	0.965011	0.188199	0.982459	-0.186457	0.002964
04020		0.033281	0.201910	-0.978839	0.164556	0.964908	0.204631	0.985806	-0.167884	-0.001112
04021		0.026691	0.218704	-0.975426	0.147509	0.964230	0.220230	0.988700	-0.149762	-0.006525
04022		0.018711	0.233352	-0.972212	0.129575	0.963616	0.233782	0.991393	-0.130349	-0.012206
04023		0.010377	0.245088	-0.969445	0.109833	0.963352	0.244724	0.993896	-0.109017	-0.016922
04024		0.002576	0.253745	-0.967268	0.089460	0.963334	0.252951	0.995987	-0.087183	-0.020218
04025		-0.003650	0.259611	-0.965706	0.069955	0.963413	0.258730	0.997543	-0.066612	-0.021677
04026		-0.008156	0.263237	-0.964697	0.051147	0.963576	0.262499	0.998658	-0.047201	-0.021323
04027		-0.010589	0.265823	-0.963964	0.034545	0.963540	0.265326	0.999347	-0.030491	-0.019386
04028		-0.011160	0.268127	-0.963319	0.020113	0.963244	0.267873	0.999735	-0.016386	-0.016143
04029		-0.010143	0.270089	-0.962782	0.008293	0.962821	0.270013	0.999914	-0.005246	-0.012006
04030		-0.007998	0.271518	-0.962400	-0.001291	0.962427	0.271536	0.999967	0.003414	-0.007347
04031		-0.004895	0.272012	-0.962281	-0.007341	0.962257	0.272043	0.999961	0.008396	-0.002713
04032		-0.001451	0.271175	-0.962529	-0.009655	0.962481	0.271176	0.999952	0.009687	0.001222
04033		0.001800	0.268655	-0.963235	-0.007515	0.963213	0.268635	0.999970	0.006756	0.003753
04034		0.004601	0.264051	-0.964498	-0.000360	0.964508	0.264053	0.999989	-0.000868	0.004533
04035		0.007036	0.257169	-0.966341	0.013185	0.966257	0.257242	0.999888	-0.014551	0.003408
04036		0.009064	0.248322	-0.968635	0.032440	0.968092	0.248486	0.999433	-0.033674	0.000719
04037		0.011420	0.237253	-0.971381	0.056422	0.969743	0.237517	0.998342	-0.057520	-0.002312
04038		0.014304	0.224002	-0.974484	0.084535	0.970823	0.224402	0.996318	-0.085588	-0.005049
04039		0.017426	0.207810	-0.978014	0.116995	0.971019	0.208408	0.992980	-0.118054	-0.007392
04040		0.019983	0.188633	-0.981844	0.152633	0.969954	0.189455	0.988081	-0.153648	-0.009409
04041		0.022429	0.166304	-0.985819	0.190735	0.967244	0.167510	0.981385	-0.191787	-0.010025
04042		0.025049	0.141431	-0.989631	0.230898	0.962356	0.143378	0.972656	-0.232095	-0.008551
04043		0.027536	0.113702	-0.993133	0.271150	0.955412	0.116902	0.962143	-0.272507	-0.004522
04044		0.029184	0.083532	-0.996078	0.310195	0.946548	0.088467	0.950225	-0.311560	0.001713
04045		0.029950	0.050517	-0.998274	0.347143	0.936030	0.057782	0.937334	-0.348274	0.010497
04046		0.028829	0.014986	-0.999472	0.381818	0.923903	0.024866	0.923788	-0.382333	0.020913
04047		0.026265	-0.022460	-0.999403	0.414775	0.909874	-0.009548	0.909545	-0.414276	0.033214
04048		0.023109	-0.060246	-0.997916	0.444820	0.894553	-0.043705	0.895322	-0.442883	0.047471
04049		0.019474	-0.097818	-0.995014	0.472936	0.877723	-0.077032	0.880882	-0.469077	0.063354
04050		0.015964	-0.135613	-0.990633	0.500759	0.858636	-0.109473	0.865439	-0.494321	0.081617
04051		0.011674	-0.174223	-0.984637	0.528622	0.836927	-0.141819	0.848777	-0.518845	0.101869
04052		0.005570	-0.212685	-0.977105	0.556731	0.812341	-0.173647	0.830674	-0.543017	0.122933
04053		-0.002688	-0.250950	-0.967996	0.583456	0.785761	-0.205326	0.812140	-0.565335	0.144306
04054		-0.011858	-0.288974	-0.957263	0.610494	0.756102	-0.235811	0.791932	-0.587200	0.167451
04055		-0.021255	-0.326901	-0.944820	0.635255	0.725324	-0.265248	0.772010	-0.605839	0.192249
04056		-0.030056	-0.364893	-0.930564	0.657702	0.693829	-0.293308	0.752678	-0.620849	0.219138
04057		-0.037556	-0.403364	-0.914269	0.677804	0.661997	-0.319908	0.734283	-0.631710	0.248539
04058		-0.043834	-0.441852	-0.896016	0.696632	0.629343	-0.344428	0.716088	-0.639292	0.280222
04059		-0.049800	-0.480565	-0.875544	0.715037	0.594889	-0.367191	0.697311	-0.644332	0.313996
04060		-0.057304	-0.517860	-0.853544	0.733290	0.558347	-0.387989	0.677497	-0.648128	0.347746
04061		-0.067687	-0.550610	-0.832014	0.749508	0.522362	-0.406664	0.658525	-0.651127	0.377330
04062		-0.079127	-0.577830	-0.812312	0.759594	0.492756	-0.424509	0.645566	-0.650618	0.399926
04063		-0.085529	-0.607006	-0.790081	0.764519	0.468521	-0.442718	0.638902	-0.641897	0.423996
04064		-0.086452	-0.644638	-0.759584	0.781014	0.429487	-0.453385	0.618501	-0.632441	0.466341
04065		-0.092611	-0.687516	-0.720239	0.809612	0.369077	-0.456411	0.579614	-0.625383	0.522441
04066		-0.103912	-0.732223	-0.673091	0.833001	0.305696	-0.461151	0.543426	-0.608605	0.578177
04067		-0.121221	-0.774920	-0.620326	0.847464	0.244587	-0.471149	0.516826	-0.582817	0.627068
04068		-0.145501	-0.810463	-0.567432	0.854309	0.186342	-0.485215	0.498985	-0.555361	0.665273
04069		-0.179999	-0.837133	-0.516536	0.857451	0.123808	-0.499449	0.482056	-0.532804	0.695515
04070		-0.220392	-0.861000	-0.458373	0.859586	0.050666	-0.508472	0.461019	-0.506075	0.728938
04071		-0.256421	-0.878613	-0.402849	0.860850	-0.018070	-0.508538	0.439529	-0.477192	0.760988
04072		-0.300481	-0.883869	-0.358451	0.852953	-0.080834	-0.515690	0.426827	-0.460697	0.778188
04073		-0.329541	-0.887492	-0.322119	0.847282	-0.127463	-0.515622	0.416553	-0.442844	0.793960
04074		-0.354163	-0.889255	-0.289472	0.835761	-0.162080	-0.524627	0.419609	-0.427732	0.800608
04075		-0.371273	-0.889453	-0.266515	0.822821	-0.182159	-0.538316	0.430258	-0.419156	0.799491
04076		-0.377880	-0.890070	-0.254917	0.811732	-0.186070	-0.553597	0.445307	-0.416118	0.792810
04077		-0.376534	-0.893552	-0.244515	0.799605	-0.180186	-0.572857	0.467819	-0.411215	0.782335
04078		-0.372724	-0.897214	-0.236821	0.785721	-0.169372	-0.594942	0.493679	-0.407824	0.768089
04079		-0.368864	-0.898744	-0.237062	0.776428	-0.157723	-0.610150	0.510978	-0.409124	0.755989
04080		-0.364746	-0.898655	-0.243679	0.773362	-0.146649	-0.616770	0.518528	-0.413417	0.748475
04081		-0.359559	-0.897794	-0.254327	0.772738	-0.133705	-0.620483	0.523062	-0.419629	0.741834
04082		-0.352093	-0.896986	-0.267295	0.779467	-0.122916	-0.614266	0.518133	-0.424626	0.742449
04083		-0.341575	-0.896863	-0.281003	0.792711	-0.114298	-0.598787	0.504912	-0.427284	0.749994
04084		-0.327323	-0.897347	-0.296021	0.810740	-0.105794	-0.575768	0.485346	-0.428458	0.762144
04085		-0.309318	-0.898087	-0.312670	0.829990	-0.094479	-0.549718	0.464154	-0.429551	0.774627
04086		-0.288570	-0.898816	-0.329935	0.848275	-0.080197	-0.523448	0.444024	-0.430927	0.785585
04087		-0.267078	-0.899077	-0.346885	0.864493	-0.064475	-0.498492	0.425818	-0.433016	0.794466
04088		-0.246152	-0.898967	-0.362309	0.877749	-0.048224	-0.476687	0.411054	-0.435354	0.800938
04089		-0.226101	-0.898654	-0.375899	0.888338	-0.031894	-0.458081	0.399668	-0.437498	0.805519
04090		-0.206671	-0.897423	-0.389767	0.897507	-0.015270	-0.440737	0.389576	-0.440906	0.808599
04091		-0.187201	-0.894891	-0.405125	0.906329	0.001707	-0.422568	0.378844	-0.446281	0.810747
04092		-0.167048	-0.890798	-0.422580	0.915543	0.018907	-0.401774	0.365890	-0.454006	0.812406
04093		-0.146293	-0.885129	-0.441751	0.924646	0.036370	-0.379086	0.351607	-0.463921	0.813111
04094		-0.126054	-0.877948	-0.461864	0.933065	0.053185	-0.355755	0.336898	-0.475793	0.812478
04095		-0.107551	-0.868741	-0.483448	0.939931	0.069611	-0.334193	0.323980	-0.490351	0.809069
04096		-0.092598	-0.857083	-0.506788	0.945188	0.084396	-0.315432	0.313122	-0.508219	0.802289
04097		-0.079255	-0.843490	-0.531266	0.949063	0.099190	-0.299068	0.304957	-0.527907	0.792663
04098		-0.066890	-0.828232	-0.556379	0.951464	0.114941	-0.285491	0.300404	-0.548471	0.780345
04099		-0.055218	-0.812621	-0.580171	0.952505	0.131408	-0.274712	0.299476	-0.567785	0.766769
04100		-0.045791	-0.795264	-0.604532	0.950904	0.150723	-0.270303	0.306079	-0.587229	0.749318
04101		-0.038632	-0.779830	-0.624798	0.947910	0.169249	-0.269855	0.316187	-0.602677	0.732670
04102		-0.035381	-0.764834	-0.643255	0.942389	0.188708	-0.276209	0.332642	-0.615970	0.714094
04103		-0.035986	-0.749534	-0.660987	0.935401	0.207543	-0.286271	0.351753	-0.628589	0.693647
04104		-0.038991	-0.734095	-0.677927	0.927136	0.226463	-0.298551	0.372690	-0.640171	0.671776
04105		-0.042165	-0.719258	-0.693462	0.918655	0.244970	-0.309940	0.392805	-0.650121	0.650421
04106		-0.043131	-0.706845	-0.706052	0.910623	0.262902	-0.318825	0.410982	-0.656699	0.632330
04107		-0.043731	-0.696343	-0.716376	0.902278	0.280336	-0.327576	0.428931	-0.660696	0.616035
04108		-0.044810	-0.687578	-0.724726	0.893072	0.297524	-0.337493	0.447676	-0.662356	0.600725
04109		-0.047607	-0.680289	-0.731397	0.884355	0.311712	-0.347494	0.464382	-0.663357	0.586777
04110		-0.052037	-0.673527	-0.737329	0.876369	0.323208	-0.357090	0.478821	-0.664754	0.573439
04111		-0.055509	-0.667387	-0.742640	0.869936	0.332714	-0.364023	0.490031	-0.666255	0.562115
04112		-0.054576	-0.663501	-0.746182	0.866062	0.340467	-0.366086	0.496949	-0.666219	0.556052
04113		-0.047290	-0.663388	-0.746780	0.863825	0.348241	-0.364055	0.501568	-0.662303	0.556583
04114		-0.034698	-0.665661	-0.745447	0.862616	0.356709	-0.358681	0.504668	-0.655480	0.561833
04115		-0.018618	-0.668083	-0.743854	0.861933	0.366302	-0.350563	0.506680	-0.647679	0.569023
04116		-0.000827	-0.670038	-0.742327	0.861860	0.375991	-0.340335	0.507145	-0.640063	0.577168
04117		0.017173	-0.670532	-0.741682	0.861644	0.386234	-0.329231	0.507223	-0.633412	0.584393
04118		0.036386	-0.669349	-0.742056	0.860304	0.398802	-0.317543	0.508481	-0.626840	0.590355
04119		0.058186	-0.666793	-0.742968	0.858254	0.413550	-0.303935	0.509915	-0.619971	0.596341
04120		0.083605	-0.663141	-0.743810	0.855239	0.430846	-0.287990	0.511446	-0.612058	0.603165
04121		0.111848	-0.657809	-0.744834	0.850708	0.450777	-0.270363	0.513601	-0.603396	0.610022
04122		0.141115	-0.650265	-0.746486	0.844007	0.473127	-0.252592	0.517435	-0.594395	0.615594
04123		0.171471	-0.641137	-0.748025	0.835497	0.496975	-0.234438	0.522056	-0.584773	0.620885
04124		0.203380	-0.630582	-0.749001	0.825079	0.522248	-0.215641	0.527144	-0.574128	0.626495
04125		0.234007	-0.617738	-0.750760	0.812621	0.548205	-0.197783	0.533748	-0.563801	0.630271
04126		0.262042	-0.602979	-0.753492	0.796942	0.575536	-0.183418	0.544259	-0.552426	0.631354
04127		0.288305	-0.587069	-0.756459	0.778183	0.603983	-0.172152	0.557953	-0.539031	0.630978
04128		0.313699	-0.570015	-0.759391	0.755650	0.634149	-0.163852	0.574966	-0.522434	0.629664
04129		0.337705	-0.551203	-0.762975	0.730288	0.664838	-0.157067	0.593830	-0.504149	0.627056
04130		0.360304	-0.529989	-0.767654	0.702311	0.695736	-0.150702	0.613955	-0.484833	0.622893
04131		0.381980	-0.506899	-0.772751	0.672492	0.725998	-0.143810	0.633913	-0.464736	0.618202
04132		0.402193	-0.482825	-0.777895	0.642629	0.754052	-0.135769	0.652126	-0.445293	0.613552
04133		0.420024	-0.458750	-0.783025	0.615550	0.778020	-0.125629	0.666842	-0.429224	0.609171
04134		0.435587	-0.435177	-0.787962	0.593139	0.797216	-0.112399	0.677089	-0.418411	0.605377
04135		0.448652	-0.412095	-0.793026	0.576547	0.811464	-0.095497	0.682866	-0.414371	0.601657
04136		0.459524	-0.389340	-0.798281	0.564622	0.821860	-0.075820	0.685595	-0.415885	0.597494
04137		0.468273	-0.366800	-0.803852	0.556247	0.829238	-0.054349	0.686520	-0.421690	0.592341
04138		0.474388	-0.343989	-0.810326	0.549780	0.834678	-0.032470	0.687530	-0.430097	0.585080
04139		0.477948	-0.320588	-0.817795	0.543704	0.839202	-0.011220	0.689892	-0.439276	0.575400
04140		0.480413	-0.296470	-0.825415	0.536117	0.844097	0.008854	0.694105	-0.446772	0.564458
04141		0.482323	-0.271668	-0.832803	0.526730	0.849574	0.027920	0.699943	-0.452128	0.552865
04142		0.483046	-0.246372	-0.840218	0.515630	0.855599	0.045557	0.707667	-0.455248	0.540331
04143		0.482571	-0.220941	-0.847532	0.503057	0.862048	0.061707	0.716979	-0.456135	0.527145
04144		0.481155	-0.195572	-0.854542	0.488545	0.869209	0.076150	0.727883	-0.454122	0.513770
04145		0.479433	-0.170739	-0.860809	0.473782	0.876019	0.090121	0.738698	-0.451043	0.500886
04146		0.477535	-0.146581	-0.866299	0.459452	0.882091	0.104013	0.748909	-0.447693	0.488576
04147		0.474604	-0.123349	-0.871513	0.446993	0.886731	0.117919	0.758253	-0.445525	0.475983
04148		0.469652	-0.100796	-0.877079	0.437409	0.889523	0.131995	0.766877	-0.445634	0.461855
04149		0.461777	-0.078579	-0.883509	0.430932	0.890490	0.146031	0.775281	-0.448166	0.445070
04150		0.451430	-0.056469	-0.890518	0.427293	0.889810	0.160183	0.783346	-0.452824	0.425816
04151		0.439845	-0.034137	-0.897425	0.425500	0.887922	0.174770	0.790877	-0.458726	0.405073
04152		0.428171	-0.011442	-0.903625	0.424448	0.885312	0.189910	0.797818	-0.464856	0.383922
04153		0.417307	0.011081	-0.908698	0.423082	0.882583	0.205058	0.804274	-0.470026	0.363620
04154		0.406878	0.033150	-0.912881	0.421470	0.879801	0.219802	0.810440	-0.474184	0.344000
04155		0.395733	0.054640	-0.916739	0.420848	0.876455	0.233908	0.816261	-0.478373	0.323847
04156		0.383802	0.074959	-0.920368	0.421141	0.872798	0.246705	0.821789	-0.482290	0.303413
04157		0.370971	0.093617	-0.923914	0.423352	0.868457	0.257983	0.826531	-0.486845	0.282540
04158		0.357191	0.110037	-0.927527	0.428694	0.862951	0.267466	0.829841	-0.493161	0.261066
04159		0.341995	0.123824	-0.931508	0.437168	0.856511	0.274357	0.831819	-0.501055	0.238790
04160		0.325133	0.134374	-0.936073	0.449071	0.849186	0.277881	0.832240	-0.510712	0.215755
04161		0.306397	0.140387	-0.941495	0.464716	0.841130	0.276657	0.830759	-0.522294	0.192480
04162		0.285848	0.141420	-0.947782	0.483679	0.832527	0.270099	0.827252	-0.535630	0.169574
04163		0.264781	0.136772	-0.954560	0.505443	0.823331	0.258172	0.821230	-0.550835	0.148872
04164		0.244005	0.125501	-0.961619	0.528892	0.813921	0.240428	0.812856	-0.567258	0.132224
04165		0.222536	0.104946	-0.969259	0.555780	0.803163	0.214566	0.800991	-0.586443	0.120406
04166		0.197760	0.072486	-0.977567	0.588151	0.789035	0.177488	0.784200	-0.610057	0.113406
04167		0.165192	0.028825	-0.985840	0.622233	0.772487	0.126851	0.765205	-0.634377	0.109672
04168		0.118646	-0.019383	-0.992747	0.660779	0.747815	0.064371	0.741144	-0.663624	0.101533
04169		0.052428	-0.066910	-0.996381	0.705744	0.708390	-0.010436	0.706525	-0.702642	0.084361
04170		-0.032355	-0.094704	-0.994980	0.746653	0.659493	-0.087051	0.664426	-0.745721	0.049373
04171		-0.124812	-0.116467	-0.985321	0.772804	0.611407	-0.170162	0.622251	-0.782698	0.013695
04172		-0.199254	-0.164333	-0.966071	0.774961	0.576959	-0.257981	0.599778	-0.800071	0.012391
04173		-0.262039	-0.222427	-0.939075	0.760603	0.551322	-0.342823	0.593986	-0.804096	0.024711
04174		-0.325767	-0.278479	-0.903507	0.726840	0.537380	-0.427699	0.604632	-0.796035	0.027349
04175		-0.390229	-0.340451	-0.855462	0.674276	0.527009	-0.517314	0.626956	-0.778688	0.023903
04176		-0.457729	-0.403936	-0.792035	0.611316	0.503863	-0.610258	0.645583	-0.763516	0.016300
04177		-0.532010	-0.451666	-0.716214	0.544864	0.464852	-0.697879	0.648143	-0.761518	-0.001210
04178		-0.613221	-0.473071	-0.632585	0.473465	0.420903	-0.773739	0.632290	-0.773980	-0.034124
04179		-0.681628	-0.491357	-0.542173	0.408181	0.359619	-0.839084	0.607266	-0.793248	-0.044564
04180		-0.741492	-0.498555	-0.449035	0.344053	0.292037	-0.892380	0.576035	-0.816184	-0.045013
04181		-0.788708	-0.497630	-0.360976	0.283793	0.226153	-0.931835	0.545345	-0.837388	-0.037144
04182		-0.823662	-0.492955	-0.280315	0.227212	0.166022	-0.959589	0.519572	-0.854068	-0.024740
04183		-0.847013	-0.487578	-0.211747	0.180600	0.110693	-0.977308	0.499953	-0.866034	-0.005702
04184		-0.862391	-0.481498	-0.156336	0.142638	0.065197	-0.987625	0.485732	-0.874019	0.012455
04185		-0.871707	-0.477475	-0.110200	0.111649	0.025446	-0.993422	0.477139	-0.878277	0.031128
04186		-0.876648	-0.475786	-0.071527	0.087621	-0.011699	-0.996085	0.473087	-0.879483	0.051945
04187		-0.879277	-0.474398	-0.042654	0.071082	-0.042143	-0.996580	0.470978	-0.879301	0.070776
04188		-0.878988	-0.476128	-0.026133	0.065148	-0.065620	-0.995716	0.472373	-0.876924	0.088698
04189		-0.876549	-0.480813	-0.021922	0.071101	-0.084305	-0.993900	0.476032	-0.872761	0.108084
04190		-0.872973	-0.486959	-0.028082	0.087190	-0.099142	-0.991246	0.479912	-0.867780	0.129007
04191		-0.867775	-0.494937	-0.044762	0.112899	-0.108624	-0.987651	0.483963	-0.862112	0.150139
04192		-0.861005	-0.503679	-0.070554	0.144724	-0.109648	-0.983378	0.487571	-0.856904	0.167303
04193		-0.852175	-0.512830	-0.103940	0.182538	-0.105194	-0.977555	0.490386	-0.852021	0.183255
04194		-0.840878	-0.522055	-0.142769	0.223523	-0.094737	-0.970084	0.492912	-0.847634	0.196353
04195		-0.826626	-0.531484	-0.184972	0.265397	-0.078337	-0.960951	0.496241	-0.843438	0.205810
04196		-0.808906	-0.541403	-0.229248	0.307435	-0.057136	-0.949852	0.501154	-0.838820	0.212664
04197		-0.787832	-0.550892	-0.275387	0.349362	-0.031495	-0.936458	0.507214	-0.833982	0.217274
04198		-0.763155	-0.559635	-0.323114	0.391643	-0.002828	-0.920113	0.514014	-0.828734	0.221335
04199		-0.734312	-0.567869	-0.371901	0.434543	0.027655	-0.900226	0.521496	-0.822654	0.226456
04200		-0.701354	-0.575643	-0.420402	0.477394	0.058641	-0.876730	0.529336	-0.815596	0.233680
04201		-0.665809	-0.581320	-0.467724	0.519886	0.088190	-0.849671	0.535180	-0.808881	0.243502
04202		-0.627925	-0.584640	-0.513719	0.561832	0.116257	-0.819041	0.538568	-0.802920	0.255469
04203		-0.588828	-0.583710	-0.559074	0.602818	0.143618	-0.784847	0.538417	-0.799160	0.267304
04204		-0.546812	-0.581428	-0.602443	0.643619	0.168297	-0.746613	0.535491	-0.796001	0.282191
04205		-0.501265	-0.578412	-0.643563	0.683289	0.191728	-0.704526	0.530895	-0.792893	0.299116
04206		-0.454259	-0.571588	-0.683327	0.718284	0.218742	-0.660470	0.526989	-0.790847	0.311197
04207		-0.404004	-0.564070	-0.720143	0.752261	0.243050	-0.612397	0.520466	-0.789146	0.326135
04208		-0.352023	-0.554637	-0.753961	0.783440	0.266165	-0.561585	0.512154	-0.788374	0.340829
04209		-0.299938	-0.544764	-0.783115	0.810370	0.287628	-0.510461	0.503327	-0.787719	0.355190
04210		-0.248273	-0.534520	-0.807867	0.833515	0.307054	-0.459316	0.493572	-0.787404	0.369297
04211		-0.196794	-0.523235	-0.829155	0.854039	0.323881	-0.407084	0.481548	-0.788243	0.383125
04212		-0.148050	-0.508584	-0.848189	0.870519	0.339994	-0.355811	0.469339	-0.791042	0.392395
04213		-0.101923	-0.489954	-0.865770	0.884681	0.353347	-0.304114	0.454919	-0.796926	0.397438
04214		-0.057744	-0.468145	-0.881763	0.895301	0.366498	-0.253211	0.441704	-0.804064	0.397968
04215		-0.014807	-0.442738	-0.896529	0.900665	0.383509	-0.204266	0.434263	-0.810496	0.393080
04216		0.028101	-0.417091	-0.908430	0.903439	0.399526	-0.155490	0.427795	-0.816341	0.388044
04217		0.070447	-0.391708	-0.917389	0.903005	0.415785	-0.108190	0.423816	-0.820785	0.383005
04218		0.111159	-0.366941	-0.923579	0.898713	0.433814	-0.064189	0.424215	-0.822897	0.377997
04219		0.149126	-0.342666	-0.927546	0.891929	0.451568	-0.023425	0.426877	-0.823812	0.372975
04220		0.184164	-0.318518	-0.929855	0.883787	0.467653	0.014847	0.430121	-0.824528	0.367627
04221		0.215904	-0.294345	-0.930992	0.874434	0.482537	0.050227	0.434455	-0.824936	0.361566
04222		0.243928	-0.270283	-0.931368	0.863949	0.496844	0.082087	0.440557	-0.824678	0.354705
04223		0.269180	-0.245970	-0.931150	0.852289	0.511076	0.111378	0.448493	-0.823590	0.347209
04224		0.292206	-0.221340	-0.930389	0.839133	0.526023	0.138405	0.458772	-0.821163	0.339441
04225		0.313783	-0.195791	-0.929089	0.825011	0.540580	0.164714	0.469997	-0.818193	0.331155
04226		0.335124	-0.171539	-0.926426	0.809426	0.555664	0.189913	0.482204	-0.813518	0.325065
04227		0.356153	-0.149495	-0.922392	0.792375	0.571520	0.213323	0.495274	-0.806856	0.322004
04228		0.375953	-0.129462	-0.917551	0.774030	0.588262	0.234147	0.509447	-0.798240	0.321366
04229		0.392874	-0.110967	-0.912873	0.756025	0.604114	0.251936	0.523523	-0.789134	0.321235
04230		0.406409	-0.093591	-0.908885	0.738864	0.618849	0.266659	0.537506	-0.779915	0.320656
04231		0.416710	-0.077050	-0.905768	0.722681	0.632513	0.278673	0.551438	-0.770708	0.319257
04232		0.424768	-0.061705	-0.903197	0.707455	0.645132	0.288638	0.564871	-0.761575	0.317685
04233		0.431165	-0.047239	-0.901035	0.693613	0.656037	0.297515	0.577059	-0.753249	0.315626
04234		0.436118	-0.033628	-0.899261	0.680987	0.665586	0.305372	0.588266	-0.745563	0.313174
04235		0.439522	-0.020548	-0.897997	0.669936	0.673452	0.312488	0.598337	-0.738945	0.309763
04236		0.441314	-0.007725	-0.897319	0.660290	0.679948	0.318886	0.607667	-0.733220	0.305171
04237		0.441427	0.004838	-0.897284	0.652340	0.684891	0.324618	0.616113	-0.728629	0.299174
04238		0.440222	0.016646	-0.897734	0.645692	0.688895	0.329402	0.623928	-0.724670	0.292519
04239		0.437754	0.027488	-0.898675	0.640004	0.692495	0.332934	0.631479	-0.720899	0.285549
04240		0.433930	0.037490	-0.900166	0.634619	0.696478	0.334928	0.639502	-0.716598	0.278431
04241		0.428801	0.046612	-0.902195	0.629294	0.701107	0.335318	0.648165	-0.711531	0.271303
04242		0.422591	0.054716	-0.904667	0.623824	0.706538	0.334136	0.657465	-0.705556	0.264444
04243		0.415464	0.061784	-0.907509	0.618480	0.712386	0.331644	0.666987	-0.699063	0.257759
04244		0.407565	0.067624	-0.910669	0.613031	0.718874	0.327741	0.676819	-0.691844	0.251533
04245		0.399113	0.071882	-0.914080	0.607458	0.726017	0.322326	0.686807	-0.683910	0.246097
04246		0.390326	0.074066	-0.917692	0.602254	0.733379	0.315350	0.696373	-0.675773	0.241650
04247		0.381365	0.073844	-0.921470	0.597597	0.740822	0.306692	0.705293	-0.667630	0.238395
04248		0.372144	0.071068	-0.925450	0.593904	0.748002	0.296263	0.713293	-0.659881	0.236157
04249		0.361694	0.066155	-0.929947	0.591452	0.754771	0.283733	0.720667	-0.652644	0.233869
04250		0.349489	0.059210	-0.935068	0.590152	0.761236	0.268777	0.727721	-0.645767	0.231100
04251		0.336328	0.049699	-0.940433	0.589959	0.767254	0.251535	0.734052	-0.639415	0.228729
04252		0.322675	0.037584	-0.945763	0.590712	0.772736	0.232246	0.739554	-0.633614	0.227141
04253		0.308926	0.022821	-0.950812	0.592426	0.777464	0.211144	0.744041	-0.628514	0.226659
04254		0.295748	0.005538	-0.955250	0.594316	0.781821	0.188534	0.747878	-0.623479	0.227931
04255		0.283298	-0.013979	-0.958930	0.594659	0.787030	0.164208	0.752411	-0.616757	0.231277
04256		0.272256	-0.035835	-0.961557	0.593135	0.793121	0.138383	0.757673	-0.608009	0.237187
04257		0.262296	-0.060249	-0.963105	0.589716	0.800007	0.110559	0.763830	-0.596958	0.245368
04258		0.252568	-0.087584	-0.963607	0.585037	0.807052	0.079988	0.770676	-0.583948	0.255075
04259		0.242851	-0.118084	-0.962850	0.580848	0.812664	0.046837	0.776942	-0.570643	0.265945
04260		0.232417	-0.150739	-0.960864	0.578207	0.815804	0.011876	0.782086	-0.558339	0.276765
04261		0.220807	-0.184400	-0.957727	0.577447	0.816076	-0.023994	0.786002	-0.547738	0.286677
04262		0.209070	-0.218428	-0.953194	0.578587	0.813447	-0.059499	0.788370	-0.539066	0.296447
04263		0.197825	-0.253261	-0.946955	0.580520	0.808684	-0.095007	0.789849	-0.530932	0.307001
04264		0.186492	-0.290195	-0.938620	0.584499	0.800682	-0.131416	0.789672	-0.524114	0.318939
04265		0.174715	-0.330190	-0.927604	0.589697	0.789535	-0.169973	0.788499	-0.517309	0.332657
04266		0.161527	-0.373508	-0.913455	0.596217	0.774525	-0.211271	0.786406	-0.510492	0.347799
04267		0.145552	-0.420339	-0.895617	0.605551	0.753731	-0.255336	0.782382	-0.505177	0.364244
04268		0.125825	-0.470009	-0.873647	0.617327	0.726466	-0.301919	0.776579	-0.501337	0.381557
04269		0.103329	-0.521635	-0.846888	0.630751	0.692714	-0.349714	0.769075	-0.498040	0.400599
04270		0.078982	-0.573953	-0.815070	0.645847	0.652287	-0.396741	0.759370	-0.495075	0.422205
04271		0.050896	-0.624435	-0.779417	0.665410	0.603174	-0.439785	0.744741	-0.496248	0.446205
04272		0.013718	-0.667391	-0.744581	0.690081	0.545201	-0.475967	0.723602	-0.507292	0.468033
04273		-0.032201	-0.701078	-0.712357	0.710939	0.484896	-0.509354	0.702516	-0.522844	0.482810
04274		-0.072642	-0.735490	-0.673630	0.722199	0.427031	-0.544126	0.687860	-0.526022	0.500150
04275		-0.103024	-0.778174	-0.619541	0.741010	0.355458	-0.569696	0.663544	-0.517779	0.540014
04276		-0.134000	-0.819689	-0.556915	0.768858	0.268567	-0.580283	0.625221	-0.505947	0.594236
04277		-0.168526	-0.854410	-0.491510	0.788043	0.182745	-0.587871	0.592104	-0.486403	0.642515
04278		-0.204424	-0.880639	-0.427418	0.798267	0.102741	-0.593476	0.566552	-0.462515	0.681982
04279		-0.235971	-0.901186	-0.363567	0.800487	0.031852	-0.598503	0.550943	-0.432260	0.713872
04280		-0.263936	-0.917100	-0.298772	0.795887	-0.032088	-0.604594	0.544887	-0.397363	0.738377
04281		-0.305862	-0.923469	-0.231631	0.777447	-0.101822	-0.620652	0.549568	-0.369914	0.749092
04282		-0.358424	-0.919997	-0.158551	0.745974	-0.180131	-0.641152	0.561298	-0.348079	0.750857
04283		-0.414876	-0.905547	-0.088671	0.710476	-0.261532	-0.653319	0.568421	-0.334044	0.751873
04284		-0.462673	-0.886313	-0.019580	0.686251	-0.344080	-0.640835	0.561243	-0.309933	0.767429
04285		-0.498683	-0.866093	0.034613	0.651586	-0.400909	-0.643978	0.571622	-0.298588	0.764260
04286		-0.515698	-0.854064	0.068043	0.635981	-0.434809	-0.637550	0.574095	-0.285509	0.767398
04287		-0.528757	-0.844989	0.080064	0.627069	-0.452472	-0.634077	0.572015	-0.285067	0.769114
04288		-0.531646	-0.840778	0.102202	0.605132	-0.461497	-0.648719	0.592594	-0.283043	0.754134
04289		-0.530944	-0.838052	0.125569	0.567848	-0.461848	-0.681355	0.629005	-0.290458	0.721101
04290		-0.523266	-0.840080	0.143035	0.538642	-0.456121	-0.708391	0.660346	-0.293632	0.691175
04291		-0.508516	-0.845748	0.161623	0.524085	-0.452941	-0.721235	0.683189	-0.282055	0.673571
04292		-0.496252	-0.850286	0.175352	0.532658	-0.457688	-0.711897	0.685572	-0.259877	0.680040
04293		-0.486974	-0.855392	0.176527	0.550099	-0.457366	-0.698718	0.678415	-0.243150	0.693275
04294		-0.477846	-0.863161	0.163147	0.577794	-0.448727	-0.681761	0.661677	-0.231512	0.713152
04295		-0.463208	-0.874004	0.146815	0.624399	-0.439402	-0.645795	0.628939	-0.207466	0.749262
04296		-0.443596	-0.886516	0.131573	0.677012	-0.427660	-0.598967	0.587263	-0.176623	0.789891
04297		-0.419455	-0.900536	0.114421	0.727013	-0.408731	-0.551716	0.543608	-0.148235	0.826146
04298		-0.389795	-0.916018	0.094719	0.763757	-0.379031	-0.522505	0.514525	-0.131327	0.847359
04299		-0.355820	-0.931966	0.069505	0.783939	-0.338135	-0.520677	0.508755	-0.130780	0.850920
04300		-0.318658	-0.947086	0.038551	0.789600	-0.287731	-0.541981	0.524395	-0.142266	0.839506
04301		-0.280983	-0.959709	0.002703	0.782081	-0.230608	-0.578938	0.556235	-0.160558	0.815367
04302		-0.245076	-0.968808	-0.036720	0.762509	-0.169221	-0.624455	0.598764	-0.181038	0.780197
04303		-0.213858	-0.973661	-0.079054	0.734880	-0.107037	-0.669697	0.643596	-0.201315	0.738415
04304		-0.189509	-0.974142	-0.123018	0.705965	-0.048105	-0.706611	0.682422	-0.220755	0.696827
04305		-0.169126	-0.971571	-0.165667	0.682930	0.005673	-0.730462	0.710636	-0.236679	0.662555
04306		-0.148349	-0.966862	-0.207775	0.668722	0.056708	-0.741347	0.728563	-0.248922	0.638149
04307		-0.126101	-0.959397	-0.252300	0.666297	0.106512	-0.738040	0.734947	-0.261174	0.625813
04308		-0.102102	-0.948488	-0.299911	0.676356	0.154889	-0.720105	0.729464	-0.276370	0.625701
04309		-0.075770	-0.933781	-0.349731	0.693951	0.202480	-0.690966	0.716025	-0.295051	0.632656
04310		-0.048200	-0.914975	-0.400622	0.714568	0.248659	-0.653881	0.697903	-0.317789	0.641827
04311		-0.020150	-0.891764	-0.452051	0.733498	0.294059	-0.612788	0.679393	-0.343927	0.648182
04312		0.008173	-0.863472	-0.504331	0.745240	0.341543	-0.572683	0.666746	-0.371167	0.646286
04313		0.034566	-0.830603	-0.555792	0.751512	0.388203	-0.533412	0.658814	-0.399246	0.637626
04314		0.063851	-0.794289	-0.604175	0.754609	0.434605	-0.491613	0.653061	-0.424526	0.627128
04315		0.093063	-0.753841	-0.650433	0.756067	0.478565	-0.446473	0.647844	-0.450221	0.614491
04316		0.121226	-0.709741	-0.693954	0.754148	0.520425	-0.400522	0.645418	-0.474790	0.598339
04317		0.146923	-0.665626	-0.731680	0.749814	0.557389	-0.356505	0.645130	-0.496245	0.580989
04318		0.173047	-0.620916	-0.764538	0.743792	0.591226	-0.311811	0.645623	-0.514699	0.564142
04319		0.194507	-0.576218	-0.793813	0.738362	0.618766	-0.268234	0.645746	-0.533948	0.545812
04320		0.215680	-0.529739	-0.820280	0.729687	0.645664	-0.225112	0.648876	-0.549995	0.525800
04321		0.232967	-0.482356	-0.844428	0.719876	0.669342	-0.183739	0.653839	-0.565078	0.503171
04322		0.250819	-0.435363	-0.864609	0.704679	0.694493	-0.145280	0.663715	-0.572833	0.480983
04323		0.271704	-0.391250	-0.879261	0.687263	0.718438	-0.107314	0.673681	-0.575126	0.464094
04324		0.294226	-0.347750	-0.890225	0.668069	0.740927	-0.068628	0.683458	-0.574540	0.450321
04325		0.313617	-0.305666	-0.899007	0.650529	0.758846	-0.031075	0.691706	-0.575084	0.436831
04326		0.328002	-0.265511	-0.906597	0.633426	0.773799	0.002551	0.700847	-0.575099	0.421989
04327		0.338141	-0.229098	-0.912784	0.618902	0.784804	0.032295	0.708958	-0.575845	0.407164
04328		0.345921	-0.197075	-0.917333	0.606500	0.792939	0.058357	0.715889	-0.576549	0.393821
04329		0.352807	-0.169079	-0.920293	0.596038	0.798785	0.081744	0.721295	-0.577370	0.382594
04330		0.359142	-0.144923	-0.921962	0.587032	0.803056	0.102441	0.725541	-0.578012	0.373486
04331		0.364263	-0.124094	-0.922991	0.579325	0.806179	0.120244	0.729174	-0.578513	0.365552
04332		0.368013	-0.106423	-0.923710	0.572468	0.808754	0.134896	0.732698	-0.578438	0.358556
04333		0.370197	-0.091949	-0.924391	0.566602	0.810909	0.146250	0.736149	-0.577904	0.352295
04334		0.371258	-0.080981	-0.924992	0.562019	0.812579	0.154435	0.739123	-0.577198	0.347189
04335		0.371547	-0.073209	-0.925523	0.559283	0.813353	0.160185	0.741050	-0.577146	0.343143
04336		0.371335	-0.068383	-0.925977	0.557459	0.813958	0.163441	0.742530	-0.576885	0.340372
04337		0.370741	-0.066482	-0.926354	0.556458	0.814479	0.164250	0.743576	-0.576372	0.338955
04338		0.369831	-0.067161	-0.926669	0.556063	0.815029	0.162854	0.744325	-0.575514	0.338769
04339		0.368454	-0.070368	-0.926979	0.556177	0.815683	0.159149	0.744922	-0.574204	0.339679
04340		0.366454	-0.075896	-0.927336	0.557254	0.816045	0.153422	0.745104	-0.572984	0.341336
04341		0.363493	-0.083810	-0.927819	0.559239	0.816161	0.145370	0.745067	-0.571714	0.343539
04342		0.359734	-0.093828	-0.928325	0.561918	0.816058	0.135267	0.744875	-0.570303	0.346287
04343		0.355124	-0.105279	-0.928872	0.565635	0.815303	0.123845	0.744274	-0.569383	0.349084
04344		0.349698	-0.117667	-0.929444	0.569905	0.814131	0.111355	0.743586	-0.568635	0.351759
04345		0.343697	-0.130795	-0.929928	0.574202	0.812839	0.097896	0.743077	-0.567613	0.354473
04346		0.337692	-0.144597	-0.930084	0.578176	0.811603	0.083745	0.742749	-0.566032	0.357675
04347		0.332007	-0.158787	-0.929816	0.581761	0.810399	0.069334	0.742513	-0.563951	0.361434
04348		0.326430	-0.173096	-0.929237	0.584524	0.809542	0.054537	0.742816	-0.560963	0.365438
04349		0.320974	-0.187574	-0.928327	0.586492	0.809000	0.039320	0.743641	-0.557078	0.369679
04350		0.315166	-0.202000	-0.927290	0.587838	0.808633	0.023641	0.745062	-0.552547	0.373597
04351		0.309091	-0.216271	-0.926115	0.588997	0.808097	0.007866	0.746690	-0.547910	0.377158
04352		0.303264	-0.230654	-0.924570	0.589655	0.807615	-0.008067	0.748557	-0.542731	0.380926
04353		0.297937	-0.245456	-0.922488	0.589533	0.807375	-0.024425	0.750789	-0.536560	0.385252
04354		0.292936	-0.260439	-0.919978	0.589041	0.807067	-0.040914	0.753140	-0.529919	0.389828
04355		0.287907	-0.275192	-0.917267	0.588664	0.806355	-0.057150	0.755370	-0.523508	0.394151
04356		0.283156	-0.290001	-0.914179	0.588406	0.805246	-0.073193	0.757365	-0.517183	0.398648
04357		0.279166	-0.305143	-0.910469	0.587877	0.804016	-0.089212	0.759254	-0.510339	0.403840
04358		0.275434	-0.320502	-0.906319	0.587002	0.802687	-0.105462	0.761291	-0.502964	0.409223
04359		0.272069	-0.336252	-0.901617	0.586513	0.800752	-0.121651	0.762877	-0.495712	0.415076
04360		0.268987	-0.352350	-0.896379	0.586552	0.798118	-0.137712	0.763939	-0.488730	0.421355
04361		0.266293	-0.368945	-0.890487	0.586386	0.795234	-0.154126	0.765010	-0.481126	0.428109
04362		0.264483	-0.386211	-0.883679	0.586137	0.792021	-0.170723	0.765828	-0.472804	0.435849
04363		0.263065	-0.404107	-0.876068	0.585299	0.788708	-0.188057	0.766956	-0.463290	0.444005
04364		0.261863	-0.422756	-0.867586	0.583970	0.785120	-0.206313	0.768379	-0.452619	0.452471
04365		0.261562	-0.442119	-0.857972	0.582784	0.780929	-0.224750	0.769381	-0.441227	0.461921
04366		0.262794	-0.462404	-0.846830	0.580408	0.776882	-0.244094	0.770757	-0.427361	0.472543
04367		0.265276	-0.483544	-0.834155	0.577343	0.772564	-0.264236	0.772207	-0.411498	0.484113
04368		0.268926	-0.505605	-0.819782	0.573757	0.767734	-0.285285	0.773616	-0.393635	0.496558
04369		0.273250	-0.528619	-0.803677	0.569879	0.762036	-0.307472	0.774966	-0.373982	0.509475
04370		0.277718	-0.552517	-0.785874	0.566203	0.755006	-0.330727	0.776071	-0.353115	0.522516
04371		0.282758	-0.577262	-0.766040	0.562962	0.746486	-0.354728	0.776609	-0.330949	0.536051
04372		0.288508	-0.602503	-0.744146	0.560133	0.736532	-0.379172	0.776540	-0.307426	0.549977
04373		0.294742	-0.628108	-0.720144	0.557946	0.724938	-0.403932	0.775773	-0.282746	0.564120
04374		0.301169	-0.653515	-0.694417	0.555822	0.712034	-0.429034	0.774829	-0.256760	0.577680
04375		0.307594	-0.678760	-0.666837	0.553345	0.697727	-0.454958	0.774077	-0.229048	0.590205
04376		0.314034	-0.703753	-0.637271	0.549958	0.681985	-0.482124	0.773905	-0.199070	0.601201
04377		0.321368	-0.728360	-0.605156	0.546863	0.664468	-0.509336	0.773087	-0.167253	0.611852
04378		0.329543	-0.752267	-0.570523	0.543477	0.645267	-0.536901	0.772033	-0.133134	0.621483
04379		0.337706	-0.774814	-0.534432	0.540426	0.624485	-0.563878	0.770645	-0.098396	0.629622
04380		0.344925	-0.796083	-0.497272	0.538105	0.601792	-0.590161	0.769071	-0.064023	0.635949
04381		0.350071	-0.816239	-0.459569	0.537427	0.576847	-0.615158	0.767218	-0.031636	0.640606
04382		0.354357	-0.835174	-0.420613	0.539872	0.549984	-0.637225	0.763524	-0.001273	0.645778
04383		0.358899	-0.852716	-0.379562	0.544488	0.521565	-0.656889	0.758106	0.029090	0.651483
04384		0.363702	-0.868634	-0.336445	0.551124	0.491840	-0.674060	0.750989	0.059734	0.657608
04385		0.364822	-0.883674	-0.293299	0.557937	0.459673	-0.690947	0.745394	0.088430	0.660733
04386		0.368624	-0.895307	-0.250083	0.563035	0.429106	-0.706299	0.739667	0.119553	0.662268
04387		0.369368	-0.906041	-0.206538	0.570656	0.396562	-0.719090	0.733430	0.147747	0.663514
04388		0.371860	-0.914064	-0.161887	0.578842	0.364659	-0.729360	0.725715	0.177512	0.664701
04389		0.373261	-0.920467	-0.115830	0.587553	0.331168	-0.738315	0.717954	0.207528	0.664436
04390		0.377338	-0.923558	-0.068246	0.596991	0.298926	-0.744476	0.707967	0.240177	0.664152
04391		0.378525	-0.925363	-0.020542	0.607825	0.265249	-0.748460	0.698046	0.270825	0.662862
04392		0.378694	-0.925163	0.025778	0.617646	0.231880	-0.751495	0.689278	0.300508	0.659235
04393		0.375139	-0.924167	0.072019	0.629320	0.196868	-0.751797	0.680608	0.327351	0.655450
04394		0.369420	-0.921767	0.117788	0.642180	0.161616	-0.749323	0.671665	0.352456	0.651645
04395		0.361366	-0.918052	0.163080	0.654248	0.125032	-0.745873	0.664360	0.376228	0.645816
04396		0.353435	-0.912218	0.207226	0.665902	0.089756	-0.740621	0.657008	0.399753	0.639170
04397		0.345855	-0.904452	0.249700	0.679113	0.057662	-0.731765	0.647448	0.422659	0.634169
04398		0.338993	-0.895079	0.289684	0.692805	0.029192	-0.720534	0.636479	0.444950	0.630011
04399		0.332778	-0.884576	0.326779	0.705756	0.003793	-0.708444	0.625433	0.466381	0.625557
04400		0.327399	-0.873186	0.361049	0.716011	-0.020063	-0.697801	0.616554	0.486975	0.618642
04401		0.323224	-0.861089	0.392494	0.722694	-0.043152	-0.689820	0.610933	0.506619	0.608357
04402		0.320694	-0.847453	0.423059	0.727027	-0.066052	-0.683424	0.607114	0.526745	0.594939
04403		0.318493	-0.833073	0.452273	0.730306	-0.088532	-0.677359	0.604331	0.546032	0.580201
04404		0.315699	-0.818657	0.479723	0.734273	-0.109439	-0.669975	0.600980	0.563758	0.566568
04405		0.312696	-0.804412	0.505116	0.737131	-0.129872	-0.663152	0.599048	0.579702	0.552347
04406		0.310805	-0.790268	0.528087	0.737336	-0.150135	-0.658631	0.599780	0.594084	0.536030
04407		0.310944	-0.776813	0.547609	0.733103	-0.170657	-0.658358	0.604875	0.606167	0.516419
04408		0.311609	-0.765324	0.563187	0.725148	-0.191485	-0.661434	0.614052	0.614502	0.495304
04409		0.310310	-0.757356	0.574561	0.717799	-0.209598	-0.663952	0.623275	0.618450	0.478589
04410		0.307622	-0.751416	0.583731	0.713850	-0.223364	-0.663722	0.629116	0.620872	0.467687
04411		0.304927	-0.745413	0.592772	0.711401	-0.235539	-0.662141	0.633189	0.623603	0.458465
04412		0.303443	-0.738673	0.601901	0.707029	-0.248922	-0.661927	0.638774	0.626419	0.446730
04413		0.303141	-0.732262	0.609834	0.700097	-0.263025	-0.663839	0.646506	0.628180	0.432921
04414		0.302558	-0.727529	0.615759	0.693115	-0.275516	-0.666094	0.654255	0.628324	0.420902
04415		0.300570	-0.725170	0.619505	0.687913	-0.285078	-0.667462	0.660631	0.626785	0.413168
04416		0.297300	-0.724786	0.621528	0.683715	-0.292764	-0.668448	0.666443	0.623678	0.408508
04417		0.293763	-0.725458	0.622427	0.679473	-0.299515	-0.669781	0.672324	0.619679	0.404943
04418		0.290526	-0.727324	0.621767	0.674155	-0.305548	-0.672425	0.679051	0.614524	0.401560
04419		0.289554	-0.729555	0.619602	0.664747	-0.312476	-0.678579	0.688672	0.608365	0.394491
04420		0.292437	-0.731343	0.616131	0.649525	-0.320967	-0.689273	0.701853	0.601762	0.381163
04421		0.299830	-0.732053	0.611719	0.631722	-0.328137	-0.702320	0.714863	0.597013	0.364069
04422		0.310836	-0.730833	0.607671	0.615604	-0.332315	-0.714562	0.724163	0.596196	0.346608
04423		0.320505	-0.728954	0.604898	0.609161	-0.330411	-0.720938	0.725396	0.599545	0.338152
04424		0.326051	-0.729763	0.600946	0.616055	-0.318149	-0.720595	0.717054	0.605167	0.345841
04425		0.332347	-0.730537	0.596542	0.627554	-0.300879	-0.718086	0.704075	0.613016	0.358455
04426		0.341295	-0.730512	0.591498	0.644039	-0.276612	-0.713232	0.684640	0.624370	0.376072
04427		0.352206	-0.731571	0.583742	0.661624	-0.246524	-0.708152	0.661970	0.635633	0.397198
04428		0.365899	-0.733397	0.572929	0.674400	-0.215284	-0.706284	0.641329	0.644812	0.415831
04429		0.383899	-0.734247	0.559913	0.679692	-0.185738	-0.709592	0.625013	0.652980	0.427757
04430		0.405482	-0.734312	0.544399	0.675311	-0.160741	-0.719804	0.616068	0.659506	0.430711
04431		0.427377	-0.735768	0.525352	0.660801	-0.142355	-0.736938	0.617002	0.662103	0.425357
04432		0.448785	-0.736258	0.506474	0.641196	-0.129472	-0.756376	0.622462	0.664199	0.413981
04433		0.469919	-0.732834	0.492068	0.626552	-0.115751	-0.770736	0.621779	0.670489	0.404765
04434		0.489992	-0.725563	0.483183	0.621438	-0.097972	-0.777314	0.611329	0.681146	0.402887
04435		0.506164	-0.718803	0.476571	0.613932	-0.087787	-0.784462	0.605711	0.689649	0.396862
04436		0.520048	-0.713414	0.469671	0.598404	-0.088054	-0.796341	0.609477	0.695189	0.381118
04437		0.532450	-0.708829	0.462664	0.578276	-0.094542	-0.810345	0.618137	0.699016	0.359561
04438		0.542574	-0.703747	0.458643	0.561914	-0.101778	-0.820911	0.624393	0.703123	0.340223
04439		0.549749	-0.697361	0.459852	0.553075	-0.108682	-0.826012	0.626006	0.708432	0.325946
04440		0.553076	-0.691062	0.465339	0.550311	-0.116323	-0.826817	0.625511	0.713374	0.315963
04441		0.553345	-0.685238	0.473559	0.555275	-0.120312	-0.822918	0.620870	0.718313	0.313922
04442		0.552141	-0.679623	0.482962	0.565639	-0.120226	-0.815842	0.612530	0.723642	0.318039
04443		0.549902	-0.674371	0.492779	0.578223	-0.118374	-0.807246	0.602715	0.728843	0.324842
04444		0.546045	-0.670398	0.502396	0.590892	-0.116910	-0.798235	0.593870	0.732733	0.332295
04445		0.539701	-0.668263	0.512003	0.603588	-0.116805	-0.788694	0.586860	0.734698	0.340316
04446		0.530927	-0.666797	0.522971	0.619715	-0.115413	-0.776295	0.577988	0.736249	0.351948
04447		0.521310	-0.664164	0.535837	0.635774	-0.116569	-0.763023	0.569234	0.738443	0.361490
04448		0.513253	-0.659850	0.548789	0.646535	-0.123251	-0.752863	0.564415	0.741220	0.363357
04449		0.507999	-0.654913	0.559487	0.650693	-0.133820	-0.747456	0.564389	0.743762	0.358167
04450		0.502936	-0.652825	0.566458	0.648310	-0.148504	-0.746754	0.571621	0.742810	0.348545
04451		0.495298	-0.655248	0.570377	0.640899	-0.167621	-0.749101	0.586454	0.736582	0.336925
04452		0.486337	-0.659109	0.573630	0.629928	-0.190481	-0.752933	0.605530	0.727525	0.322553
04453		0.478232	-0.661817	0.577314	0.616314	-0.215401	-0.757469	0.625660	0.718053	0.304875
04454		0.470936	-0.664720	0.579972	0.602953	-0.237365	-0.761646	0.643946	0.708383	0.289011
04455		0.463308	-0.669440	0.580686	0.592365	-0.253417	-0.764777	0.659127	0.698305	0.279142
04456		0.456388	-0.675067	0.579650	0.583337	-0.264915	-0.767814	0.671884	0.688553	0.272887
04457		0.452045	-0.680628	0.576542	0.572319	-0.274456	-0.772739	0.684183	0.679278	0.265470
04458		0.450189	-0.686329	0.571212	0.558662	-0.282545	-0.779785	0.696582	0.670165	0.256227
04459		0.449851	-0.691507	0.565200	0.544539	-0.289240	-0.787285	0.707892	0.661935	0.246438
04460		0.450611	-0.694675	0.560693	0.535177	-0.292490	-0.792487	0.714518	0.657173	0.239975
04461		0.451294	-0.695858	0.558672	0.534082	-0.290928	-0.793799	0.714905	0.656614	0.240352
04462		0.453211	-0.695193	0.557949	0.541133	-0.282828	-0.791950	0.708361	0.660845	0.248011
04463		0.456280	-0.694017	0.556910	0.553530	-0.268657	-0.788307	0.696716	0.667955	0.261576
04464		0.459086	-0.693879	0.554772	0.568315	-0.250594	-0.783723	0.682832	0.675081	0.279298
04465		0.460960	-0.695021	0.551780	0.584679	-0.229888	-0.778012	0.667582	0.681246	0.300395
04466		0.461890	-0.696977	0.548526	0.602215	-0.207591	-0.770872	0.651149	0.686388	0.323846
04467		0.462332	-0.699511	0.544915	0.619670	-0.184675	-0.762827	0.634238	0.690347	0.348085
04468		0.463111	-0.702020	0.541014	0.635570	-0.162391	-0.754771	0.617720	0.693396	0.370978
04469		0.465165	-0.704159	0.536452	0.648478	-0.141450	-0.747976	0.602576	0.695810	0.390834
04470		0.468687	-0.705930	0.531033	0.657099	-0.123160	-0.743675	0.590384	0.697492	0.406143
04471		0.473075	-0.707927	0.524443	0.661022	-0.108329	-0.742506	0.582452	0.697929	0.416707
04472		0.478041	-0.710554	0.516323	0.659680	-0.097665	-0.745174	0.579913	0.696832	0.422050
04473		0.483847	-0.713633	0.506576	0.653203	-0.090742	-0.751726	0.582424	0.694618	0.422242
04474		0.490590	-0.716900	0.495355	0.642230	-0.086742	-0.761588	0.588951	0.691759	0.417859
04475		0.498008	-0.720157	0.483077	0.627723	-0.084964	-0.773786	0.598291	0.688590	0.409746
04476		0.506375	-0.722807	0.470250	0.610220	-0.084945	-0.787665	0.609274	0.685810	0.398057
04477		0.515553	-0.724750	0.457103	0.590666	-0.085864	-0.802335	0.620740	0.683641	0.383818
04478		0.525286	-0.726085	0.443705	0.570692	-0.086170	-0.816631	0.631178	0.682184	0.369107
04479		0.535552	-0.726965	0.429775	0.551316	-0.084538	-0.830003	0.639715	0.681451	0.355513
04480		0.545805	-0.728057	0.414764	0.533213	-0.080046	-0.842186	0.646360	0.680827	0.344520
04481		0.555546	-0.729912	0.398242	0.517756	-0.071093	-0.852569	0.650613	0.679834	0.338421
04482		0.564440	-0.732912	0.379799	0.505740	-0.056598	-0.860827	0.652407	0.677965	0.338717
04483		0.572309	-0.737183	0.359199	0.497227	-0.036364	-0.866858	0.652095	0.674714	0.345736
04484		0.579086	-0.742678	0.336288	0.491657	-0.010908	-0.870720	0.650333	0.669560	0.358826
04485		0.585334	-0.748585	0.311455	0.489179	0.019712	-0.871961	0.646597	0.662746	0.377730
04486		0.591890	-0.753859	0.285242	0.489911	0.055463	-0.870006	0.640042	0.654691	0.402152
04487		0.599056	-0.757909	0.258273	0.492729	0.094684	-0.865016	0.631150	0.645452	0.430165
04488		0.606592	-0.760901	0.230383	0.494940	0.134655	-0.858430	0.622158	0.634743	0.458281
04489		0.614269	-0.763025	0.201163	0.495693	0.174769	-0.850731	0.613972	0.622293	0.485582
04490		0.621715	-0.764416	0.170700	0.494623	0.214195	-0.842300	0.607304	0.608103	0.511266
04491		0.628952	-0.764946	0.138844	0.490881	0.252249	-0.833910	0.602873	0.592645	0.534150
04492		0.636336	-0.764173	0.105429	0.483670	0.288765	-0.826243	0.600949	0.576762	0.553359
04493		0.644151	-0.761609	0.070865	0.472687	0.323518	-0.819697	0.601362	0.561506	0.568397
04494		0.652459	-0.756977	0.035821	0.458699	0.356856	-0.813787	0.603235	0.547393	0.580059
04495		0.660527	-0.750802	0.000863	0.443033	0.388835	-0.807793	0.606157	0.533951	0.589466
04496		0.667867	-0.743503	-0.034028	0.425838	0.419215	-0.801824	0.610423	0.521021	0.596591
04497		0.673548	-0.735892	-0.069251	0.407151	0.447582	-0.796177	0.616896	0.508068	0.601087
04498		0.677454	-0.727887	-0.106009	0.385874	0.474375	-0.791246	0.626225	0.495126	0.602240
04499		0.679004	-0.719784	-0.144446	0.363812	0.500811	-0.785385	0.637647	0.480728	0.601919
04500		0.679439	-0.710403	-0.183549	0.343226	0.528825	-0.776234	0.648505	0.464405	0.603133
04501		0.680378	-0.698440	-0.221963	0.324461	0.558648	-0.763307	0.657123	0.447319	0.606708
04502		0.682932	-0.682573	-0.260190	0.307813	0.591924	-0.744901	0.662462	0.428626	0.614349
04503		0.684349	-0.665167	-0.298696	0.295582	0.627553	-0.720284	0.666557	0.404636	0.626076
04504		0.683689	-0.647370	-0.336870	0.287226	0.663055	-0.691273	0.670873	0.375858	0.639265
04505		0.680127	-0.630112	-0.374680	0.280666	0.695964	-0.660954	0.677239	0.344373	0.650195
04506		0.674161	-0.612404	-0.412879	0.273811	0.726409	-0.630363	0.685956	0.311915	0.657400
04507		0.665242	-0.594569	-0.451599	0.269763	0.755397	-0.597162	0.696190	0.275433	0.662915
04508		0.655663	-0.574509	-0.489945	0.267306	0.783479	-0.560989	0.706155	0.236854	0.667267
04509		0.647878	-0.551197	-0.525771	0.265801	0.810421	-0.522081	0.713865	0.198494	0.671563
04510		0.642050	-0.524811	-0.558879	0.264516	0.835853	-0.481021	0.719586	0.161007	0.675480
04511		0.635228	-0.497515	-0.590732	0.265505	0.858930	-0.437889	0.725253	0.121317	0.677709
04512		0.626481	-0.469263	-0.622345	0.267510	0.879406	-0.393805	0.732093	0.080228	0.676464
04513		0.614585	-0.441890	-0.653466	0.270567	0.896209	-0.351572	0.740998	0.039265	0.670358
04514		0.600774	-0.415352	-0.683047	0.273766	0.909660	-0.312362	0.751081	0.000664	0.660210
04515		0.585173	-0.391555	-0.710110	0.279563	0.919424	-0.276594	0.761194	-0.036665	0.647487
04516		0.569707	-0.369064	-0.734320	0.283943	0.926868	-0.245546	0.771239	-0.068616	0.632836
04517		0.553592	-0.348066	-0.756562	0.285553	0.932730	-0.220169	0.782301	-0.094155	0.615743
04518		0.536176	-0.326561	-0.778379	0.283224	0.938276	-0.198549	0.795173	-0.113999	0.595571
04519		0.516267	-0.305045	-0.800260	0.278970	0.943352	-0.179619	0.809719	-0.130517	0.572120
04520		0.495599	-0.282194	-0.821431	0.267769	0.949323	-0.164576	0.826245	-0.138390	0.546046
04521		0.476182	-0.260380	-0.839913	0.255200	0.954967	-0.151364	0.841501	-0.142268	0.521187
04522		0.460085	-0.239193	-0.855049	0.243782	0.960049	-0.137392	0.853752	-0.145233	0.500015
04523		0.446049	-0.220394	-0.867449	0.234847	0.964067	-0.124182	0.863648	-0.148327	0.481780
04524		0.432200	-0.204998	-0.878168	0.228317	0.966965	-0.113357	0.872396	-0.151508	0.464727
04525		0.415747	-0.192980	-0.888771	0.224006	0.968852	-0.105583	0.881462	-0.155195	0.446026
04526		0.395758	-0.183450	-0.899845	0.221933	0.969907	-0.100126	0.891135	-0.160080	0.424562
04527		0.373622	-0.176888	-0.910559	0.223339	0.969924	-0.096780	0.900293	-0.167204	0.401891
04528		0.351823	-0.172816	-0.919976	0.227588	0.969111	-0.095011	0.907978	-0.175948	0.380286
04529		0.330973	-0.169782	-0.928241	0.233919	0.967740	-0.093601	0.914188	-0.186154	0.360011
04530		0.310364	-0.167491	-0.935746	0.240411	0.966186	-0.093201	0.919715	-0.196038	0.340136
04531		0.289864	-0.167055	-0.942375	0.247102	0.964327	-0.094940	0.924619	-0.205343	0.320803
04532		0.270254	-0.168079	-0.948004	0.256048	0.961733	-0.097519	0.928118	-0.216379	0.302948
04533		0.249755	-0.169961	-0.953276	0.266563	0.958505	-0.101054	0.930896	-0.228869	0.284697
04534		0.229820	-0.172460	-0.957831	0.277390	0.954960	-0.105387	0.932865	-0.241473	0.267307
04535		0.210468	-0.173258	-0.962125	0.291384	0.950554	-0.107434	0.933166	-0.257736	0.250546
04536		0.190047	-0.172094	-0.966574	0.304190	0.946390	-0.108690	0.933461	-0.273366	0.232208
04537		0.172284	-0.169563	-0.970343	0.311857	0.943792	-0.109554	0.934379	-0.283734	0.215480
04538		0.160973	-0.163079	-0.973392	0.317619	0.942348	-0.105352	0.934455	-0.292209	0.203490
04539		0.151538	-0.152174	-0.976668	0.323170	0.941404	-0.096537	0.934129	-0.301001	0.191836
04540		0.144154	-0.139291	-0.979703	0.328910	0.940499	-0.085321	0.933294	-0.309934	0.181391
04541		0.140955	-0.126102	-0.981952	0.334973	0.939430	-0.072558	0.931625	-0.318700	0.174658
04542		0.142205	-0.112480	-0.983426	0.339210	0.938900	-0.058337	0.929900	-0.325292	0.171671
04543		0.146296	-0.098087	-0.984366	0.339922	0.939466	-0.043094	0.929005	-0.328303	0.170782
04544		0.152028	-0.083467	-0.984846	0.336588	0.941241	-0.027813	0.929299	-0.327259	0.171189
04545		0.158733	-0.068687	-0.984929	0.330897	0.943584	-0.012475	0.930221	-0.323930	0.172507
04546		0.166040	-0.053815	-0.984649	0.323206	0.946325	0.002781	0.931648	-0.318706	0.174522
04547		0.173467	-0.038967	-0.984069	0.314279	0.949164	0.017815	0.933348	-0.312362	0.176895
04548		0.180530	-0.025112	-0.983249	0.305047	0.951810	0.031699	0.935070	-0.305659	0.179490
04549		0.187717	-0.012569	-0.982143	0.295406	0.954347	0.044248	0.936748	-0.298437	0.182860
04550		0.195222	-0.001168	-0.980758	0.285761	0.956678	0.055742	0.938205	-0.291145	0.187099
04551		0.203260	0.009395	-0.979080	0.277039	0.958540	0.066712	0.939114	-0.284803	0.192230
04552		0.211444	0.018494	-0.977215	0.272302	0.959120	0.077071	0.938692	-0.282394	0.197764
04553		0.218773	0.026561	-0.975414	0.272105	0.958315	0.087125	0.937068	-0.284476	0.202426
04554		0.225098	0.033580	-0.973757	0.274854	0.956629	0.096526	0.934765	-0.289369	0.206106
04555		0.230566	0.039566	-0.972252	0.281037	0.953884	0.105466	0.931589	-0.297556	0.208814
04556		0.235129	0.044395	-0.970950	0.289472	0.950427	0.113557	0.927858	-0.307764	0.210621
04557		0.238696	0.047745	-0.969920	0.301118	0.945921	0.120668	0.923229	-0.320864	0.211411
04558		0.241084	0.049893	-0.969221	0.313159	0.941258	0.126349	0.918591	-0.333981	0.211298
04559		0.242507	0.050652	-0.968827	0.325558	0.936480	0.130451	0.913894	-0.347044	0.210613
04560		0.243098	0.050103	-0.968707	0.338056	0.931678	0.133023	0.909187	-0.359814	0.209551
04561		0.242825	0.048509	-0.968857	0.350598	0.926850	0.134276	0.904498	-0.372285	0.208055
04562		0.241785	0.046082	-0.969235	0.363220	0.921953	0.134442	0.899784	-0.384551	0.206176
04563		0.239993	0.043002	-0.969822	0.376076	0.916889	0.133719	0.894969	-0.396818	0.203875
04564		0.237517	0.039386	-0.970585	0.389548	0.911452	0.132315	0.889853	-0.409516	0.201143
04565		0.234469	0.035083	-0.971490	0.403833	0.905525	0.130165	0.884276	-0.422839	0.198150
04566		0.230828	0.030205	-0.972526	0.418911	0.899052	0.127351	0.878198	-0.436798	0.194873
04567		0.226604	0.024797	-0.973671	0.434360	0.892190	0.123811	0.871770	-0.450980	0.191403
04568		0.221914	0.019150	-0.974878	0.449870	0.885024	0.119791	0.865084	-0.465152	0.187784
04569		0.216942	0.013335	-0.976093	0.464888	0.877828	0.115316	0.858380	-0.478791	0.184239
04570		0.212108	0.007431	-0.977218	0.479090	0.870769	0.110609	0.851753	-0.491636	0.181137
04571		0.207051	0.001652	-0.978329	0.491999	0.864170	0.105584	0.845616	-0.503198	0.178114
04572		0.202048	-0.003848	-0.979368	0.503022	0.858422	0.100403	0.840325	-0.512930	0.175378
04573		0.197520	-0.009191	-0.980256	0.511242	0.854169	0.095005	0.836431	-0.519913	0.173415
04574		0.193890	-0.014309	-0.980919	0.516203	0.851766	0.089609	0.834231	-0.523728	0.172535
04575		0.190963	-0.019079	-0.981412	0.517913	0.851277	0.084226	0.833846	-0.524370	0.172444
04576		0.188526	-0.023559	-0.981785	0.516811	0.852467	0.078784	0.835083	-0.522250	0.172888
04577		0.186508	-0.027878	-0.982058	0.513596	0.854898	0.073272	0.837516	-0.518047	0.173763
04578		0.184844	-0.032013	-0.982246	0.509007	0.858086	0.067821	0.840681	-0.512506	0.174907
04579		0.183328	-0.035909	-0.982396	0.503886	0.861503	0.062541	0.844091	-0.506481	0.176031
04580		0.181838	-0.039529	-0.982534	0.498891	0.864753	0.057539	0.847374	-0.500640	0.176966
04581		0.180395	-0.042974	-0.982655	0.494725	0.867439	0.052886	0.850121	-0.495684	0.177741
04582		0.178948	-0.046275	-0.982770	0.491909	0.869287	0.048638	0.852058	-0.492137	0.178320
04583		0.177478	-0.049372	-0.982885	0.490495	0.870289	0.044852	0.853180	-0.490061	0.178674
04584		0.176061	-0.052427	-0.982982	0.490521	0.870444	0.041432	0.853458	-0.489468	0.178968
04585		0.174553	-0.055480	-0.983083	0.491887	0.869818	0.038250	0.852982	-0.490243	0.179120
04586		0.172802	-0.058595	-0.983212	0.494414	0.868516	0.035134	0.851877	-0.492185	0.179052
04587		0.170705	-0.061767	-0.983384	0.497875	0.866659	0.031990	0.850283	-0.495063	0.178695
04588		0.168196	-0.064974	-0.983610	0.501928	0.864432	0.028727	0.848397	-0.498533	0.178007
04589		0.165295	-0.068182	-0.983885	0.506435	0.861905	0.025353	0.846286	-0.502465	0.176999
04590		0.162019	-0.071473	-0.984196	0.511285	0.859135	0.021777	0.844001	-0.506733	0.175740
04591		0.158574	-0.074804	-0.984509	0.516193	0.856281	0.018082	0.841664	-0.511064	0.174398
04592		0.155134	-0.078030	-0.984807	0.521032	0.853415	0.014457	0.839321	-0.515358	0.173050
04593		0.151628	-0.081055	-0.985109	0.525558	0.850688	0.010899	0.837137	-0.519385	0.171587
04594		0.148227	-0.083981	-0.985381	0.529626	0.848199	0.007380	0.835180	-0.522977	0.170204
04595		0.144885	-0.086933	-0.985622	0.533180	0.845993	0.003759	0.833503	-0.526059	0.168923
04596		0.141596	-0.089946	-0.985830	0.536185	0.844101	-0.000002	0.832140	-0.528587	0.167748
04597		0.138251	-0.092924	-0.986028	0.538748	0.842458	-0.003856	0.831046	-0.530688	0.166533
04598		0.134766	-0.095951	-0.986221	0.540946	0.841020	-0.007905	0.830190	-0.532427	0.165245
04599		0.131179	-0.098982	-0.986405	0.543077	0.839596	-0.012028	0.829373	-0.534116	0.163892
04600		0.127569	-0.101904	-0.986581	0.545217	0.838141	-0.016073	0.828532	-0.535850	0.162481
04601		0.123895	-0.104655	-0.986761	0.547553	0.836533	-0.019973	0.827548	-0.537829	0.160946
04602		0.120218	-0.107365	-0.986925	0.550075	0.834776	-0.023808	0.826417	-0.540021	0.159414
04603		0.116563	-0.109956	-0.987078	0.552883	0.832805	-0.027481	0.825065	-0.542536	0.157867
04604		0.112865	-0.112498	-0.987221	0.555988	0.830609	-0.031088	0.823492	-0.545374	0.156294
04605		0.109209	-0.114973	-0.987347	0.559441	0.828150	-0.034556	0.821644	-0.548589	0.154762
04606		0.105608	-0.117292	-0.987466	0.563144	0.825492	-0.037826	0.819582	-0.552091	0.153231
04607		0.102085	-0.119375	-0.987587	0.566982	0.822717	-0.040839	0.817380	-0.555775	0.151671
04608		0.098736	-0.121219	-0.987703	0.570680	0.820015	-0.043590	0.815215	-0.559358	0.150142
04609		0.095639	-0.122908	-0.987799	0.574008	0.817548	-0.046149	0.813245	-0.562591	0.148740
04610		0.092845	-0.124430	-0.987875	0.576980	0.815319	-0.048468	0.811464	-0.565484	0.147492
04611		0.090298	-0.125796	-0.987938	0.579564	0.813355	-0.050594	0.809909	-0.568005	0.146351
04612		0.087927	-0.126871	-0.988015	0.581808	0.811634	-0.052444	0.808560	-0.570223	0.145179
04613		0.085655	-0.127697	-0.988108	0.583796	0.810097	-0.054085	0.807369	-0.572221	0.143938
04614		0.083659	-0.128321	-0.988198	0.585480	0.808788	-0.055458	0.806359	-0.573930	0.142792
04615		0.081949	-0.128697	-0.988292	0.586929	0.807664	-0.056507	0.805481	-0.575426	0.141723
04616		0.080477	-0.128750	-0.988406	0.588132	0.806740	-0.057200	0.804751	-0.576710	0.140646
04617		0.079203	-0.128524	-0.988539	0.589027	0.806058	-0.057605	0.804223	-0.577713	0.139546
04618		0.078283	-0.128117	-0.988665	0.589612	0.805622	-0.057712	0.803884	-0.578410	0.138606
04619		0.077692	-0.127576	-0.988781	0.589974	0.805368	-0.057555	0.803676	-0.578883	0.137837
04620		0.077381	-0.126961	-0.988885	0.590088	0.805309	-0.057217	0.803622	-0.579101	0.137234
04621		0.077250	-0.126237	-0.988988	0.589905	0.805477	-0.056736	0.803769	-0.579026	0.136691
04622		0.077404	-0.125442	-0.989077	0.589495	0.805824	-0.056067	0.804055	-0.578716	0.136321
04623		0.077714	-0.124437	-0.989179	0.588832	0.806369	-0.055179	0.804510	-0.578173	0.135938
04624		0.078237	-0.123270	-0.989284	0.587990	0.807059	-0.054063	0.805076	-0.577460	0.135623
04625		0.078862	-0.121912	-0.989403	0.586990	0.807874	-0.052757	0.805744	-0.576609	0.135272
04626		0.079642	-0.120410	-0.989525	0.585879	0.808776	-0.051261	0.806476	-0.575659	0.134958
04627		0.080515	-0.118794	-0.989649	0.584801	0.809658	-0.049611	0.807171	-0.574754	0.134661
04628		0.081452	-0.117137	-0.989770	0.583741	0.810526	-0.047886	0.807844	-0.573869	0.134397
04629		0.082398	-0.115370	-0.989899	0.582770	0.811332	-0.046049	0.808449	-0.573089	0.134086
04630		0.083362	-0.113604	-0.990023	0.581754	0.812163	-0.044210	0.809082	-0.572264	0.133793
04631		0.084393	-0.111814	-0.990139	0.580792	0.812952	-0.042302	0.809666	-0.571495	0.133548
04632		0.085471	-0.110036	-0.990246	0.579703	0.813826	-0.040397	0.810332	-0.570596	0.133347
04633		0.086593	-0.108244	-0.990346	0.578574	0.814723	-0.038460	0.811020	-0.569658	0.133176
04634		0.087891	-0.106392	-0.990432	0.577073	0.815880	-0.036432	0.811950	-0.568350	0.133104
04635		0.089392	-0.104457	-0.990504	0.575383	0.817167	-0.034249	0.812984	-0.566857	0.133150
04636		0.090974	-0.102503	-0.990564	0.573520	0.818565	-0.032032	0.814124	-0.565194	0.133255
04637		0.092640	-0.100445	-0.990620	0.571643	0.819965	-0.029683	0.815256	-0.563532	0.133380
04638		0.094399	-0.098343	-0.990665	0.569644	0.821439	-0.027264	0.816452	-0.561753	0.133564
04639		0.096259	-0.096146	-0.990702	0.567680	0.822879	-0.024701	0.817603	-0.560023	0.133790
04640		0.098211	-0.093913	-0.990724	0.565726	0.824298	-0.022056	0.818724	-0.558312	0.134084
04641		0.100294	-0.091622	-0.990730	0.563855	0.825649	-0.019275	0.819761	-0.556695	0.134469
04642		0.102426	-0.089326	-0.990722	0.562078	0.826920	-0.016447	0.820717	-0.555179	0.134906
04643		0.104598	-0.086971	-0.990704	0.560342	0.828151	-0.013540	0.821630	-0.553717	0.135357
04644		0.106842	-0.084673	-0.990664	0.558659	0.829329	-0.010633	0.822487	-0.552308	0.135911
04645		0.109162	-0.082367	-0.990606	0.557243	0.830314	-0.007633	0.823143	-0.551175	0.136537
04646		0.111438	-0.079985	-0.990547	0.555694	0.831374	-0.004616	0.823884	-0.549927	0.137093
04647		0.113862	-0.077594	-0.990462	0.553917	0.832571	-0.001547	0.824749	-0.548457	0.137779
04648		0.116419	-0.075269	-0.990344	0.551821	0.833961	0.001486	0.825797	-0.546666	0.138624
04649		0.119059	-0.073030	-0.990198	0.549485	0.835492	0.004449	0.826977	-0.544629	0.139602
04650		0.121674	-0.070898	-0.990035	0.546869	0.837187	0.007257	0.828329	-0.542302	0.140636
04651		0.124168	-0.068908	-0.989866	0.544405	0.838764	0.009901	0.829581	-0.540117	0.141661
04652		0.126576	-0.067019	-0.989690	0.542032	0.840266	0.012423	0.830770	-0.538017	0.142684
04653		0.128864	-0.065225	-0.989515	0.539633	0.841771	0.014789	0.831980	-0.535880	0.143671
04654		0.130961	-0.063565	-0.989348	0.537379	0.843171	0.016961	0.833111	-0.533875	0.144581
04655		0.132928	-0.062077	-0.989180	0.535227	0.844496	0.018927	0.834183	-0.531952	0.145483
04656		0.134747	-0.060831	-0.989011	0.533053	0.845831	0.020601	0.835283	-0.529971	0.146399
04657		0.136306	-0.059617	-0.988871	0.530927	0.847129	0.022111	0.836383	-0.528032	0.147122
04658		0.137778	-0.058594	-0.988728	0.528733	0.848466	0.023396	0.837531	-0.525997	0.147880
04659		0.139187	-0.057687	-0.988584	0.526469	0.849840	0.024533	0.838724	-0.523873	0.148657
04660		0.140453	-0.056962	-0.988447	0.524178	0.851229	0.025428	0.839947	-0.521694	0.149416
04661		0.141555	-0.056323	-0.988327	0.521971	0.852561	0.026175	0.841135	-0.519583	0.150083
04662		0.142502	-0.055898	-0.988215	0.519879	0.853823	0.026671	0.842270	-0.517553	0.150731
04663		0.143217	-0.055625	-0.988127	0.518007	0.854952	0.026951	0.843302	-0.515716	0.151257
04664		0.143710	-0.055446	-0.988065	0.516409	0.855914	0.027080	0.844197	-0.514138	0.151636
04665		0.144010	-0.055365	-0.988026	0.515169	0.856661	0.027085	0.844904	-0.512900	0.151890
04666		0.144158	-0.055482	-0.987998	0.514268	0.857208	0.026899	0.845427	-0.511973	0.152106
04667		0.144117	-0.055687	-0.987993	0.513825	0.857482	0.026620	0.845704	-0.511491	0.152191
04668		0.143848	-0.056033	-0.988012	0.513825	0.857495	0.026179	0.845749	-0.511431	0.152140
04669		0.143348	-0.056395	-0.988064	0.514235	0.857265	0.025676	0.845585	-0.511778	0.151888
04670		0.142831	-0.056938	-0.988108	0.514845	0.856918	0.025042	0.845301	-0.512299	0.151708
04671		0.142348	-0.057541	-0.988143	0.515565	0.856503	0.024395	0.844944	-0.512925	0.151587
04672		0.141812	-0.058251	-0.988178	0.516300	0.856082	0.023629	0.844585	-0.513547	0.151477
04673		0.141138	-0.059052	-0.988227	0.517077	0.855637	0.022720	0.844222	-0.514196	0.151298
04674		0.140367	-0.059905	-0.988286	0.517872	0.855182	0.021717	0.843863	-0.514854	0.151063
04675		0.139469	-0.060797	-0.988358	0.518688	0.854715	0.020616	0.843511	-0.515525	0.150741
04676		0.138505	-0.061817	-0.988431	0.519429	0.854295	0.019357	0.843214	-0.516100	0.150433
04677		0.137511	-0.062962	-0.988497	0.520154	0.853883	0.017971	0.842930	-0.516642	0.150168
04678		0.136382	-0.064137	-0.988578	0.520821	0.853507	0.016478	0.842701	-0.517120	0.149807
04679		0.135148	-0.065393	-0.988665	0.521536	0.853100	0.014866	0.842458	-0.517634	0.149400
04680		0.133899	-0.066679	-0.988749	0.522329	0.852641	0.013235	0.842166	-0.518225	0.148997
04681		0.132586	-0.067989	-0.988837	0.523306	0.852066	0.011581	0.841767	-0.519000	0.148551
04682		0.131289	-0.069319	-0.988918	0.524370	0.851433	0.009934	0.841308	-0.519863	0.148133
04683		0.130001	-0.070704	-0.988990	0.525508	0.850749	0.008257	0.840798	-0.520795	0.147754
04684		0.128718	-0.072062	-0.989059	0.526651	0.850056	0.006605	0.840280	-0.521739	0.147369
04685		0.127366	-0.073453	-0.989132	0.527894	0.849296	0.004906	0.839706	-0.522782	0.146947
04686		0.125983	-0.074843	-0.989205	0.529293	0.848433	0.003217	0.839033	-0.523985	0.146502
04687		0.124514	-0.076187	-0.989289	0.530685	0.847567	0.001521	0.838373	-0.525190	0.145965
04688		0.123084	-0.077506	-0.989365	0.532086	0.846690	-0.000134	0.837696	-0.526411	0.145454
04689		0.121639	-0.078842	-0.989438	0.533631	0.845715	-0.001787	0.836924	-0.527778	0.144944
04690		0.120169	-0.080159	-0.989512	0.535240	0.844693	-0.003426	0.836109	-0.529215	0.144410
04691		0.118717	-0.081460	-0.989581	0.536858	0.843658	-0.005043	0.835278	-0.530666	0.143889
04692		0.117300	-0.082774	-0.989641	0.538502	0.842598	-0.006647	0.834420	-0.532143	0.143411
04693		0.115917	-0.084042	-0.989697	0.540182	0.841508	-0.008190	0.833526	-0.533667	0.142944
04694		0.114612	-0.085344	-0.989738	0.541964	0.840346	-0.009702	0.832550	-0.535290	0.142567
04695		0.113221	-0.086555	-0.989793	0.543731	0.839185	-0.011188	0.831588	-0.536914	0.142075
04696		0.111885	-0.087682	-0.989845	0.545333	0.838125	-0.012602	0.830719	-0.538385	0.141589
04697		0.110632	-0.088802	-0.989886	0.546827	0.837129	-0.013984	0.829904	-0.539749	0.141173
04698		0.109404	-0.089874	-0.989926	0.548181	0.836219	-0.015335	0.829173	-0.540981	0.140753
04699		0.108164	-0.090914	-0.989967	0.549456	0.835356	-0.016681	0.828492	-0.542139	0.140309
04700		0.107024	-0.091942	-0.989996	0.550605	0.834572	-0.017985	0.827877	-0.543172	0.139943
04701		0.105850	-0.092911	-0.990032	0.551738	0.833795	-0.019260	0.827273	-0.544200	0.139520
04702		0.104751	-0.093876	-0.990058	0.552871	0.833015	-0.020490	0.826657	-0.545228	0.139160
04703		0.103652	-0.094791	-0.990086	0.553951	0.832267	-0.021689	0.826072	-0.546211	0.138775
04704		0.102613	-0.095732	-0.990104	0.555071	0.831488	-0.022869	0.825449	-0.547232	0.138460
04705		0.101579	-0.096621	-0.990124	0.556301	0.830635	-0.023985	0.824749	-0.548371	0.138125
04706		0.100498	-0.097516	-0.990147	0.557597	0.829731	-0.025122	0.824006	-0.549579	0.137761
04707		0.099416	-0.098336	-0.990175	0.558954	0.828785	-0.026188	0.823217	-0.550859	0.137360
04708		0.098313	-0.099184	-0.990201	0.560283	0.827851	-0.027294	0.822446	-0.552109	0.136960
04709		0.097172	-0.099898	-0.990241	0.561689	0.826865	-0.028298	0.821622	-0.553458	0.136460
04710		0.096067	-0.100641	-0.990274	0.563117	0.825858	-0.029303	0.820775	-0.554825	0.136010
04711		0.095016	-0.101329	-0.990305	0.564529	0.824860	-0.030236	0.819926	-0.556183	0.135579
04712		0.094042	-0.101946	-0.990335	0.565881	0.823901	-0.031077	0.819106	-0.557489	0.135171
04713		0.093013	-0.102392	-0.990386	0.567361	0.822855	-0.031788	0.818199	-0.558950	0.134630
04714		0.092119	-0.102804	-0.990427	0.568659	0.821934	-0.032424	0.817399	-0.560228	0.134176
04715		0.091371	-0.103159	-0.990459	0.569769	0.821144	-0.032962	0.816710	-0.561321	0.133806
04716		0.090763	-0.103433	-0.990487	0.570712	0.820471	-0.033382	0.816119	-0.562253	0.133499
04717		0.090255	-0.103682	-0.990507	0.571562	0.819865	-0.033739	0.815580	-0.563091	0.133257
04718		0.089841	-0.103798	-0.990532	0.572248	0.819377	-0.033961	0.815145	-0.563779	0.133012
04719		0.089528	-0.103838	-0.990557	0.572757	0.819016	-0.034089	0.814821	-0.564296	0.132799
04720		0.089333	-0.103780	-0.990580	0.573071	0.818796	-0.034102	0.814622	-0.564627	0.132619
04721		0.089318	-0.103638	-0.990596	0.573291	0.818648	-0.033957	0.814469	-0.564867	0.132535
04722		0.089434	-0.103360	-0.990615	0.573310	0.818647	-0.033658	0.814443	-0.564920	0.132472
04723		0.089662	-0.103010	-0.990631	0.573256	0.818701	-0.033246	0.814455	-0.564905	0.132458
04724		0.089951	-0.102586	-0.990649	0.573060	0.818858	-0.032763	0.814562	-0.564754	0.132445
04725		0.090314	-0.102158	-0.990660	0.572831	0.819040	-0.032238	0.814683	-0.564569	0.132490
04726		0.090726	-0.101661	-0.990673	0.572582	0.819237	-0.031632	0.814812	-0.564372	0.132535
04727		0.091160	-0.101064	-0.990695	0.572332	0.819438	-0.030930	0.814939	-0.564187	0.132542
04728		0.091611	-0.100460	-0.990714	0.572039	0.819670	-0.030219	0.815095	-0.563958	0.132558
04729		0.092078	-0.099841	-0.990734	0.571757	0.819893	-0.029486	0.815240	-0.563744	0.132579
04730		0.092554	-0.099220	-0.990752	0.571347	0.820204	-0.028767	0.815473	-0.563401	0.132603
04731		0.093123	-0.098585	-0.990762	0.570880	0.820556	-0.027991	0.815735	-0.563000	0.132693
04732		0.093711	-0.097897	-0.990775	0.570331	0.820965	-0.027174	0.816052	-0.562523	0.132767
04733		0.094326	-0.097187	-0.990786	0.569828	0.821342	-0.026316	0.816332	-0.562096	0.132853
04734		0.095000	-0.096517	-0.990787	0.569296	0.821738	-0.025463	0.816625	-0.561633	0.133012
04735		0.095672	-0.095759	-0.990796	0.568723	0.822162	-0.024545	0.816946	-0.561141	0.133118
04736		0.096381	-0.095020	-0.990799	0.568193	0.822557	-0.023613	0.817232	-0.560689	0.133269
04737		0.097019	-0.094300	-0.990805	0.567694	0.822926	-0.022734	0.817503	-0.560269	0.133373
04738		0.097692	-0.093642	-0.990801	0.567197	0.823291	-0.021885	0.817768	-0.559842	0.133543
04739		0.098297	-0.092934	-0.990808	0.566698	0.823657	-0.021034	0.818041	-0.559421	0.133629
04740		0.098948	-0.092269	-0.990806	0.566029	0.824137	-0.020221	0.818426	-0.558824	0.133773
04741		0.099647	-0.091575	-0.990800	0.565261	0.824685	-0.019372	0.818872	-0.558130	0.133941
04742		0.100373	-0.090951	-0.990784	0.564381	0.825305	-0.018585	0.819389	-0.557315	0.134169
04743		0.101079	-0.090313	-0.990771	0.563520	0.825911	-0.017795	0.819895	-0.556520	0.134375
04744		0.101803	-0.089739	-0.990749	0.562608	0.826548	-0.017056	0.820432	-0.555667	0.134633
04745		0.102537	-0.089184	-0.990723	0.561751	0.827145	-0.016319	0.820928	-0.554866	0.134912
04746		0.103281	-0.088639	-0.990695	0.560944	0.827707	-0.015577	0.821386	-0.554115	0.135208
04747		0.104018	-0.088089	-0.990667	0.560276	0.828173	-0.014812	0.821749	-0.553506	0.135499
04748		0.104728	-0.087595	-0.990636	0.559746	0.828545	-0.014087	0.822020	-0.553029	0.135803
04749		0.105452	-0.087137	-0.990599	0.559429	0.828771	-0.013350	0.822143	-0.552762	0.136143
04750		0.106092	-0.086625	-0.990576	0.559205	0.828934	-0.012597	0.822213	-0.552599	0.136384
04751		0.106701	-0.086093	-0.990557	0.559069	0.829036	-0.011833	0.822226	-0.552527	0.136591
04752		0.107334	-0.085612	-0.990530	0.558931	0.829140	-0.011097	0.822238	-0.552447	0.136846
04753		0.107955	-0.085140	-0.990503	0.558839	0.829212	-0.010368	0.822220	-0.552412	0.137097
04754		0.108545	-0.084673	-0.990479	0.558744	0.829284	-0.009661	0.822206	-0.552376	0.137326
04755		0.109155	-0.084227	-0.990450	0.558614	0.829379	-0.008967	0.822214	-0.552300	0.137581
04756		0.109725	-0.083818	-0.990422	0.558453	0.829494	-0.008330	0.822247	-0.552190	0.137825
04757		0.110311	-0.083414	-0.990391	0.558302	0.829602	-0.007687	0.822272	-0.552089	0.138084
04758		0.110814	-0.083032	-0.990366	0.558087	0.829752	-0.007121	0.822349	-0.551922	0.138288
04759		0.111261	-0.082653	-0.990348	0.557937	0.829857	-0.006577	0.822391	-0.551820	0.138446
04760		0.111672	-0.082350	-0.990327	0.557757	0.829981	-0.006122	0.822457	-0.551679	0.138616
04761		0.112040	-0.082096	-0.990307	0.557650	0.830057	-0.005720	0.822480	-0.551603	0.138780
04762		0.112395	-0.081923	-0.990281	0.557616	0.830082	-0.005382	0.822455	-0.551591	0.138979
04763		0.112616	-0.081764	-0.990269	0.557655	0.830057	-0.005117	0.822398	-0.551652	0.139074
04764		0.112841	-0.081646	-0.990253	0.557654	0.830059	-0.004892	0.822368	-0.551666	0.139195
04765		0.112991	-0.081602	-0.990239	0.557807	0.829957	-0.004746	0.822244	-0.551826	0.139296
04766		0.113119	-0.081539	-0.990230	0.557882	0.829907	-0.004608	0.822175	-0.551911	0.139367
04767		0.113204	-0.081527	-0.990221	0.558079	0.829775	-0.004517	0.822030	-0.552111	0.139432
04768		0.113259	-0.081512	-0.990216	0.558151	0.829727	-0.004461	0.821973	-0.552185	0.139470
04769		0.113251	-0.081561	-0.990213	0.558340	0.829600	-0.004474	0.821846	-0.552368	0.139492
04770		0.113202	-0.081642	-0.990212	0.558610	0.829418	-0.004523	0.821669	-0.552631	0.139498
04771		0.113044	-0.081733	-0.990223	0.559025	0.829138	-0.004619	0.821409	-0.553037	0.139420
04772		0.112848	-0.081828	-0.990237	0.559463	0.828842	-0.004734	0.821137	-0.553467	0.139313
04773		0.112600	-0.081901	-0.990259	0.559953	0.828510	-0.004852	0.820837	-0.553952	0.139151
04774		0.112389	-0.081987	-0.990276	0.560383	0.828219	-0.004971	0.820573	-0.554375	0.139027
04775		0.112147	-0.082097	-0.990295	0.560719	0.827990	-0.005142	0.820377	-0.554700	0.138889
04776		0.111926	-0.082253	-0.990307	0.561028	0.827780	-0.005346	0.820195	-0.554991	0.138796
04777		0.111664	-0.082402	-0.990324	0.561347	0.827562	-0.005564	0.820013	-0.555294	0.138665
04778		0.111417	-0.082587	-0.990336	0.561671	0.827341	-0.005804	0.819825	-0.555596	0.138567
04779		0.111096	-0.082759	-0.990358	0.562069	0.827068	-0.006062	0.819595	-0.555976	0.138400
04780		0.110764	-0.083048	-0.990371	0.562485	0.826782	-0.006422	0.819355	-0.556358	0.138291
04781		0.110406	-0.083267	-0.990392	0.562889	0.826505	-0.006739	0.819126	-0.556737	0.138121
04782		0.109989	-0.083505	-0.990419	0.563315	0.826211	-0.007102	0.818888	-0.557137	0.137914
04783		0.109552	-0.083778	-0.990444	0.563748	0.825913	-0.007505	0.818649	-0.557539	0.137710
04784		0.109072	-0.084108	-0.990469	0.564226	0.825582	-0.007973	0.818384	-0.557979	0.137504
04785		0.108556	-0.084419	-0.990499	0.564766	0.825208	-0.008435	0.818080	-0.558484	0.137258
04786		0.108087	-0.084735	-0.990524	0.565293	0.824842	-0.008876	0.817778	-0.558977	0.137055
04787		0.107656	-0.085027	-0.990546	0.565860	0.824449	-0.009270	0.817443	-0.559512	0.136870
04788		0.107241	-0.085313	-0.990566	0.566393	0.824079	-0.009655	0.817128	-0.560014	0.136696
04789		0.106791	-0.085585	-0.990591	0.566955	0.823688	-0.010044	0.816797	-0.560548	0.136485
04790		0.106407	-0.085914	-0.990604	0.567538	0.823281	-0.010439	0.816442	-0.561095	0.136362
04791		0.105939	-0.086178	-0.990631	0.568205	0.822816	-0.010815	0.816040	-0.561736	0.136135
04792		0.105512	-0.086473	-0.990651	0.568863	0.822356	-0.011194	0.815636	-0.562364	0.135960
04793		0.105115	-0.086720	-0.990672	0.569595	0.821845	-0.011504	0.815176	-0.563073	0.135783
04794		0.104724	-0.086965	-0.990692	0.570328	0.821332	-0.011811	0.814714	-0.563782	0.135612
04795		0.104257	-0.087206	-0.990720	0.571009	0.820854	-0.012165	0.814297	-0.564441	0.135375
04796		0.103870	-0.087530	-0.990732	0.571629	0.820416	-0.012552	0.813911	-0.565027	0.135251
04797		0.103427	-0.087807	-0.990754	0.572287	0.819952	-0.012927	0.813505	-0.565658	0.135056
04798		0.103044	-0.088104	-0.990767	0.572897	0.819520	-0.013292	0.813124	-0.566238	0.134921
04799		0.102664	-0.088290	-0.990790	0.573431	0.819141	-0.013577	0.812796	-0.566756	0.134725
04800		0.102292	-0.088471	-0.990812	0.573802	0.818876	-0.013878	0.812580	-0.567111	0.134529
04801		0.101956	-0.088628	-0.990833	0.574107	0.818658	-0.014152	0.812407	-0.567402	0.134349
04802		0.101658	-0.088766	-0.990851	0.574305	0.818514	-0.014406	0.812305	-0.567587	0.134187
04803		0.101409	-0.088835	-0.990871	0.574459	0.818404	-0.014580	0.812227	-0.567736	0.134026
04804		0.101257	-0.088926	-0.990878	0.574634	0.818278	-0.014715	0.812123	-0.567902	0.133957
04805		0.101139	-0.088954	-0.990888	0.574888	0.818099	-0.014765	0.811958	-0.568156	0.133880
04806		0.101023	-0.088938	-0.990901	0.575132	0.817927	-0.014777	0.811799	-0.568406	0.133781
04807		0.100937	-0.088916	-0.990912	0.575540	0.817641	-0.014742	0.811521	-0.568821	0.133705
04808		0.100859	-0.088878	-0.990923	0.575892	0.817393	-0.014698	0.811280	-0.569182	0.133626
04809		0.100801	-0.088782	-0.990937	0.576244	0.817147	-0.014595	0.811038	-0.569551	0.133529
04810		0.100721	-0.088707	-0.990952	0.576526	0.816949	-0.014532	0.810847	-0.569847	0.133426
04811		0.100642	-0.088600	-0.990970	0.576783	0.816770	-0.014448	0.810674	-0.570120	0.133304
04812		0.100571	-0.088542	-0.990982	0.577086	0.816556	-0.014392	0.810467	-0.570435	0.133218
04813		0.100509	-0.088404	-0.991001	0.577427	0.816318	-0.014258	0.810232	-0.570798	0.133094
04814		0.100420	-0.088305	-0.991019	0.577727	0.816107	-0.014178	0.810029	-0.571115	0.132970
04815		0.100392	-0.088194	-0.991031	0.577990	0.815923	-0.014060	0.809845	-0.571395	0.132887
