// Start Time: Unknown
// Update Rate: 100.0Hz
// Filter Profile: human (46.1)
// Option Flags: AHS Disabled ICC Disabled 
// Firmware Version: 4.0.2
PacketCounter	SampleTimeFine	Mat[1][1]	Mat[2][1]	Mat[3][1]	Mat[1][2]	Mat[2][2]	Mat[3][2]	Mat[1][3]	Mat[2][3]	Mat[3][3]
51869		-0.079553	0.064349	-0.994751	-0.996131	0.032260	0.081750	0.037351	0.997406	0.061534
51870		-0.079584	0.064411	-0.994745	-0.996137	0.032019	0.081769	0.037117	0.997410	0.061614
51871		-0.079657	0.064473	-0.994735	-0.996140	0.031761	0.081828	0.036870	0.997414	0.061694
51872		-0.079716	0.064554	-0.994725	-0.996143	0.031537	0.081876	0.036656	0.997416	0.061791
51873		-0.079787	0.064638	-0.994714	-0.996144	0.031357	0.081939	0.036487	0.997416	0.061887
51874		-0.079886	0.064759	-0.994698	-0.996139	0.031253	0.082036	0.036400	0.997411	0.062012
51875		-0.079974	0.064860	-0.994685	-0.996133	0.031204	0.082125	0.036365	0.997406	0.062113
51876		-0.080051	0.064998	-0.994669	-0.996125	0.031243	0.082210	0.036420	0.997396	0.062245
51877		-0.080174	0.065066	-0.994655	-0.996116	0.031201	0.082333	0.036391	0.997393	0.062312
51878		-0.080265	0.065140	-0.994643	-0.996113	0.031077	0.082419	0.036280	0.997392	0.062392
51879		-0.080356	0.065186	-0.994632	-0.996111	0.030919	0.082502	0.036131	0.997394	0.062448
51880		-0.080455	0.065210	-0.994623	-0.996110	0.030722	0.082589	0.035942	0.997399	0.062484
51881		-0.080581	0.065224	-0.994612	-0.996112	0.030380	0.082695	0.035610	0.997408	0.062523
51882		-0.080726	0.065266	-0.994597	-0.996102	0.030319	0.082838	0.035562	0.997407	0.062564
51883		-0.080903	0.065314	-0.994580	-0.996095	0.030092	0.083003	0.035350	0.997411	0.062624
51884		-0.081055	0.065334	-0.994566	-0.996084	0.030046	0.083152	0.035316	0.997411	0.062642
51885		-0.081204	0.065365	-0.994552	-0.996071	0.030067	0.083304	0.035349	0.997408	0.062667
51886		-0.081327	0.065394	-0.994540	-0.996059	0.030095	0.083430	0.035386	0.997406	0.062689
51887		-0.081403	0.065422	-0.994532	-0.996055	0.030031	0.083503	0.035329	0.997406	0.062719
51888		-0.081493	0.065458	-0.994522	-0.996050	0.029957	0.083590	0.035264	0.997406	0.062758
51889		-0.081564	0.065444	-0.994517	-0.996052	0.029733	0.083647	0.035044	0.997413	0.062761
51890		-0.081601	0.065445	-0.994514	-0.996054	0.029591	0.083674	0.034905	0.997417	0.062772
51891		-0.081622	0.065473	-0.994510	-0.996058	0.029419	0.083686	0.034737	0.997421	0.062814
51892		-0.081665	0.065487	-0.994506	-0.996059	0.029278	0.083721	0.034600	0.997424	0.062838
51893		-0.081726	0.065458	-0.994503	-0.996059	0.029134	0.083772	0.034458	0.997430	0.062819
51894		-0.081742	0.065482	-0.994500	-0.996060	0.029066	0.083784	0.034393	0.997430	0.062848
51895		-0.081768	0.065490	-0.994497	-0.996059	0.029023	0.083807	0.034352	0.997431	0.062859
51896		-0.081770	0.065459	-0.994499	-0.996065	0.028865	0.083799	0.034191	0.997438	0.062841
51897		-0.081753	0.065385	-0.994506	-0.996069	0.028775	0.083773	0.034095	0.997445	0.062776
51898		-0.081787	0.065342	-0.994506	-0.996066	0.028788	0.083807	0.034106	0.997448	0.062731
51899		-0.081841	0.065327	-0.994502	-0.996064	0.028709	0.083856	0.034029	0.997451	0.062721
51900		-0.081882	0.065359	-0.994497	-0.996057	0.028831	0.083906	0.034157	0.997445	0.062740
51901		-0.081900	0.065381	-0.994494	-0.996052	0.028918	0.083929	0.034246	0.997441	0.062755
51902		-0.081961	0.065453	-0.994484	-0.996042	0.029041	0.084001	0.034379	0.997433	0.062814
51903		-0.082015	0.065418	-0.994482	-0.996042	0.028932	0.084047	0.034270	0.997438	0.062787
51904		-0.082029	0.065398	-0.994482	-0.996038	0.029018	0.084066	0.034355	0.997437	0.062758
51905		-0.082023	0.065325	-0.994487	-0.996037	0.029053	0.084059	0.034384	0.997441	0.062683
51906		-0.082015	0.065292	-0.994490	-0.996032	0.029227	0.084061	0.034555	0.997438	0.062636
51907		-0.082004	0.065229	-0.994495	-0.996026	0.029442	0.084061	0.034763	0.997436	0.062556
51908		-0.082016	0.065232	-0.994494	-0.996015	0.029704	0.084090	0.035026	0.997428	0.062536
51909		-0.082022	0.065239	-0.994493	-0.996005	0.029976	0.084113	0.035298	0.997419	0.062520
51910		-0.081966	0.065307	-0.994493	-0.995998	0.030301	0.084080	0.035625	0.997405	0.062562
51911		-0.081978	0.065381	-0.994487	-0.995992	0.030431	0.084102	0.035761	0.997396	0.062625
51912		-0.081943	0.065365	-0.994491	-0.995990	0.030574	0.084076	0.035901	0.997393	0.062598
51913		-0.081960	0.065333	-0.994492	-0.995997	0.030360	0.084079	0.035686	0.997402	0.062583
51914		-0.081927	0.065295	-0.994497	-0.996001	0.030309	0.084041	0.035630	0.997406	0.062551
51915		-0.081888	0.065242	-0.994504	-0.996006	0.030266	0.083998	0.035580	0.997410	0.062503
51916		-0.081882	0.065216	-0.994506	-0.996004	0.030336	0.083994	0.035647	0.997410	0.062472
51917		-0.081898	0.065201	-0.994506	-0.995999	0.030439	0.084017	0.035750	0.997408	0.062447
51918		-0.081855	0.065230	-0.994507	-0.995993	0.030726	0.083993	0.036036	0.997397	0.062453
51919		-0.081829	0.065269	-0.994507	-0.995986	0.030972	0.083984	0.036283	0.997387	0.062473
51920		-0.081745	0.065316	-0.994511	-0.995980	0.031316	0.083923	0.036626	0.997373	0.062493
51921		-0.081717	0.065352	-0.994511	-0.995974	0.031539	0.083909	0.036850	0.997364	0.062512
51922		-0.081675	0.065417	-0.994510	-0.995968	0.031794	0.083886	0.037107	0.997351	0.062557
51923		-0.081631	0.065423	-0.994513	-0.995968	0.031887	0.083848	0.037198	0.997348	0.062556
51924		-0.081576	0.065430	-0.994517	-0.995965	0.032086	0.083805	0.037394	0.997341	0.062549
51925		-0.081571	0.065416	-0.994518	-0.995960	0.032251	0.083811	0.037556	0.997337	0.062521
51926		-0.081549	0.065387	-0.994522	-0.995953	0.032479	0.083802	0.037781	0.997331	0.062474
51927		-0.081494	0.065385	-0.994527	-0.995953	0.032604	0.083755	0.037902	0.997327	0.062463
51928		-0.081451	0.065381	-0.994531	-0.995946	0.032871	0.083728	0.038166	0.997319	0.062438
51929		-0.081437	0.065385	-0.994531	-0.995940	0.033076	0.083727	0.038370	0.997312	0.062426
51930		-0.081401	0.065393	-0.994534	-0.995931	0.033378	0.083710	0.038670	0.997301	0.062409
51931		-0.081363	0.065368	-0.994539	-0.995924	0.033639	0.083687	0.038926	0.997294	0.062365
51932		-0.081340	0.065368	-0.994540	-0.995914	0.033940	0.083683	0.039225	0.997284	0.062341
51933		-0.081323	0.065396	-0.994540	-0.995912	0.034039	0.083673	0.039325	0.997279	0.062361
51934		-0.081315	0.065397	-0.994541	-0.995905	0.034233	0.083678	0.039519	0.997272	0.062345
51935		-0.081282	0.065364	-0.994546	-0.995903	0.034349	0.083650	0.039629	0.997270	0.062304
51936		-0.081288	0.065356	-0.994546	-0.995894	0.034559	0.083669	0.039838	0.997263	0.062278
51937		-0.081300	0.065316	-0.994547	-0.995887	0.034714	0.083689	0.039991	0.997261	0.062225
51938		-0.081346	0.065286	-0.994545	-0.995874	0.034937	0.083748	0.040214	0.997255	0.062175
51939		-0.081385	0.065227	-0.994546	-0.995867	0.035050	0.083791	0.040325	0.997255	0.062105
51940		-0.081410	0.065188	-0.994547	-0.995854	0.035326	0.083832	0.040599	0.997248	0.062041
51941		-0.081432	0.065120	-0.994549	-0.995849	0.035407	0.083857	0.040674	0.997249	0.061966
51942		-0.081443	0.065118	-0.994548	-0.995835	0.035722	0.083888	0.040990	0.997238	0.061938
51943		-0.081445	0.065093	-0.994550	-0.995824	0.035974	0.083904	0.041240	0.997231	0.061891
51944		-0.081465	0.065051	-0.994551	-0.995818	0.036076	0.083929	0.041339	0.997230	0.061840
51945		-0.081475	0.064970	-0.994556	-0.995816	0.036122	0.083937	0.041379	0.997233	0.061755
51946		-0.081496	0.064938	-0.994556	-0.995817	0.036067	0.083955	0.041322	0.997237	0.061727
51947		-0.081515	0.064871	-0.994559	-0.995825	0.035834	0.083956	0.041086	0.997250	0.061680
51948		-0.081525	0.064820	-0.994561	-0.995832	0.035656	0.083953	0.040904	0.997260	0.061643
51949		-0.081557	0.064776	-0.994561	-0.995838	0.035428	0.083970	0.040674	0.997271	0.061617
51950		-0.081552	0.064724	-0.994565	-0.995841	0.035373	0.083959	0.040615	0.997276	0.061570
51951		-0.081582	0.064710	-0.994564	-0.995845	0.035212	0.083978	0.040455	0.997283	0.061569
51952		-0.081645	0.064690	-0.994560	-0.995842	0.035171	0.084038	0.040416	0.997285	0.061550
51953		-0.081656	0.064654	-0.994561	-0.995849	0.034970	0.084035	0.040213	0.997295	0.061530
51954		-0.081719	0.064637	-0.994557	-0.995847	0.034877	0.084092	0.040122	0.997299	0.061519
51955		-0.081778	0.064611	-0.994554	-0.995851	0.034668	0.084137	0.039916	0.997308	0.061508
51956		-0.081842	0.064599	-0.994550	-0.995852	0.034505	0.084190	0.039756	0.997315	0.061507
51957		-0.081936	0.064560	-0.994544	-0.995847	0.034428	0.084278	0.039681	0.997320	0.061471
51958		-0.081985	0.064545	-0.994541	-0.995844	0.034406	0.084325	0.039661	0.997321	0.061456
51959		-0.082029	0.064534	-0.994538	-0.995841	0.034401	0.084369	0.039658	0.997322	0.061444
51960		-0.082049	0.064553	-0.994536	-0.995830	0.034612	0.084402	0.039871	0.997314	0.061444
51961		-0.082104	0.064596	-0.994528	-0.995822	0.034707	0.084465	0.039973	0.997308	0.061476
51962		-0.082104	0.064675	-0.994523	-0.995812	0.034941	0.084482	0.040213	0.997295	0.061535
51963		-0.082076	0.064699	-0.994524	-0.995811	0.035034	0.084461	0.040307	0.997290	0.061553
51964		-0.082043	0.064691	-0.994527	-0.995813	0.035055	0.084429	0.040325	0.997289	0.061544
51965		-0.082018	0.064650	-0.994532	-0.995811	0.035140	0.084408	0.040405	0.997289	0.061497
51966		-0.081991	0.064588	-0.994538	-0.995814	0.035139	0.084378	0.040397	0.997293	0.061436
51967		-0.081914	0.064562	-0.994546	-0.995820	0.035163	0.084301	0.040414	0.997294	0.061411
51968		-0.081846	0.064456	-0.994558	-0.995828	0.035110	0.084226	0.040348	0.997303	0.061313
51969		-0.081821	0.064369	-0.994566	-0.995837	0.034940	0.084186	0.040169	0.997314	0.061242
51970		-0.081747	0.064351	-0.994573	-0.995845	0.034893	0.084109	0.040117	0.997317	0.061232
51971		-0.081686	0.064318	-0.994581	-0.995854	0.034802	0.084042	0.040019	0.997322	0.061209
51972		-0.081613	0.064331	-0.994586	-0.995860	0.034810	0.083969	0.040024	0.997321	0.061224
51973		-0.081539	0.064297	-0.994594	-0.995870	0.034735	0.083889	0.039941	0.997326	0.061199
51974		-0.081451	0.064282	-0.994602	-0.995876	0.034760	0.083802	0.039959	0.997326	0.061186
51975		-0.081419	0.064208	-0.994610	-0.995880	0.034722	0.083764	0.039914	0.997332	0.061117
51976		-0.081393	0.064120	-0.994617	-0.995888	0.034597	0.083727	0.039779	0.997342	0.061041
51977		-0.081463	0.063988	-0.994620	-0.995897	0.034226	0.083769	0.039402	0.997364	0.060937
51978		-0.081464	0.063852	-0.994629	-0.995903	0.034095	0.083757	0.039259	0.997377	0.060813
51979		-0.081502	0.063701	-0.994635	-0.995908	0.033891	0.083777	0.039045	0.997393	0.060678
51980		-0.081536	0.063589	-0.994640	-0.995905	0.033898	0.083807	0.039045	0.997400	0.060565
51981		-0.081638	0.063491	-0.994638	-0.995902	0.033772	0.083897	0.038917	0.997411	0.060474
51982		-0.081712	0.063451	-0.994634	-0.995890	0.033920	0.083979	0.039067	0.997408	0.060419
51983		-0.081795	0.063401	-0.994631	-0.995885	0.033863	0.084057	0.039011	0.997413	0.060370
51984		-0.081898	0.063389	-0.994623	-0.995876	0.033889	0.084161	0.039042	0.997413	0.060352
51985		-0.082002	0.063294	-0.994620	-0.995877	0.033640	0.084246	0.038791	0.997428	0.060274
51986		-0.082091	0.063258	-0.994615	-0.995871	0.033613	0.084333	0.038767	0.997431	0.060238
51987		-0.082246	0.063214	-0.994605	-0.995865	0.033423	0.084474	0.038582	0.997440	0.060203
51988		-0.082370	0.063145	-0.994599	-0.995857	0.033372	0.084592	0.038534	0.997446	0.060134
51989		-0.082490	0.063102	-0.994592	-0.995844	0.033433	0.084715	0.038598	0.997447	0.060082
51990		-0.082613	0.063063	-0.994584	-0.995833	0.033455	0.084838	0.038624	0.997449	0.060036
51991		-0.082748	0.063107	-0.994570	-0.995820	0.033483	0.084977	0.038664	0.997445	0.060072
51992		-0.082865	0.063122	-0.994560	-0.995809	0.033510	0.085096	0.038699	0.997443	0.060081
51993		-0.082942	0.063177	-0.994550	-0.995806	0.033406	0.085169	0.038605	0.997443	0.060141
51994		-0.082971	0.063223	-0.994544	-0.995804	0.033407	0.085200	0.038612	0.997440	0.060186
51995		-0.083011	0.063239	-0.994540	-0.995808	0.033203	0.085228	0.038411	0.997446	0.060218
51996		-0.083034	0.063275	-0.994536	-0.995808	0.033151	0.085249	0.038364	0.997445	0.060257
51997		-0.083041	0.063308	-0.994533	-0.995808	0.033140	0.085257	0.038356	0.997444	0.060290
51998		-0.083084	0.063378	-0.994525	-0.995802	0.033176	0.085305	0.038401	0.997438	0.060356
51999		-0.083122	0.063442	-0.994518	-0.995800	0.033155	0.085344	0.038388	0.997435	0.060419
52000		-0.083144	0.063537	-0.994510	-0.995795	0.033230	0.085375	0.038472	0.997426	0.060507
52001		-0.083183	0.063631	-0.994501	-0.995792	0.033207	0.085416	0.038460	0.997421	0.060601
52002		-0.083213	0.063679	-0.994495	-0.995790	0.033173	0.085445	0.038432	0.997419	0.060650
52003		-0.083204	0.063689	-0.994495	-0.995799	0.032962	0.085424	0.038221	0.997425	0.060679
52004		-0.083145	0.063701	-0.994499	-0.995807	0.032881	0.085361	0.038137	0.997427	0.060700
52005		-0.083096	0.063644	-0.994507	-0.995818	0.032707	0.085299	0.037956	0.997437	0.060660
52006		-0.083071	0.063653	-0.994509	-0.995822	0.032675	0.085272	0.037923	0.997437	0.060672
52007		-0.083029	0.063641	-0.994513	-0.995828	0.032598	0.085225	0.037843	0.997440	0.060669
52008		-0.082962	0.063665	-0.994517	-0.995832	0.032659	0.085163	0.037901	0.997437	0.060690
52009		-0.082895	0.063702	-0.994520	-0.995829	0.032868	0.085109	0.038109	0.997428	0.060711
52010		-0.082812	0.063755	-0.994524	-0.995827	0.033107	0.085043	0.038348	0.997416	0.060747
52011		-0.082740	0.063770	-0.994529	-0.995830	0.033198	0.084977	0.038435	0.997412	0.060757
52012		-0.082630	0.063803	-0.994536	-0.995830	0.033438	0.084883	0.038671	0.997402	0.060774
52013		-0.082539	0.063815	-0.994543	-0.995839	0.033392	0.084789	0.038621	0.997403	0.060793
52014		-0.082458	0.063844	-0.994547	-0.995843	0.033472	0.084714	0.038698	0.997398	0.060819
52015		-0.082372	0.063806	-0.994557	-0.995852	0.033432	0.084624	0.038650	0.997402	0.060788
52016		-0.082258	0.063780	-0.994568	-0.995865	0.033336	0.084503	0.038544	0.997407	0.060774
52017		-0.082209	0.063766	-0.994573	-0.995875	0.033192	0.084445	0.038396	0.997413	0.060774
52018		-0.082116	0.063776	-0.994580	-0.995885	0.033148	0.084349	0.038348	0.997414	0.060792
52019		-0.082036	0.063788	-0.994586	-0.995889	0.033224	0.084274	0.038420	0.997410	0.060800
52020		-0.081984	0.063810	-0.994589	-0.995894	0.033196	0.084221	0.038390	0.997410	0.060827
52021		-0.081954	0.063822	-0.994591	-0.995899	0.033143	0.084189	0.038336	0.997411	0.060844
52022		-0.081852	0.063844	-0.994597	-0.995903	0.033241	0.084094	0.038430	0.997406	0.060862
52023		-0.081821	0.063914	-0.994596	-0.995904	0.033281	0.084067	0.038474	0.997400	0.060929
52024		-0.081788	0.063906	-0.994599	-0.995907	0.033283	0.084034	0.038474	0.997401	0.060922
52025		-0.081748	0.063880	-0.994604	-0.995915	0.033160	0.083985	0.038346	0.997407	0.060908
52026		-0.081696	0.063872	-0.994609	-0.995923	0.033076	0.083928	0.038258	0.997410	0.060909
52027		-0.081651	0.063851	-0.994614	-0.995933	0.032919	0.083873	0.038097	0.997416	0.060903
52028		-0.081640	0.063824	-0.994616	-0.995938	0.032796	0.083853	0.037971	0.997422	0.060887
52029		-0.081625	0.063783	-0.994620	-0.995949	0.032557	0.083821	0.037728	0.997433	0.060867
52030		-0.081641	0.063743	-0.994621	-0.995953	0.032413	0.083827	0.037582	0.997440	0.060839
52031		-0.081592	0.063707	-0.994628	-0.995959	0.032353	0.083774	0.037516	0.997444	0.060810
52032		-0.081601	0.063651	-0.994631	-0.995963	0.032243	0.083774	0.037402	0.997451	0.060763
52033		-0.081587	0.063580	-0.994636	-0.995965	0.032238	0.083756	0.037391	0.997456	0.060693
52034		-0.081574	0.063547	-0.994639	-0.995967	0.032202	0.083741	0.037351	0.997459	0.060664
52035		-0.081550	0.063527	-0.994643	-0.995966	0.032283	0.083720	0.037429	0.997458	0.060639
52036		-0.081538	0.063559	-0.994642	-0.995966	0.032304	0.083710	0.037451	0.997455	0.060669
52037		-0.081530	0.063583	-0.994641	-0.995969	0.032237	0.083699	0.037386	0.997456	0.060698
52038		-0.081503	0.063586	-0.994643	-0.995970	0.032275	0.083675	0.037423	0.997454	0.060700
52039		-0.081508	0.063554	-0.994644	-0.995972	0.032224	0.083675	0.037369	0.997458	0.060672
52040		-0.081523	0.063542	-0.994644	-0.995973	0.032169	0.083687	0.037314	0.997461	0.060664
52041		-0.081537	0.063475	-0.994647	-0.995980	0.031945	0.083685	0.037086	0.997472	0.060615
52042		-0.081560	0.063416	-0.994649	-0.995984	0.031781	0.083696	0.036918	0.997481	0.060569
52043		-0.081593	0.063358	-0.994650	-0.995987	0.031645	0.083719	0.036780	0.997489	0.060521
52044		-0.081601	0.063297	-0.994653	-0.995988	0.031605	0.083722	0.036735	0.997494	0.060464
52045		-0.081570	0.063272	-0.994657	-0.995985	0.031760	0.083699	0.036886	0.997491	0.060428
52046		-0.081549	0.063250	-0.994660	-0.995982	0.031883	0.083685	0.037006	0.997488	0.060395
52047		-0.081563	0.063214	-0.994662	-0.995975	0.032055	0.083707	0.037175	0.997485	0.060345
52048		-0.081603	0.063179	-0.994660	-0.995968	0.032136	0.083752	0.037256	0.997485	0.060301
52049		-0.081646	0.063116	-0.994661	-0.995958	0.032312	0.083802	0.037428	0.997483	0.060223
52050		-0.081651	0.063073	-0.994663	-0.995950	0.032518	0.083819	0.037631	0.997479	0.060163
52051		-0.081669	0.063016	-0.994665	-0.995943	0.032683	0.083845	0.037792	0.997477	0.060091
52052		-0.081682	0.062956	-0.994668	-0.995936	0.032836	0.083864	0.037940	0.997476	0.060018
52053		-0.081721	0.062877	-0.994670	-0.995932	0.032851	0.083901	0.037952	0.997480	0.059936
52054		-0.081783	0.062821	-0.994668	-0.995928	0.032824	0.083960	0.037923	0.997485	0.059881
52055		-0.081868	0.062757	-0.994665	-0.995925	0.032740	0.084037	0.037839	0.997492	0.059821
52056		-0.081924	0.062692	-0.994665	-0.995924	0.032643	0.084085	0.037740	0.997499	0.059763
52057		-0.081984	0.062664	-0.994662	-0.995922	0.032558	0.084139	0.037657	0.997504	0.059739
52058		-0.081992	0.062634	-0.994663	-0.995921	0.032573	0.084147	0.037669	0.997505	0.059707
52059		-0.081949	0.062626	-0.994667	-0.995923	0.032606	0.084105	0.037699	0.997504	0.059699
52060		-0.081903	0.062656	-0.994669	-0.995925	0.032664	0.084064	0.037757	0.997501	0.059725
52061		-0.081915	0.062614	-0.994670	-0.995933	0.032420	0.084060	0.037511	0.997511	0.059704
52062		-0.081911	0.062630	-0.994670	-0.995935	0.032369	0.084053	0.037461	0.997512	0.059724
52063		-0.081905	0.062644	-0.994669	-0.995942	0.032208	0.084038	0.037301	0.997516	0.059752
52064		-0.081888	0.062673	-0.994669	-0.995948	0.032071	0.084014	0.037165	0.997519	0.059793
52065		-0.081856	0.062687	-0.994671	-0.995960	0.031837	0.083969	0.036931	0.997525	0.059828
52066		-0.081778	0.062733	-0.994674	-0.995972	0.031672	0.083883	0.036765	0.997528	0.059890
52067		-0.081716	0.062755	-0.994678	-0.995984	0.031494	0.083810	0.036586	0.997532	0.059930
52068		-0.081617	0.062820	-0.994682	-0.995994	0.031454	0.083711	0.036546	0.997529	0.060001
52069		-0.081559	0.062871	-0.994684	-0.996004	0.031309	0.083646	0.036401	0.997530	0.060067
52070		-0.081455	0.062933	-0.994688	-0.996019	0.031112	0.083532	0.036203	0.997533	0.060149
52071		-0.081451	0.062974	-0.994686	-0.996030	0.030813	0.083512	0.035908	0.997539	0.060214
52072		-0.081361	0.063032	-0.994690	-0.996047	0.030562	0.083409	0.035657	0.997543	0.060296
52073		-0.081353	0.063112	-0.994685	-0.996054	0.030358	0.083391	0.035459	0.997545	0.060393
52074		-0.081317	0.063237	-0.994680	-0.996062	0.030212	0.083351	0.035322	0.997541	0.060531
52075		-0.081298	0.063346	-0.994675	-0.996069	0.030058	0.083326	0.035176	0.997539	0.060653
52076		-0.081281	0.063470	-0.994668	-0.996071	0.030015	0.083311	0.035143	0.997532	0.060781
52077		-0.081252	0.063558	-0.994665	-0.996077	0.029906	0.083279	0.035040	0.997530	0.060878
52078		-0.081236	0.063619	-0.994662	-0.996083	0.029789	0.083257	0.034927	0.997530	0.060950
52079		-0.081207	0.063645	-0.994663	-0.996093	0.029569	0.083216	0.034708	0.997534	0.060995
52080		-0.081169	0.063666	-0.994665	-0.996100	0.029451	0.083172	0.034589	0.997537	0.061027
52081		-0.081161	0.063632	-0.994668	-0.996113	0.029094	0.083140	0.034229	0.997549	0.061023
52082		-0.081137	0.063644	-0.994669	-0.996119	0.028991	0.083110	0.034126	0.997551	0.061045
52083		-0.081080	0.063665	-0.994672	-0.996125	0.028946	0.083051	0.034080	0.997551	0.061072
52084		-0.081008	0.063777	-0.994671	-0.996128	0.029013	0.082987	0.034151	0.997542	0.061180
52085		-0.080955	0.063876	-0.994669	-0.996129	0.029105	0.082943	0.034248	0.997533	0.061273
52086		-0.080930	0.063889	-0.994670	-0.996135	0.029002	0.082912	0.034145	0.997535	0.061295
52087		-0.080905	0.063928	-0.994670	-0.996141	0.028868	0.082880	0.034012	0.997537	0.061345
52088		-0.080901	0.063915	-0.994671	-0.996147	0.028726	0.082867	0.033870	0.997542	0.061345
52089		-0.080890	0.063881	-0.994674	-0.996156	0.028479	0.082840	0.033619	0.997551	0.061331
52090		-0.080873	0.063843	-0.994678	-0.996163	0.028302	0.082810	0.033438	0.997559	0.061310
52091		-0.080846	0.063817	-0.994682	-0.996175	0.028026	0.082765	0.033159	0.997568	0.061307
52092		-0.080787	0.063798	-0.994688	-0.996184	0.027907	0.082699	0.033035	0.997573	0.061300
52093		-0.080764	0.063787	-0.994690	-0.996196	0.027596	0.082656	0.032722	0.997582	0.061316
52094		-0.080774	0.063766	-0.994691	-0.996199	0.027470	0.082657	0.032595	0.997587	0.061305
52095		-0.080792	0.063698	-0.994693	-0.996208	0.027151	0.082654	0.032272	0.997600	0.061263
52096		-0.080835	0.063614	-0.994695	-0.996212	0.026948	0.082682	0.032064	0.997611	0.061194
52097		-0.080922	0.063495	-0.994696	-0.996216	0.026602	0.082744	0.031715	0.997628	0.061102
52098		-0.080977	0.063366	-0.994700	-0.996217	0.026430	0.082785	0.031536	0.997640	0.060987
52099		-0.081016	0.063227	-0.994705	-0.996214	0.026427	0.082819	0.031524	0.997649	0.060846
52100		-0.081076	0.063189	-0.994703	-0.996203	0.026629	0.082890	0.031726	0.997646	0.060790
52101		-0.081102	0.063172	-0.994702	-0.996191	0.026936	0.082934	0.032032	0.997639	0.060746
52102		-0.081148	0.063203	-0.994696	-0.996177	0.027231	0.083000	0.032333	0.997629	0.060752
52103		-0.081252	0.063206	-0.994687	-0.996164	0.027373	0.083112	0.032481	0.997625	0.060739
52104		-0.081286	0.063192	-0.994686	-0.996159	0.027438	0.083150	0.032547	0.997624	0.060719
52105		-0.081355	0.063105	-0.994685	-0.996158	0.027301	0.083208	0.032406	0.997633	0.060641
52106		-0.081397	0.062980	-0.994690	-0.996159	0.027182	0.083238	0.032280	0.997645	0.060526
52107		-0.081444	0.062825	-0.994696	-0.996163	0.026942	0.083266	0.032030	0.997661	0.060390
52108		-0.081479	0.062724	-0.994699	-0.996165	0.026791	0.083289	0.031873	0.997671	0.060300
52109		-0.081518	0.062620	-0.994703	-0.996169	0.026587	0.083312	0.031663	0.997683	0.060212
52110		-0.081492	0.062560	-0.994709	-0.996172	0.026549	0.083281	0.031619	0.997688	0.060157
52111		-0.081455	0.062547	-0.994713	-0.996179	0.026446	0.083238	0.031512	0.997692	0.060153
52112		-0.081368	0.062562	-0.994719	-0.996184	0.026524	0.083156	0.031586	0.997689	0.060165
52113		-0.081295	0.062558	-0.994725	-0.996185	0.026682	0.083092	0.031740	0.997685	0.060150
52114		-0.081207	0.062542	-0.994733	-0.996191	0.026723	0.083006	0.031774	0.997685	0.060133
52115		-0.081160	0.062447	-0.994743	-0.996196	0.026681	0.082953	0.031720	0.997692	0.060044
52116		-0.081147	0.062381	-0.994748	-0.996199	0.026624	0.082935	0.031657	0.997697	0.059983
52117		-0.081163	0.062315	-0.994751	-0.996205	0.026394	0.082935	0.031423	0.997707	0.059937
52118		-0.081131	0.062277	-0.994756	-0.996210	0.026340	0.082898	0.031365	0.997711	0.059904
52119		-0.081132	0.062236	-0.994758	-0.996207	0.026418	0.082903	0.031439	0.997712	0.059856
52120		-0.081063	0.062308	-0.994760	-0.996202	0.026761	0.082857	0.031784	0.997698	0.059902
52121		-0.080923	0.062393	-0.994766	-0.996206	0.026985	0.082733	0.032006	0.997687	0.059973
52122		-0.080779	0.062544	-0.994768	-0.996201	0.027517	0.082625	0.032540	0.997663	0.060083
52123		-0.080636	0.062718	-0.994768	-0.996196	0.028007	0.082517	0.033035	0.997638	0.060221
52124		-0.080508	0.062877	-0.994769	-0.996196	0.028309	0.082412	0.033343	0.997620	0.060358
52125		-0.080444	0.062996	-0.994766	-0.996202	0.028288	0.082351	0.033327	0.997613	0.060481
52126		-0.080326	0.063092	-0.994770	-0.996214	0.028199	0.082231	0.033240	0.997609	0.060588
52127		-0.080245	0.063146	-0.994773	-0.996229	0.027966	0.082138	0.033007	0.997612	0.060664
52128		-0.080096	0.063382	-0.994770	-0.996244	0.027856	0.081989	0.032907	0.997601	0.060912
52129		-0.079904	0.063831	-0.994757	-0.996257	0.027888	0.081814	0.032964	0.997571	0.061364
52130		-0.079655	0.064385	-0.994741	-0.996268	0.028143	0.081599	0.033249	0.997528	0.061903
52131		-0.079421	0.064899	-0.994726	-0.996269	0.028629	0.081412	0.033761	0.997481	0.062383
52132		-0.079206	0.065499	-0.994704	-0.996259	0.029393	0.081266	0.034560	0.997420	0.062926
52133		-0.078944	0.066204	-0.994678	-0.996250	0.030198	0.081078	0.035405	0.997349	0.063571
52134		-0.078714	0.067087	-0.994637	-0.996223	0.031407	0.080958	0.036670	0.997253	0.064361
52135		-0.078434	0.067989	-0.994598	-0.996200	0.032553	0.080785	0.037869	0.997155	0.065177
52136		-0.078087	0.068982	-0.994557	-0.996177	0.033782	0.080558	0.039155	0.997046	0.066081
52137		-0.077794	0.070003	-0.994509	-0.996154	0.034867	0.080377	0.040303	0.996937	0.067022
52138		-0.077369	0.071175	-0.994459	-0.996126	0.036296	0.080097	0.041795	0.996803	0.068091
52139		-0.076810	0.072519	-0.994405	-0.996088	0.038133	0.079721	0.043701	0.996638	0.069306
52140		-0.075987	0.074021	-0.994357	-0.996037	0.040595	0.079137	0.046224	0.996430	0.070643
52141		-0.074752	0.075722	-0.994323	-0.995985	0.043573	0.078195	0.049247	0.996176	0.072161
52142		-0.072995	0.077757	-0.994297	-0.995925	0.047268	0.076811	0.052971	0.995851	0.073990
52143		-0.070760	0.080275	-0.994258	-0.995816	0.052098	0.075077	0.057825	0.995410	0.076253
52144		-0.068169	0.083356	-0.994185	-0.995615	0.058295	0.073155	0.064054	0.994813	0.079017
52145		-0.065549	0.086897	-0.994058	-0.995332	0.065019	0.071317	0.070830	0.994093	0.082230
52146		-0.063004	0.091135	-0.993844	-0.994951	0.072216	0.069696	0.078123	0.993217	0.086125
52147		-0.060613	0.096189	-0.993516	-0.994485	0.079530	0.068372	0.085591	0.992181	0.090838
52148		-0.058391	0.101718	-0.993098	-0.993941	0.086868	0.067338	0.093118	0.991013	0.096030
52149		-0.056326	0.107050	-0.992657	-0.993359	0.093901	0.066493	0.100330	0.989810	0.101049
52150		-0.054265	0.111861	-0.992241	-0.992758	0.100614	0.065637	0.107176	0.988617	0.105591
52151		-0.052296	0.116246	-0.991843	-0.992214	0.106374	0.064783	0.113037	0.987508	0.109778
52152		-0.050427	0.120461	-0.991437	-0.991660	0.111848	0.064028	0.118603	0.986397	0.113816
52153		-0.048755	0.124751	-0.990989	-0.991168	0.116464	0.063425	0.123327	0.985329	0.117971
52154		-0.047214	0.129351	-0.990474	-0.990590	0.121457	0.063081	0.128459	0.984132	0.122399
52155		-0.046097	0.134219	-0.989879	-0.989881	0.126987	0.063316	0.134200	0.982781	0.127007
52156		-0.045462	0.139299	-0.989206	-0.989055	0.132865	0.064165	0.140369	0.981296	0.131734
52157		-0.045348	0.144322	-0.988491	-0.988174	0.138607	0.065571	0.146475	0.979775	0.136330
52158		-0.045641	0.149105	-0.987767	-0.987223	0.144384	0.067411	0.152669	0.978223	0.140610
52159		-0.046460	0.153532	-0.987051	-0.986294	0.149557	0.069688	0.158319	0.976760	0.144479
52160		-0.047758	0.157439	-0.986373	-0.985457	0.153792	0.072261	0.163073	0.975480	0.147804
52161		-0.049679	0.160947	-0.985712	-0.984783	0.156671	0.075213	0.166538	0.974449	0.150714
52162		-0.051987	0.164173	-0.985061	-0.984136	0.159124	0.078459	0.169628	0.973512	0.153296
52163		-0.054981	0.167177	-0.984393	-0.983599	0.160547	0.082202	0.171784	0.972767	0.155608
52164		-0.058590	0.170067	-0.983689	-0.983034	0.161740	0.086514	0.173814	0.972069	0.157705
52165		-0.062861	0.172890	-0.982933	-0.982422	0.162737	0.091453	0.175771	0.971404	0.159621
52166		-0.067763	0.175694	-0.982110	-0.981785	0.163389	0.096970	0.177503	0.970791	0.161422
52167		-0.073434	0.178310	-0.981230	-0.981156	0.163398	0.103121	0.178719	0.970313	0.162951
52168		-0.079879	0.180622	-0.980303	-0.980431	0.163281	0.109974	0.179929	0.969905	0.164045
52169		-0.087041	0.182584	-0.979330	-0.979745	0.162272	0.117331	0.180340	0.969707	0.164761
52170		-0.094713	0.184262	-0.978303	-0.979001	0.160961	0.125098	0.180519	0.969608	0.165147
52171		-0.103159	0.185688	-0.977179	-0.978187	0.159141	0.133506	0.180300	0.969636	0.165221
52172		-0.112265	0.186981	-0.975928	-0.977184	0.157433	0.142572	0.180302	0.969666	0.165041
52173		-0.122179	0.188112	-0.974518	-0.975993	0.155602	0.152399	0.180305	0.969743	0.164585
52174		-0.132843	0.189097	-0.972931	-0.974526	0.154046	0.163001	0.180700	0.969800	0.163816
52175		-0.144192	0.189973	-0.971143	-0.972845	0.152352	0.174248	0.181058	0.969896	0.162846
52176		-0.156148	0.190800	-0.969130	-0.970817	0.151168	0.186181	0.182025	0.969919	0.161627
52177		-0.168970	0.191534	-0.966832	-0.968562	0.149447	0.198879	0.182582	0.970041	0.160261
52178		-0.182505	0.192207	-0.964235	-0.965901	0.148133	0.212349	0.183650	0.970110	0.158618
52179		-0.196820	0.192726	-0.961311	-0.963105	0.145554	0.226368	0.183550	0.970397	0.156967
52180		-0.211680	0.193195	-0.958054	-0.960024	0.142599	0.240871	0.183152	0.970743	0.155287
52181		-0.227268	0.193141	-0.954487	-0.956782	0.138321	0.255804	0.181432	0.971372	0.153358
52182		-0.243657	0.192503	-0.950565	-0.953184	0.133444	0.271352	0.179083	0.972181	0.150976
52183		-0.260511	0.191229	-0.946343	-0.949298	0.127923	0.287174	0.175976	0.973174	0.148208
52184		-0.277865	0.189390	-0.941766	-0.945113	0.121547	0.303296	0.171910	0.974350	0.145221
52185		-0.295904	0.187175	-0.936700	-0.940529	0.114217	0.319937	0.166871	0.975664	0.142246
52186		-0.314243	0.184778	-0.931187	-0.935487	0.106701	0.336867	0.161604	0.976971	0.139327
52187		-0.332877	0.181951	-0.925249	-0.929911	0.099392	0.354100	0.156391	0.978271	0.136113
52188		-0.351597	0.178604	-0.918956	-0.923962	0.091684	0.371332	0.150575	0.979640	0.132788
52189		-0.370543	0.174949	-0.912190	-0.917450	0.084229	0.388834	0.144859	0.980968	0.129296
52190		-0.389512	0.171031	-0.905002	-0.910402	0.077289	0.406442	0.139461	0.982230	0.125602
52191		-0.408408	0.166810	-0.897428	-0.902969	0.070073	0.423954	0.133605	0.983496	0.122006
52192		-0.427142	0.162491	-0.889464	-0.895010	0.063794	0.441460	0.128475	0.984646	0.118182
52193		-0.445588	0.157785	-0.881224	-0.886766	0.057313	0.458652	0.122874	0.985809	0.114380
52194		-0.463855	0.152613	-0.872667	-0.878309	0.049544	0.475519	0.115805	0.987043	0.111061
52195		-0.481706	0.147212	-0.863880	-0.869519	0.042405	0.492077	0.109072	0.988196	0.107577
52196		-0.499085	0.141099	-0.854988	-0.860629	0.034457	0.508065	0.101148	0.989396	0.104237
52197		-0.515861	0.135072	-0.845957	-0.851576	0.026699	0.523550	0.093304	0.990476	0.101251
52198		-0.532138	0.128852	-0.836795	-0.842348	0.019015	0.538598	0.085311	0.991481	0.098420
52199		-0.547900	0.122428	-0.827537	-0.833051	0.010452	0.553098	0.076364	0.992422	0.096262
52200		-0.563522	0.115600	-0.817973	-0.823410	0.001262	0.567445	0.066629	0.993295	0.094475
52201		-0.578589	0.108788	-0.808332	-0.813609	-0.007433	0.581365	0.057238	0.994037	0.092812
52202		-0.593295	0.100992	-0.798625	-0.803679	-0.017826	0.594796	0.045834	0.994728	0.091741
52203		-0.607387	0.093324	-0.788906	-0.793659	-0.028235	0.607707	0.034439	0.995235	0.091217
52204		-0.620841	0.085241	-0.779289	-0.783607	-0.038652	0.620053	0.022733	0.995610	0.090792
52205		-0.633268	0.077033	-0.770089	-0.773853	-0.048754	0.631486	0.011100	0.995836	0.090486
52206		-0.645193	0.068534	-0.760940	-0.764019	-0.059598	0.642436	-0.001322	0.995867	0.090813
52207		-0.656113	0.060760	-0.752213	-0.754553	-0.069798	0.652516	-0.012856	0.995709	0.091642
52208		-0.666707	0.053130	-0.743424	-0.744916	-0.080313	0.662306	-0.024518	0.995353	0.093123
52209		-0.676580	0.046033	-0.734929	-0.735509	-0.090469	0.671447	-0.035580	0.994835	0.095067
52210		-0.686008	0.038872	-0.726555	-0.726074	-0.101103	0.680143	-0.047018	0.994116	0.097582
52211		-0.694701	0.031588	-0.718605	-0.716880	-0.112264	0.688099	-0.058938	0.993176	0.100635
52212		-0.702924	0.024343	-0.710848	-0.707738	-0.123342	0.695625	-0.070744	0.992066	0.103929
52213		-0.710380	0.017501	-0.703600	-0.699021	-0.134067	0.702422	-0.082036	0.990818	0.107472
52214		-0.717337	0.010910	-0.696641	-0.690487	-0.144636	0.708736	-0.093027	0.989425	0.111286
52215		-0.723684	0.004722	-0.690115	-0.682281	-0.155298	0.714406	-0.103800	0.987856	0.115609
52216		-0.729681	-0.000991	-0.683787	-0.674203	-0.165802	0.719694	-0.114086	0.986159	0.120315
52217		-0.735195	-0.006533	-0.677824	-0.666351	-0.176476	0.724453	-0.124353	0.984283	0.125391
52218		-0.740428	-0.011743	-0.672033	-0.658545	-0.187367	0.728842	-0.134476	0.982220	0.130999
52219		-0.745061	-0.016521	-0.666792	-0.651143	-0.198646	0.732497	-0.144557	0.979932	0.137245
52220		-0.749182	-0.021109	-0.662028	-0.643925	-0.210983	0.735423	-0.155201	0.977262	0.144472
52221		-0.752817	-0.025177	-0.657748	-0.637003	-0.223855	0.737643	-0.165812	0.974297	0.152484
52222		-0.756074	-0.028624	-0.653860	-0.630292	-0.237279	0.739210	-0.176306	0.971020	0.161359
52223		-0.759026	-0.031806	-0.650283	-0.623679	-0.251093	0.740255	-0.186826	0.967440	0.170750
52224		-0.761634	-0.034524	-0.647088	-0.617308	-0.265065	0.740724	-0.197093	0.963612	0.180571
52225		-0.764022	-0.037015	-0.644127	-0.611026	-0.279050	0.740796	-0.207164	0.959563	0.190583
52226		-0.766165	-0.039023	-0.641458	-0.605017	-0.292730	0.740448	-0.216668	0.955399	0.200670
52227		-0.768099	-0.040778	-0.639031	-0.599190	-0.306175	0.739749	-0.225821	0.951102	0.210739
52228		-0.769902	-0.042090	-0.636773	-0.593576	-0.319194	0.738771	-0.234349	0.946754	0.220765
52229		-0.771569	-0.042861	-0.634700	-0.588283	-0.331608	0.737536	-0.242083	0.942443	0.230644
52230		-0.773210	-0.043427	-0.632662	-0.583151	-0.343292	0.736264	-0.249162	0.938224	0.240112
52231		-0.774716	-0.043965	-0.630778	-0.578313	-0.354102	0.734960	-0.255672	0.934173	0.248903
52232		-0.775977	-0.044590	-0.629183	-0.573945	-0.363822	0.733635	-0.261623	0.930401	0.256725
52233		-0.776913	-0.045252	-0.627979	-0.570188	-0.372415	0.732252	-0.267005	0.926962	0.263532
52234		-0.777535	-0.045848	-0.627166	-0.567213	-0.379455	0.730947	-0.271493	0.924074	0.269034
52235		-0.777903	-0.045956	-0.626702	-0.565307	-0.384324	0.729879	-0.274399	0.922054	0.272988
52236		-0.778170	-0.045879	-0.626376	-0.564217	-0.387024	0.729295	-0.275881	0.920928	0.275285
52237		-0.778318	-0.045748	-0.626201	-0.563944	-0.387512	0.729247	-0.276022	0.920729	0.275808
52238		-0.778317	-0.045591	-0.626214	-0.564467	-0.385950	0.729671	-0.274954	0.921393	0.274656
52239		-0.778199	-0.045652	-0.626356	-0.565600	-0.382529	0.730595	-0.272952	0.922815	0.271862
52240		-0.777988	-0.045443	-0.626633	-0.567520	-0.377071	0.731942	-0.269547	0.925069	0.267567
52241		-0.777679	-0.045167	-0.627037	-0.570074	-0.369791	0.733669	-0.265010	0.928017	0.261830
52242		-0.777416	-0.044654	-0.627400	-0.573120	-0.360678	0.735829	-0.259148	0.931621	0.254805
52243		-0.777218	-0.043893	-0.627698	-0.576539	-0.349935	0.738342	-0.252062	0.935745	0.246670
52244		-0.777004	-0.042868	-0.628034	-0.580326	-0.337769	0.741035	-0.243897	0.940252	0.237571
52245		-0.776621	-0.041805	-0.628580	-0.584438	-0.324625	0.743674	-0.235142	0.944918	0.227678
52246		-0.776064	-0.040726	-0.629338	-0.588774	-0.310799	0.746156	-0.225986	0.949603	0.217222
52247		-0.775331	-0.039467	-0.630320	-0.593359	-0.296297	0.748420	-0.216300	0.954280	0.206311
52248		-0.774233	-0.038094	-0.631753	-0.598276	-0.281582	0.750185	-0.206468	0.958781	0.195219
52249		-0.772776	-0.036986	-0.633600	-0.603352	-0.266954	0.751466	-0.196936	0.962999	0.183980
52250		-0.770898	-0.036094	-0.635935	-0.608726	-0.252197	0.752230	-0.187532	0.967003	0.172447
52251		-0.768531	-0.035085	-0.638850	-0.614611	-0.236998	0.752387	-0.177803	0.970877	0.160577
52252		-0.765614	-0.033828	-0.642410	-0.621094	-0.221238	0.751861	-0.167559	0.974633	0.148373
52253		-0.762186	-0.032570	-0.646539	-0.628039	-0.204972	0.750702	-0.156972	0.978226	0.135771
52254		-0.758286	-0.031398	-0.651166	-0.635328	-0.188338	0.748924	-0.146154	0.981602	0.122866
52255		-0.753897	-0.030274	-0.656295	-0.642996	-0.171095	0.746513	-0.134889	0.984789	0.109522
52256		-0.749048	-0.029053	-0.661879	-0.650982	-0.153331	0.743446	-0.123086	0.987748	0.095939
52257		-0.743667	-0.027821	-0.667972	-0.659268	-0.135398	0.739616	-0.111019	0.990401	0.082350
52258		-0.737878	-0.026352	-0.674419	-0.667754	-0.116861	0.735152	-0.098186	0.992799	0.068632
52259		-0.731679	-0.024810	-0.681198	-0.676327	-0.098222	0.730024	-0.085020	0.994855	0.055087
52260		-0.724914	-0.023233	-0.688447	-0.685097	-0.079719	0.724077	-0.071705	0.996547	0.041872
52261		-0.717548	-0.021730	-0.696170	-0.694076	-0.061167	0.717299	-0.058170	0.997891	0.028808
52262		-0.709651	-0.020185	-0.704265	-0.703155	-0.042669	0.709755	-0.044377	0.998885	0.016087
52263		-0.701382	-0.018183	-0.712553	-0.712166	-0.023795	0.701608	-0.029713	0.999551	0.003740
52264		-0.692939	-0.015762	-0.720824	-0.720851	-0.004898	0.693073	-0.014454	0.999864	-0.007968
52265		-0.684437	-0.013374	-0.728949	-0.729072	0.013134	0.684311	0.000422	0.999824	-0.018740
52266		-0.675912	-0.011134	-0.736898	-0.736839	0.029880	0.675407	0.014499	0.999491	-0.028400
52267		-0.667505	-0.009302	-0.744547	-0.744110	0.044784	0.666554	0.027143	0.998953	-0.036815
52268		-0.659373	-0.007707	-0.751777	-0.750831	0.057926	0.657949	0.038477	0.998291	-0.043982
52269		-0.651784	-0.006393	-0.758378	-0.756865	0.069163	0.649901	0.048297	0.997585	-0.049918
52270		-0.644970	-0.005078	-0.764191	-0.762087	0.078736	0.642670	0.056906	0.996883	-0.054652
52271		-0.639218	-0.003727	-0.769016	-0.766348	0.086463	0.636581	0.064119	0.996248	-0.058125
52272		-0.634654	-0.002578	-0.772792	-0.769669	0.091989	0.631782	0.069460	0.995757	-0.060366
52273		-0.631329	-0.001802	-0.775513	-0.772104	0.095154	0.628333	0.072661	0.995461	-0.061464
52274		-0.629236	-0.001485	-0.777213	-0.773700	0.096180	0.626208	0.073823	0.995363	-0.061669
52275		-0.628284	-0.001622	-0.777982	-0.774526	0.095487	0.625294	0.073273	0.995429	-0.061249
52276		-0.628444	-0.002034	-0.777852	-0.774545	0.093786	0.625527	0.071679	0.995590	-0.060515
52277		-0.629665	-0.002486	-0.776863	-0.773768	0.091227	0.626865	0.069312	0.995827	-0.059366
52278		-0.631828	-0.002916	-0.775103	-0.772247	0.088225	0.629167	0.066549	0.996096	-0.057995
52279		-0.634977	-0.003416	-0.772524	-0.769932	0.084751	0.632472	0.063312	0.996396	-0.056445
52280		-0.639021	-0.003968	-0.769179	-0.766852	0.081172	0.636670	0.059910	0.996692	-0.054914
52281		-0.643776	-0.004791	-0.765199	-0.763134	0.077695	0.641552	0.056378	0.996966	-0.053674
52282		-0.649089	-0.005827	-0.760690	-0.758880	0.074331	0.646975	0.052773	0.997217	-0.052669
52283		-0.654939	-0.006987	-0.755649	-0.754086	0.070981	0.652928	0.049074	0.997453	-0.051757
52284		-0.661220	-0.008061	-0.750149	-0.748807	0.067825	0.659308	0.045564	0.997665	-0.050883
52285		-0.667966	-0.009126	-0.744135	-0.743002	0.064684	0.666156	0.042054	0.997864	-0.049987
52286		-0.674948	-0.010205	-0.737795	-0.736872	0.061188	0.673257	0.038274	0.998074	-0.048819
52287		-0.682144	-0.011614	-0.731126	-0.730442	0.056859	0.680603	0.033667	0.998315	-0.047270
52288		-0.689363	-0.013259	-0.724295	-0.723880	0.051054	0.688034	0.027856	0.998608	-0.044793
52289		-0.696688	-0.014892	-0.717219	-0.717049	0.044544	0.695598	0.021589	0.998896	-0.041712
52290		-0.703997	-0.016860	-0.710002	-0.710035	0.038436	0.703117	0.015435	0.999119	-0.039030
52291		-0.711166	-0.019261	-0.702760	-0.702979	0.030798	0.710543	0.007958	0.999340	-0.035442
52292		-0.718192	-0.021348	-0.695518	-0.695845	0.022894	0.717827	0.000600	0.999510	-0.031297
52293		-0.725096	-0.023344	-0.688252	-0.688614	0.014720	0.724979	-0.006792	0.999619	-0.026749
52294		-0.731822	-0.025188	-0.681030	-0.681350	0.006407	0.731929	-0.014073	0.999662	-0.021851
52295		-0.738277	-0.026917	-0.673960	-0.674158	-0.002271	0.738584	-0.021412	0.999635	-0.016470
52296		-0.744455	-0.028493	-0.667064	-0.667044	-0.011577	0.744928	-0.028948	0.999527	-0.010387
52297		-0.750284	-0.029942	-0.660437	-0.660095	-0.021547	0.750873	-0.036713	0.999319	-0.003598
52298		-0.755778	-0.031362	-0.654076	-0.653302	-0.032039	0.756419	-0.044679	0.998994	0.003726
52299		-0.760995	-0.032766	-0.647929	-0.646614	-0.042800	0.761615	-0.052686	0.998546	0.011383
52300		-0.765932	-0.034086	-0.642017	-0.640030	-0.054175	0.766438	-0.060906	0.997950	0.019678
52301		-0.770578	-0.035463	-0.636359	-0.633562	-0.066020	0.770870	-0.069350	0.997188	0.028405
52302		-0.774912	-0.036813	-0.630997	-0.627246	-0.078311	0.774874	-0.077940	0.996249	0.037593
52303		-0.778903	-0.037994	-0.625993	-0.621160	-0.090828	0.778403	-0.086432	0.995142	0.047146
52304		-0.782597	-0.038867	-0.621314	-0.615276	-0.103602	0.781474	-0.094743	0.993859	0.057165
52305		-0.785993	-0.039697	-0.616960	-0.609598	-0.116466	0.784108	-0.102981	0.992401	0.067342
52306		-0.789092	-0.040524	-0.612937	-0.604118	-0.129510	0.786300	-0.111246	0.990750	0.077714
52307		-0.791843	-0.041449	-0.609317	-0.598877	-0.142875	0.787993	-0.119718	0.988872	0.088312
52308		-0.794314	-0.042134	-0.606044	-0.593916	-0.155979	0.789262	-0.127785	0.986861	0.098872
52309		-0.796462	-0.042458	-0.603196	-0.589344	-0.168795	0.790052	-0.135361	0.984736	0.109416
52310		-0.798364	-0.042394	-0.600681	-0.585072	-0.181446	0.790423	-0.142500	0.982487	0.120056
52311		-0.800017	-0.042137	-0.598496	-0.581136	-0.193601	0.790443	-0.149176	0.980175	0.130396
52312		-0.801480	-0.041619	-0.596572	-0.577486	-0.205314	0.790162	-0.155370	0.977811	0.140520
52313		-0.802770	-0.040882	-0.594885	-0.574061	-0.216867	0.789572	-0.161290	0.975345	0.150625
52314		-0.804002	-0.039965	-0.593282	-0.570714	-0.228236	0.788793	-0.166932	0.972785	0.160694
52315		-0.805215	-0.038979	-0.591700	-0.567327	-0.239691	0.787838	-0.172534	0.970066	0.170889
52316		-0.806427	-0.037839	-0.590122	-0.563948	-0.250971	0.786751	-0.177873	0.967255	0.181051
52317		-0.807633	-0.036711	-0.588542	-0.560546	-0.262070	0.785562	-0.183077	0.964350	0.191078
52318		-0.808799	-0.035912	-0.586988	-0.557051	-0.273177	0.784263	-0.188516	0.961293	0.200940
52319		-0.809894	-0.035388	-0.585508	-0.553571	-0.283998	0.782882	-0.193988	0.958172	0.210418
52320		-0.810859	-0.034992	-0.584195	-0.550295	-0.294190	0.781427	-0.199208	0.955106	0.219291
52321		-0.811792	-0.034722	-0.582914	-0.547119	-0.303668	0.780030	-0.204097	0.952145	0.227518
52322		-0.812775	-0.034506	-0.581555	-0.544067	-0.311958	0.778892	-0.208297	0.949469	0.234778
52323		-0.813795	-0.034236	-0.580142	-0.541281	-0.318729	0.778092	-0.211547	0.947227	0.240849
52324		-0.814856	-0.033921	-0.578671	-0.538770	-0.323992	0.777661	-0.213864	0.945451	0.245731
52325		-0.815985	-0.033661	-0.577092	-0.536491	-0.327682	0.777690	-0.215281	0.944188	0.249325
52326		-0.817150	-0.033442	-0.575455	-0.534503	-0.329800	0.778164	-0.215809	0.943458	0.251621
52327		-0.818348	-0.033263	-0.573760	-0.532839	-0.330216	0.779128	-0.215380	0.943319	0.252507
52328		-0.819449	-0.033039	-0.572200	-0.531714	-0.328885	0.780458	-0.213974	0.943792	0.251937
52329		-0.820496	-0.032873	-0.570706	-0.530984	-0.325995	0.782166	-0.211759	0.944800	0.250022
52330		-0.821485	-0.032744	-0.569289	-0.530625	-0.321676	0.784195	-0.208805	0.946283	0.246877
52331		-0.822463	-0.032579	-0.567885	-0.530555	-0.316044	0.786529	-0.205101	0.948185	0.242649
52332		-0.823425	-0.032270	-0.566506	-0.530727	-0.309413	0.789045	-0.200747	0.950380	0.237652
52333		-0.824340	-0.031851	-0.565198	-0.531114	-0.302013	0.791648	-0.195912	0.952772	0.232045
52334		-0.825137	-0.031242	-0.564067	-0.531759	-0.294158	0.794168	-0.190737	0.955246	0.226108
52335		-0.825889	-0.030436	-0.563011	-0.532550	-0.285879	0.796658	-0.185200	0.957782	0.219896
52336		-0.826553	-0.029348	-0.562093	-0.533578	-0.277043	0.799088	-0.179175	0.960409	0.213331
52337		-0.827118	-0.027930	-0.561334	-0.534851	-0.267711	0.801415	-0.172659	0.963094	0.206490
52338		-0.827514	-0.026190	-0.560834	-0.536434	-0.257939	0.803558	-0.165706	0.965806	0.199399
52339		-0.827742	-0.024149	-0.560589	-0.538325	-0.247632	0.805534	-0.158272	0.968553	0.191975
52340		-0.827694	-0.021858	-0.560754	-0.540626	-0.236903	0.807218	-0.150489	0.971287	0.184266
52341		-0.827234	-0.019511	-0.561519	-0.543414	-0.226177	0.808421	-0.142776	0.973891	0.176499
52342		-0.826325	-0.016791	-0.562943	-0.546834	-0.215248	0.809099	-0.134758	0.976415	0.168683
52343		-0.824889	-0.013729	-0.565127	-0.550976	-0.204054	0.809190	-0.126426	0.978863	0.160758
52344		-0.823046	-0.010424	-0.567879	-0.555669	-0.192223	0.808877	-0.117591	0.981296	0.152416
52345		-0.820812	-0.006779	-0.571159	-0.560892	-0.179532	0.808188	-0.108020	0.983729	0.143560
52346		-0.818169	-0.002989	-0.574970	-0.566580	-0.166089	0.807094	-0.097908	0.986106	0.134195
52347		-0.815058	0.000859	-0.579378	-0.572761	-0.151902	0.805525	-0.087317	0.988395	0.124301
52348		-0.811395	0.005032	-0.584477	-0.579567	-0.136553	0.803402	-0.075769	0.990620	0.113715
52349		-0.807243	0.009459	-0.590144	-0.586797	-0.120391	0.800734	-0.063474	0.992681	0.102736
52350		-0.802649	0.014407	-0.596278	-0.594347	-0.103232	0.797556	-0.050065	0.994553	0.091422
52351		-0.797735	0.020102	-0.602673	-0.601973	-0.085097	0.793969	-0.035325	0.996170	0.079986
52352		-0.792468	0.026176	-0.609352	-0.609590	-0.066528	0.789920	-0.019862	0.997441	0.068678
52353		-0.786777	0.032574	-0.616377	-0.617224	-0.047942	0.785325	-0.003969	0.998319	0.057826
52354		-0.780568	0.039325	-0.623833	-0.624955	-0.029914	0.780087	0.012016	0.998779	0.047927
52355		-0.773803	0.046241	-0.631736	-0.632826	-0.013034	0.774184	0.027566	0.998845	0.039348
52356		-0.766577	0.052975	-0.639963	-0.640740	0.002942	0.767752	0.042555	0.998591	0.031688
52357		-0.758929	0.059425	-0.648456	-0.648699	0.017730	0.760839	0.056710	0.998075	0.025093
52358		-0.750918	0.065575	-0.657131	-0.656674	0.031338	0.753523	0.070005	0.997355	0.019529
52359		-0.742617	0.071466	-0.665892	-0.664596	0.044074	0.745902	0.082655	0.996469	0.014766
52360		-0.733942	0.077305	-0.674799	-0.672575	0.055838	0.737919	0.094724	0.995443	0.011011
52361		-0.724967	0.083090	-0.683754	-0.680533	0.066781	0.729667	0.106290	0.994302	0.008132
52362		-0.715900	0.088826	-0.692530	-0.688284	0.076815	0.721363	0.117272	0.993081	0.006145
52363		-0.706748	0.094550	-0.701118	-0.695831	0.086083	0.713028	0.127771	0.991791	0.004951
52364		-0.697542	0.100264	-0.709495	-0.703161	0.094698	0.704697	0.137843	0.990444	0.004446
52365		-0.688348	0.105902	-0.717609	-0.710279	0.102414	0.696431	0.147246	0.989089	0.004723
52366		-0.679210	0.111338	-0.725450	-0.717289	0.108677	0.688248	0.155468	0.987822	0.006047
52367		-0.670278	0.116491	-0.732910	-0.724129	0.113420	0.680275	0.162372	0.986694	0.008332
52368		-0.661456	0.121416	-0.740091	-0.730869	0.117017	0.672412	0.168245	0.985680	0.011337
52369		-0.652792	0.126163	-0.746957	-0.737475	0.119579	0.664703	0.173182	0.984776	0.014982
52370		-0.644264	0.130682	-0.753556	-0.744001	0.121148	0.657104	0.177163	0.983995	0.019176
52371		-0.636037	0.134935	-0.759769	-0.750292	0.121951	0.649761	0.180330	0.983321	0.023675
52372		-0.628103	0.138891	-0.765634	-0.756311	0.122403	0.642660	0.182976	0.982714	0.028163
52373		-0.620575	0.142518	-0.771087	-0.761984	0.122538	0.635897	0.185114	0.982178	0.032552
52374		-0.613434	0.145679	-0.776193	-0.767351	0.122450	0.629427	0.186739	0.981725	0.036672
52375		-0.606676	0.148265	-0.781000	-0.772362	0.122592	0.623240	0.188149	0.981320	0.040140
52376		-0.600229	0.150331	-0.785573	-0.777070	0.123021	0.617274	0.189437	0.980952	0.042977
52377		-0.594166	0.151981	-0.789854	-0.781434	0.123624	0.611619	0.190599	0.980622	0.045310
52378		-0.588461	0.153606	-0.793800	-0.785416	0.124451	0.606328	0.191925	0.980264	0.047410
52379		-0.583216	0.155354	-0.797323	-0.788945	0.125426	0.601526	0.193455	0.979864	0.049415
52380		-0.578448	0.157068	-0.800454	-0.792036	0.126590	0.597205	0.195131	0.979441	0.051178
52381		-0.574266	0.158631	-0.803153	-0.794636	0.127951	0.593449	0.196904	0.979012	0.052576
52382		-0.570578	0.159994	-0.805508	-0.796858	0.129385	0.590150	0.198642	0.978602	0.053668
52383		-0.567233	0.161199	-0.807627	-0.798830	0.130809	0.587163	0.200295	0.978215	0.054572
52384		-0.564129	0.162175	-0.809603	-0.800676	0.132057	0.584362	0.201682	0.977886	0.055352
52385		-0.561296	0.163089	-0.811387	-0.802388	0.132978	0.581799	0.202781	0.977609	0.056221
52386		-0.558637	0.163947	-0.813048	-0.804064	0.133445	0.579373	0.203483	0.977402	0.057277
52387		-0.556247	0.164821	-0.814508	-0.805640	0.133414	0.577188	0.203799	0.977259	0.058575
52388		-0.554128	0.165689	-0.815775	-0.807115	0.132910	0.575240	0.203736	0.977181	0.060081
52389		-0.552260	0.166504	-0.816875	-0.808519	0.131904	0.573497	0.203238	0.977179	0.061776
52390		-0.550588	0.167166	-0.817868	-0.809897	0.130442	0.571884	0.202284	0.977262	0.063568
52391		-0.549172	0.167524	-0.818747	-0.811198	0.128681	0.570438	0.200919	0.977434	0.065228
52392		-0.547887	0.167742	-0.819563	-0.812466	0.126701	0.569075	0.199297	0.977655	0.066867
52393		-0.546796	0.167817	-0.820275	-0.813637	0.124605	0.567863	0.197508	0.977912	0.068409
52394		-0.545792	0.167904	-0.820926	-0.814762	0.122401	0.566728	0.195638	0.978175	0.069997
52395		-0.544939	0.167960	-0.821481	-0.815794	0.120133	0.565729	0.193707	0.978447	0.071555
52396		-0.544144	0.168006	-0.821998	-0.816765	0.117943	0.564786	0.191837	0.978705	0.073044
52397		-0.543498	0.167985	-0.822430	-0.817605	0.115929	0.563988	0.190085	0.978949	0.074339
52398		-0.542965	0.167976	-0.822784	-0.818328	0.114085	0.563315	0.188490	0.979167	0.075515
52399		-0.542497	0.167803	-0.823128	-0.819009	0.112319	0.562680	0.186873	0.979401	0.076500
52400		-0.542058	0.167615	-0.823455	-0.819639	0.110709	0.562081	0.185377	0.979617	0.077373
52401		-0.541625	0.167333	-0.823798	-0.820252	0.109221	0.561479	0.183930	0.979832	0.078098
52402		-0.541176	0.167091	-0.824141	-0.820839	0.107876	0.560879	0.182623	0.980022	0.078776
52403		-0.540800	0.166884	-0.824430	-0.821341	0.106691	0.560371	0.181477	0.980187	0.079370
52404		-0.540397	0.166754	-0.824720	-0.821832	0.105604	0.559857	0.180452	0.980327	0.079976
52405		-0.540098	0.166604	-0.824947	-0.822232	0.104635	0.559452	0.179525	0.980456	0.080474
52406		-0.539836	0.166535	-0.825132	-0.822587	0.103705	0.559102	0.178680	0.980567	0.081006
52407		-0.539625	0.166537	-0.825270	-0.822870	0.102938	0.558828	0.178018	0.980647	0.081490
52408		-0.539397	0.166615	-0.825403	-0.823161	0.102132	0.558547	0.177363	0.980718	0.082061
52409		-0.539216	0.166746	-0.825495	-0.823428	0.101243	0.558316	0.176673	0.980788	0.082712
52410		-0.539087	0.166956	-0.825537	-0.823690	0.100126	0.558130	0.175841	0.980867	0.083543
52411		-0.539041	0.167220	-0.825513	-0.823932	0.098765	0.558015	0.174843	0.980960	0.084540
52412		-0.539101	0.167528	-0.825412	-0.824169	0.096998	0.557976	0.173540	0.981084	0.085780
52413		-0.539234	0.167885	-0.825252	-0.824414	0.094850	0.557983	0.171952	0.981233	0.087261
52414		-0.539432	0.168331	-0.825032	-0.824657	0.092391	0.558037	0.170160	0.981391	0.088976
52415		-0.539739	0.168776	-0.824740	-0.824840	0.089820	0.558185	0.168286	0.981553	0.090734
52416		-0.540080	0.169177	-0.824435	-0.824999	0.087262	0.558356	0.166403	0.981715	0.092442
52417		-0.540575	0.169521	-0.824040	-0.825050	0.084739	0.558670	0.164534	0.981877	0.094055
52418		-0.541168	0.169913	-0.823569	-0.824986	0.082441	0.559108	0.162896	0.982005	0.095561
52419		-0.541990	0.170336	-0.822941	-0.824724	0.080356	0.559797	0.161482	0.982104	0.096928
52420		-0.543005	0.170884	-0.822158	-0.824268	0.078548	0.560725	0.160398	0.982155	0.098203
52421		-0.544280	0.171633	-0.821159	-0.823556	0.077059	0.561976	0.159731	0.982143	0.099408
52422		-0.545674	0.172582	-0.820034	-0.822698	0.075808	0.563402	0.159398	0.982074	0.100617
52423		-0.547244	0.173730	-0.818744	-0.821682	0.074615	0.565041	0.159255	0.981962	0.101918
52424		-0.548929	0.174957	-0.817354	-0.820612	0.073176	0.566781	0.158973	0.981853	0.103404
52425		-0.550776	0.176194	-0.815844	-0.819477	0.071392	0.568647	0.158437	0.981763	0.105066
52426		-0.552761	0.177270	-0.814267	-0.818331	0.069143	0.570573	0.157446	0.981730	0.106845
52427		-0.554908	0.178191	-0.812604	-0.817146	0.066469	0.572586	0.156043	0.981748	0.108723
52428		-0.557172	0.179034	-0.810868	-0.815939	0.063390	0.574653	0.154283	0.981799	0.110761
52429		-0.559465	0.179946	-0.809085	-0.814693	0.060282	0.576751	0.152557	0.981828	0.112875
52430		-0.561782	0.180886	-0.807268	-0.813427	0.057081	0.578859	0.150787	0.981846	0.115071
52431		-0.564120	0.181709	-0.805451	-0.812162	0.053761	0.580949	0.148865	0.981882	0.117249
52432		-0.566414	0.182339	-0.803696	-0.810941	0.050395	0.582954	0.146798	0.981943	0.119322
52433		-0.568809	0.182835	-0.801890	-0.809635	0.047095	0.585041	0.144731	0.982015	0.121242
52434		-0.571260	0.183219	-0.800058	-0.808263	0.043938	0.587180	0.142736	0.982090	0.122990
52435		-0.573701	0.183637	-0.798214	-0.806816	0.041212	0.589364	0.141125	0.982130	0.124518
52436		-0.576197	0.183944	-0.796342	-0.805305	0.038613	0.591602	0.139571	0.982178	0.125883
52437		-0.578700	0.183975	-0.794518	-0.803804	0.036019	0.593803	0.137863	0.982271	0.127036
52438		-0.581140	0.183701	-0.792799	-0.802369	0.033397	0.595893	0.135943	0.982415	0.127987
52439		-0.583475	0.183296	-0.791176	-0.800984	0.030975	0.597884	0.134097	0.982570	0.128744
52440		-0.585542	0.183171	-0.789677	-0.799658	0.029303	0.599740	0.132995	0.982644	0.129316
52441		-0.587398	0.183277	-0.788272	-0.798400	0.028072	0.601472	0.132364	0.982660	0.129839
52442		-0.589111	0.183494	-0.786942	-0.797212	0.027005	0.603095	0.131915	0.982650	0.130374
52443		-0.590721	0.183747	-0.785675	-0.796090	0.025953	0.604621	0.131488	0.982631	0.130948
52444		-0.592057	0.184035	-0.784601	-0.795154	0.025031	0.605891	0.131145	0.982601	0.131516
52445		-0.593059	0.184275	-0.783788	-0.794469	0.024166	0.606823	0.130763	0.982578	0.132069
52446		-0.593740	0.184608	-0.783194	-0.794016	0.023352	0.607448	0.130429	0.982535	0.132717
52447		-0.594016	0.184975	-0.782898	-0.793887	0.022425	0.607652	0.129957	0.982487	0.133528
52448		-0.593951	0.185337	-0.782861	-0.794040	0.021361	0.607490	0.129313	0.982443	0.134477
52449		-0.593475	0.185782	-0.783117	-0.794488	0.020417	0.606937	0.128747	0.982379	0.135485
52450		-0.592646	0.186419	-0.783594	-0.795173	0.019601	0.606066	0.128342	0.982275	0.136619
52451		-0.591587	0.187076	-0.784237	-0.796045	0.018670	0.604949	0.127814	0.982168	0.137876
52452		-0.590149	0.187957	-0.785109	-0.797176	0.017808	0.603484	0.127410	0.982016	0.139325
52453		-0.588314	0.188950	-0.786247	-0.798612	0.016831	0.601611	0.126908	0.981842	0.140996
52454		-0.586070	0.190039	-0.787659	-0.800369	0.015647	0.599303	0.126215	0.981652	0.142931
52455		-0.583444	0.191414	-0.789274	-0.802370	0.014535	0.596650	0.125679	0.981402	0.145105
52456		-0.580419	0.193000	-0.791116	-0.804656	0.013281	0.593593	0.125070	0.981109	0.147590
52457		-0.577209	0.194611	-0.793067	-0.807139	0.011412	0.590251	0.123920	0.980814	0.150491
52458		-0.573660	0.196349	-0.795212	-0.809845	0.009516	0.586566	0.122739	0.980488	0.153553
52459		-0.569805	0.198192	-0.797523	-0.812742	0.007630	0.582574	0.121546	0.980134	0.156731
52460		-0.565717	0.200062	-0.799962	-0.815802	0.005541	0.578304	0.120129	0.979768	0.160076
52461		-0.561382	0.201957	-0.802536	-0.819045	0.003141	0.573721	0.118387	0.979389	0.163648
52462		-0.556675	0.203995	-0.805294	-0.822490	0.000851	0.568778	0.116713	0.978972	0.167311
52463		-0.551640	0.206052	-0.808230	-0.826094	-0.001182	0.563532	0.115162	0.978540	0.170870
52464		-0.546633	0.208012	-0.811125	-0.829738	-0.004053	0.558138	0.112812	0.978118	0.174811
52465		-0.541781	0.209733	-0.813932	-0.833307	-0.007439	0.552761	0.109877	0.977730	0.178802
52466		-0.536993	0.211212	-0.816718	-0.836894	-0.011674	0.547240	0.106050	0.977370	0.183031
52467		-0.532255	0.212535	-0.819472	-0.840518	-0.016994	0.541517	0.101165	0.977006	0.187685
52468		-0.527592	0.213729	-0.822172	-0.844153	-0.023503	0.535587	0.095147	0.976610	0.192820
52469		-0.523016	0.214771	-0.824820	-0.847772	-0.031216	0.529442	0.087961	0.976166	0.198403
52470		-0.518668	0.215705	-0.827318	-0.851220	-0.039683	0.523307	0.080049	0.975652	0.204194
52471		-0.514481	0.216590	-0.829698	-0.854479	-0.048311	0.517235	0.071944	0.975067	0.209927
52472		-0.510452	0.217315	-0.831994	-0.857548	-0.057039	0.511232	0.063643	0.974434	0.215473
52473		-0.506617	0.217636	-0.834250	-0.860413	-0.065859	0.505324	0.055033	0.973806	0.220622
52474		-0.503050	0.217718	-0.836385	-0.863008	-0.074523	0.499663	0.046456	0.973162	0.225381
52475		-0.499553	0.217607	-0.838507	-0.865445	-0.082789	0.494116	0.038104	0.972519	0.229685
52476		-0.496000	0.217340	-0.840682	-0.867789	-0.090132	0.488691	0.030440	0.971926	0.233311
52477		-0.492695	0.216895	-0.842739	-0.869891	-0.096844	0.483644	0.023286	0.971379	0.236390
52478		-0.489708	0.216514	-0.844576	-0.871722	-0.102749	0.479107	0.016955	0.970857	0.239057
52479		-0.486997	0.216184	-0.846226	-0.873328	-0.107733	0.475071	0.011537	0.970391	0.241265
52480		-0.484466	0.215867	-0.847758	-0.874783	-0.111847	0.471429	0.006947	0.969996	0.243023
52481		-0.482203	0.215482	-0.849145	-0.876054	-0.115295	0.468226	0.002993	0.969678	0.244370
52482		-0.480214	0.215074	-0.850375	-0.877151	-0.118123	0.465460	-0.000340	0.969428	0.245377
52483		-0.478534	0.214695	-0.851418	-0.878064	-0.120411	0.463147	-0.003085	0.969230	0.246136
52484		-0.476943	0.214311	-0.852406	-0.878918	-0.122201	0.461053	-0.005356	0.969091	0.246645
52485		-0.475373	0.213883	-0.853390	-0.879754	-0.123572	0.459088	-0.007264	0.969012	0.246907
52486		-0.473750	0.213478	-0.854393	-0.880614	-0.124683	0.457136	-0.008940	0.968959	0.247060
52487		-0.472212	0.213113	-0.855335	-0.881425	-0.125455	0.455358	-0.010264	0.968940	0.247085
52488		-0.470737	0.212868	-0.856209	-0.882200	-0.126050	0.453689	-0.011349	0.968916	0.247129
52489		-0.469375	0.212629	-0.857016	-0.882911	-0.126708	0.452121	-0.012457	0.968883	0.247207
52490		-0.468139	0.212380	-0.857753	-0.883550	-0.127452	0.450661	-0.013611	0.968840	0.247314
52491		-0.467006	0.212142	-0.858429	-0.884132	-0.128128	0.449325	-0.014668	0.968803	0.247398
52492		-0.466016	0.211840	-0.859042	-0.884635	-0.128917	0.448109	-0.015818	0.968764	0.247478
52493		-0.465130	0.211631	-0.859574	-0.885084	-0.129587	0.447028	-0.016784	0.968720	0.247586
52494		-0.464228	0.211673	-0.860051	-0.885545	-0.129971	0.446001	-0.017376	0.968660	0.247783
52495		-0.463307	0.211852	-0.860503	-0.886021	-0.130121	0.445011	-0.017693	0.968601	0.247992
52496		-0.462409	0.211998	-0.860950	-0.886485	-0.130211	0.444061	-0.017966	0.968557	0.248144
52497		-0.461508	0.212210	-0.861381	-0.886948	-0.130379	0.443085	-0.018279	0.968488	0.248390
52498		-0.460595	0.212543	-0.861788	-0.887416	-0.130598	0.442083	-0.018586	0.968385	0.248767
52499		-0.459676	0.212816	-0.862210	-0.887882	-0.130974	0.441035	-0.019068	0.968274	0.249162
52500		-0.458752	0.213116	-0.862629	-0.888346	-0.131539	0.439931	-0.019714	0.968132	0.249664
52501		-0.457809	0.213438	-0.863050	-0.888815	-0.132246	0.438770	-0.020484	0.967965	0.250250
52502		-0.456872	0.213693	-0.863483	-0.889274	-0.133089	0.437582	-0.021412	0.967793	0.250836
52503		-0.455985	0.213968	-0.863884	-0.889704	-0.134085	0.436403	-0.022458	0.967594	0.251509
52504		-0.455126	0.214321	-0.864249	-0.890115	-0.135223	0.435214	-0.023591	0.967358	0.252314
52505		-0.454397	0.214524	-0.864583	-0.890448	-0.136649	0.434085	-0.025023	0.967112	0.253116
52506		-0.453738	0.214591	-0.864912	-0.890736	-0.138264	0.432982	-0.026672	0.966868	0.253879
52507		-0.453133	0.214670	-0.865210	-0.890993	-0.139900	0.431925	-0.028321	0.966615	0.254662
52508		-0.452624	0.214768	-0.865451	-0.891198	-0.141558	0.430961	-0.029955	0.966352	0.255474
52509		-0.452244	0.214863	-0.865626	-0.891336	-0.143211	0.430129	-0.031548	0.966087	0.256282
52510		-0.451934	0.214981	-0.865759	-0.891437	-0.144850	0.429370	-0.033098	0.965817	0.257105
52511		-0.451745	0.215148	-0.865816	-0.891476	-0.146493	0.428731	-0.034595	0.965531	0.257977
52512		-0.451625	0.215350	-0.865829	-0.891475	-0.148248	0.428130	-0.036160	0.965219	0.258932
52513		-0.451652	0.215644	-0.865741	-0.891398	-0.150037	0.427666	-0.037670	0.964876	0.259989
52514		-0.451813	0.215851	-0.865606	-0.891240	-0.152126	0.427258	-0.039457	0.964503	0.261107
52515		-0.452177	0.215918	-0.865399	-0.890962	-0.154500	0.426986	-0.041510	0.964111	0.262236
52516		-0.452696	0.215935	-0.865123	-0.890585	-0.157230	0.426775	-0.043868	0.963665	0.263486
52517		-0.453426	0.215834	-0.864766	-0.890078	-0.160320	0.426684	-0.046546	0.963179	0.264802
52518		-0.454473	0.215641	-0.864265	-0.889378	-0.163897	0.426785	-0.049618	0.962620	0.266274
52519		-0.455928	0.215238	-0.863599	-0.888433	-0.167915	0.427189	-0.053064	0.962017	0.267782
52520		-0.458000	0.214545	-0.862674	-0.887139	-0.172254	0.428149	-0.056742	0.961405	0.269223
52521		-0.460831	0.213456	-0.861436	-0.885416	-0.176872	0.429832	-0.060614	0.960808	0.270505
52522		-0.464530	0.211785	-0.859860	-0.883196	-0.181665	0.432392	-0.064632	0.960284	0.271437
52523		-0.469176	0.209339	-0.857934	-0.880406	-0.186774	0.435892	-0.068991	0.959840	0.271933
52524		-0.474786	0.206115	-0.855625	-0.876991	-0.192462	0.440279	-0.073927	0.959414	0.272139
52525		-0.481547	0.202156	-0.852787	-0.872788	-0.199106	0.445642	-0.079706	0.958900	0.272318
52526		-0.489485	0.197514	-0.849348	-0.867700	-0.207055	0.451911	-0.086603	0.958184	0.272734
52527		-0.498665	0.191975	-0.845269	-0.861558	-0.216813	0.459032	-0.095142	0.957151	0.273515
52528		-0.508744	0.185737	-0.840643	-0.854619	-0.226855	0.467079	-0.103950	0.956054	0.274145
52529		-0.519674	0.178360	-0.835540	-0.846726	-0.238003	0.475825	-0.113993	0.954747	0.274706
52530		-0.531006	0.169496	-0.830243	-0.838181	-0.248946	0.485261	-0.124436	0.953571	0.274261
52531		-0.542494	0.159295	-0.824819	-0.829202	-0.258895	0.495377	-0.134631	0.952680	0.272537
52532		-0.554396	0.148046	-0.818980	-0.819347	-0.269721	0.505887	-0.146001	0.951490	0.270834
52533		-0.566855	0.136163	-0.812487	-0.808561	-0.280884	0.517044	-0.157812	0.950034	0.269317
52534		-0.580042	0.124480	-0.805019	-0.796929	-0.291367	0.529159	-0.168686	0.948478	0.268207
52535		-0.594265	0.112715	-0.796332	-0.784196	-0.301035	0.542599	-0.178565	0.946928	0.267285
52536		-0.609008	0.101899	-0.786591	-0.771355	-0.307047	0.557435	-0.184719	0.946223	0.265595
52537		-0.624551	0.090479	-0.775726	-0.757602	-0.311418	0.573636	-0.189673	0.945956	0.263043
52538		-0.640513	0.076956	-0.764081	-0.742870	-0.314277	0.591079	-0.194646	0.946207	0.258467
52539		-0.656531	0.061719	-0.751770	-0.727581	-0.314725	0.609569	-0.198978	0.947174	0.251532
52540		-0.672685	0.046033	-0.738495	-0.711483	-0.314316	0.628488	-0.203190	0.948202	0.244187
52541		-0.689039	0.029650	-0.724118	-0.693922	-0.315194	0.647399	-0.209042	0.948564	0.237756
52542		-0.705182	0.014219	-0.708883	-0.675886	-0.315573	0.666027	-0.214235	0.948795	0.232147
52543		-0.720687	-0.001769	-0.693258	-0.656862	-0.318022	0.683662	-0.221681	0.948082	0.228032
52544		-0.735699	-0.019907	-0.677016	-0.636535	-0.321254	0.701156	-0.231452	0.946784	0.223675
52545		-0.750588	-0.039914	-0.659564	-0.615140	-0.322287	0.719537	-0.241289	0.945800	0.217352
52546		-0.765300	-0.060297	-0.640843	-0.592685	-0.322344	0.738119	-0.251078	0.944700	0.210953
52547		-0.779452	-0.081240	-0.621172	-0.569667	-0.320626	0.756755	-0.260642	0.943716	0.203633
52548		-0.792720	-0.104012	-0.600647	-0.545038	-0.320341	0.774800	-0.273000	0.941575	0.197250
52549		-0.805151	-0.128785	-0.578919	-0.518386	-0.321384	0.792457	-0.288112	0.938151	0.192002
52550		-0.817150	-0.153832	-0.555520	-0.488464	-0.326898	0.809037	-0.306054	0.932456	0.191983
52551		-0.827756	-0.177801	-0.532172	-0.457411	-0.335467	0.823552	-0.324954	0.925121	0.196357
52552		-0.836579	-0.201300	-0.509523	-0.425774	-0.346361	0.835913	-0.344748	0.916249	0.204050
52553		-0.842173	-0.225306	-0.489879	-0.396290	-0.357458	0.845682	-0.365649	0.906345	0.211755
52554		-0.844365	-0.250524	-0.473589	-0.370275	-0.366004	0.853778	-0.387227	0.896258	0.216278
52555		-0.841748	-0.279849	-0.461677	-0.351693	-0.364569	0.862207	-0.409601	0.888130	0.208454
52556		-0.842246	-0.299136	-0.448485	-0.332353	-0.366893	0.868867	-0.424456	0.880856	0.209596
52557		-0.843926	-0.316610	-0.433068	-0.313064	-0.364891	0.876838	-0.435638	0.875564	0.208822
52558		-0.845330	-0.329488	-0.420541	-0.300849	-0.356906	0.884369	-0.441483	0.874103	0.202577
52559		-0.846334	-0.338994	-0.410855	-0.291013	-0.351763	0.889704	-0.446128	0.872551	0.199058
52560		-0.846686	-0.346639	-0.403688	-0.283473	-0.348193	0.893535	-0.450295	0.870978	0.196548
52561		-0.846644	-0.352831	-0.398376	-0.277632	-0.345796	0.896296	-0.453998	0.869445	0.194809
52562		-0.846286	-0.357587	-0.394881	-0.273283	-0.344874	0.897986	-0.457292	0.867867	0.194139
52563		-0.845865	-0.361183	-0.392504	-0.270262	-0.344197	0.899159	-0.459860	0.866646	0.193530
52564		-0.845719	-0.363606	-0.390576	-0.267678	-0.344117	0.899962	-0.461636	0.865664	0.193697
52565		-0.845759	-0.365339	-0.388868	-0.265364	-0.344272	0.900588	-0.462896	0.864872	0.194223
52566		-0.845778	-0.366638	-0.387604	-0.263157	-0.345294	0.900844	-0.464121	0.863915	0.195558
52567		-0.845434	-0.367864	-0.387192	-0.260942	-0.348038	0.900433	-0.465994	0.862291	0.198252
52568		-0.844766	-0.369098	-0.387475	-0.258956	-0.351695	0.899585	-0.468308	0.860278	0.201519
52569		-0.843961	-0.370191	-0.388187	-0.257227	-0.355741	0.898489	-0.470706	0.858142	0.205009
52570		-0.843425	-0.370575	-0.388984	-0.255788	-0.359720	0.897315	-0.472448	0.856315	0.208608
52571		-0.843357	-0.369965	-0.389712	-0.255047	-0.362752	0.896305	-0.472970	0.855299	0.211571
52572		-0.843629	-0.368544	-0.390468	-0.255196	-0.364614	0.895506	-0.472404	0.855121	0.213548
52573		-0.844005	-0.366660	-0.391428	-0.256575	-0.364865	0.895010	-0.470983	0.855824	0.213872
52574		-0.844498	-0.364437	-0.392440	-0.259234	-0.363041	0.894986	-0.468637	0.857547	0.212113
52575		-0.845065	-0.362018	-0.393456	-0.262775	-0.359666	0.895316	-0.465633	0.859990	0.208812
52576		-0.845825	-0.359376	-0.394246	-0.266588	-0.355385	0.895897	-0.462073	0.862873	0.204789
52577		-0.846647	-0.356944	-0.394689	-0.270120	-0.350769	0.896658	-0.458502	0.865767	0.200559
52578		-0.847404	-0.354903	-0.394905	-0.273043	-0.346597	0.897395	-0.455362	0.868282	0.196804
52579		-0.848069	-0.353266	-0.394945	-0.274957	-0.343761	0.897901	-0.452964	0.870076	0.194400
52580		-0.848651	-0.351902	-0.394912	-0.275832	-0.342629	0.898066	-0.451340	0.871074	0.193706
52581		-0.849125	-0.350757	-0.394912	-0.275901	-0.343016	0.897897	-0.450405	0.871384	0.194490
52582		-0.849482	-0.349692	-0.395091	-0.275564	-0.344524	0.897423	-0.449940	0.871217	0.196304
52583		-0.849786	-0.348667	-0.395341	-0.274931	-0.346737	0.896764	-0.449752	0.870749	0.198793
52584		-0.850018	-0.347594	-0.395788	-0.274387	-0.349204	0.895973	-0.449645	0.870193	0.201454
52585		-0.850213	-0.346384	-0.396429	-0.274265	-0.351323	0.895182	-0.449351	0.869822	0.203699
52586		-0.850413	-0.344874	-0.397315	-0.274821	-0.352775	0.894440	-0.448632	0.869834	0.205226
52587		-0.850679	-0.343024	-0.398347	-0.276079	-0.353333	0.893832	-0.447355	0.870339	0.205872
52588		-0.850998	-0.340886	-0.399499	-0.277995	-0.352989	0.893374	-0.445558	0.871318	0.205628
52589		-0.851353	-0.338646	-0.400646	-0.280388	-0.351740	0.893119	-0.443374	0.872696	0.204503
52590		-0.851619	-0.336588	-0.401813	-0.282908	-0.350174	0.892940	-0.441257	0.874120	0.202992
52591		-0.851720	-0.334916	-0.402994	-0.285147	-0.348993	0.892690	-0.439618	0.875234	0.201744
52592		-0.851613	-0.333656	-0.404264	-0.287127	-0.348304	0.892324	-0.438536	0.875990	0.200819
52593		-0.851366	-0.332835	-0.405458	-0.288871	-0.347713	0.891992	-0.437869	0.876537	0.199885
52594		-0.851030	-0.332189	-0.406692	-0.290638	-0.347071	0.891668	-0.437353	0.877036	0.198821
52595		-0.850767	-0.331404	-0.407881	-0.292540	-0.346126	0.891413	-0.436597	0.877706	0.197524
52596		-0.850668	-0.330330	-0.408957	-0.294614	-0.344726	0.891273	-0.435392	0.878662	0.195927
52597		-0.850795	-0.328867	-0.409872	-0.296772	-0.342986	0.891228	-0.433676	0.879890	0.194212
52598		-0.851026	-0.327225	-0.410705	-0.298900	-0.341201	0.891202	-0.431756	0.881196	0.192563
52599		-0.851188	-0.325676	-0.411600	-0.300980	-0.339585	0.891119	-0.429989	0.882393	0.191029
52600		-0.851142	-0.324392	-0.412707	-0.303101	-0.338201	0.890926	-0.428587	0.883397	0.189534
52601		-0.851035	-0.323253	-0.413821	-0.305107	-0.336992	0.890700	-0.427376	0.884276	0.188165
52602		-0.851057	-0.322143	-0.414638	-0.306714	-0.335944	0.890544	-0.426178	0.885079	0.187102
52603		-0.851149	-0.321291	-0.415112	-0.307893	-0.334913	0.890525	-0.425144	0.885779	0.186137
52604		-0.851284	-0.320541	-0.415414	-0.308655	-0.334326	0.890482	-0.424320	0.886273	0.185670
52605		-0.851471	-0.319784	-0.415615	-0.309095	-0.334193	0.890379	-0.423624	0.886597	0.185711
52606		-0.851709	-0.318911	-0.415797	-0.309434	-0.334283	0.890228	-0.422898	0.886877	0.186030
52607		-0.851940	-0.318037	-0.415993	-0.309764	-0.334421	0.890061	-0.422189	0.887139	0.186390
52608		-0.852163	-0.317101	-0.416251	-0.310221	-0.334461	0.889887	-0.421404	0.887459	0.186644
52609		-0.852420	-0.316075	-0.416505	-0.310816	-0.334240	0.889763	-0.420445	0.887908	0.186671
52610		-0.852708	-0.314939	-0.416777	-0.311641	-0.333621	0.889706	-0.419249	0.888544	0.186333
52611		-0.853020	-0.313783	-0.417009	-0.312610	-0.332614	0.889743	-0.417889	0.889330	0.185635
52612		-0.853322	-0.312642	-0.417248	-0.313587	-0.331587	0.889782	-0.416538	0.890115	0.184910
52613		-0.853506	-0.311622	-0.417635	-0.314553	-0.330859	0.889713	-0.415433	0.890744	0.184368
52614		-0.853536	-0.310573	-0.418354	-0.315755	-0.330371	0.889468	-0.414457	0.891291	0.183919
52615		-0.853501	-0.309407	-0.419288	-0.317264	-0.329756	0.889159	-0.413376	0.891924	0.183284
52616		-0.853411	-0.308097	-0.420435	-0.319231	-0.328688	0.888851	-0.412044	0.892771	0.182152
52617		-0.853361	-0.306615	-0.421619	-0.321410	-0.327316	0.888572	-0.410452	0.893785	0.180770
52618		-0.853352	-0.304886	-0.422888	-0.323710	-0.325972	0.888231	-0.408659	0.894867	0.179474
52619		-0.853342	-0.302945	-0.424301	-0.326056	-0.324934	0.887753	-0.406810	0.895903	0.178503
52620		-0.853230	-0.300819	-0.426035	-0.328632	-0.324198	0.887072	-0.404968	0.896886	0.177757
52621		-0.852892	-0.298513	-0.428329	-0.331714	-0.323700	0.886106	-0.403164	0.897835	0.177060
52622		-0.852231	-0.295973	-0.431395	-0.335717	-0.323030	0.884842	-0.401243	0.898917	0.175933
52623		-0.851364	-0.293003	-0.435119	-0.340802	-0.321635	0.883405	-0.398790	0.900389	0.173972
52624		-0.850425	-0.289506	-0.439276	-0.346797	-0.319391	0.881885	-0.395611	0.902317	0.171218
52625		-0.849497	-0.285433	-0.443714	-0.353357	-0.316715	0.880245	-0.391782	0.904555	0.168189
52626		-0.848563	-0.280807	-0.448429	-0.360278	-0.314028	0.878400	-0.387480	0.906936	0.165304
52627		-0.847544	-0.275759	-0.453459	-0.367354	-0.311841	0.876246	-0.383040	0.909237	0.162998
52628		-0.846322	-0.270351	-0.458965	-0.374690	-0.310281	0.873690	-0.378611	0.911392	0.161300
52629		-0.844769	-0.264717	-0.465070	-0.382359	-0.309437	0.870661	-0.374389	0.913331	0.160186
52630		-0.842866	-0.258855	-0.471774	-0.390362	-0.309329	0.867141	-0.370397	0.915046	0.159676
52631		-0.840704	-0.252654	-0.478939	-0.398636	-0.309829	0.863189	-0.366477	0.916609	0.159758
52632		-0.838340	-0.246147	-0.486412	-0.407219	-0.310447	0.858950	-0.362433	0.918169	0.160025
52633		-0.836077	-0.239400	-0.493622	-0.415471	-0.311294	0.854681	-0.358272	0.919665	0.160802
52634		-0.833857	-0.232718	-0.500524	-0.423124	-0.312823	0.850358	-0.354469	0.920860	0.162382
52635		-0.831535	-0.226428	-0.507228	-0.430260	-0.314987	0.845967	-0.351321	0.921691	0.164499
52636		-0.829136	-0.220346	-0.513791	-0.437036	-0.317632	0.841492	-0.348616	0.922257	0.167061
52637		-0.826696	-0.214078	-0.520331	-0.443667	-0.320710	0.836842	-0.346024	0.922668	0.170151
52638		-0.824227	-0.207632	-0.526820	-0.450065	-0.324392	0.831992	-0.343644	0.922854	0.173925
52639		-0.821670	-0.201057	-0.533325	-0.456223	-0.328874	0.826863	-0.341643	0.922723	0.178499
52640		-0.819064	-0.194324	-0.539789	-0.462081	-0.334190	0.821461	-0.340022	0.922255	0.183930
52641		-0.816588	-0.187480	-0.545926	-0.467516	-0.339893	0.816028	-0.338546	0.921588	0.189903
52642		-0.814277	-0.180745	-0.551619	-0.472297	-0.346177	0.810615	-0.337473	0.920594	0.196519
52643		-0.812063	-0.174255	-0.556946	-0.476430	-0.353166	0.805163	-0.336998	0.919189	0.203772
52644		-0.809859	-0.168279	-0.561970	-0.479908	-0.360873	0.799662	-0.337366	0.917308	0.211498
52645		-0.807591	-0.162578	-0.566890	-0.483051	-0.369082	0.794003	-0.338316	0.915067	0.219534
52646		-0.805280	-0.156860	-0.571769	-0.486207	-0.377179	0.788251	-0.339304	0.912760	0.227468
52647		-0.803009	-0.150955	-0.576532	-0.489434	-0.384932	0.782484	-0.340046	0.910516	0.235221
52648		-0.800930	-0.144726	-0.581004	-0.492694	-0.392094	0.776862	-0.340240	0.908469	0.242734
52649		-0.799410	-0.137956	-0.584732	-0.495625	-0.398651	0.771643	-0.339557	0.906667	0.250311
52650		-0.798522	-0.130688	-0.587608	-0.497989	-0.404986	0.766807	-0.338185	0.904935	0.258310
52651		-0.798080	-0.123330	-0.589795	-0.499489	-0.412063	0.762047	-0.337016	0.902770	0.267257
52652		-0.797701	-0.116392	-0.591715	-0.500114	-0.420613	0.756948	-0.336986	0.899743	0.277314
52653		-0.797100	-0.110053	-0.593734	-0.500210	-0.430455	0.751331	-0.338262	0.895877	0.288067
52654		-0.796260	-0.104371	-0.595883	-0.499893	-0.441220	0.745273	-0.340701	0.891309	0.299151
52655		-0.795175	-0.099182	-0.598214	-0.499421	-0.452397	0.738861	-0.343912	0.886284	0.310201
52656		-0.794150	-0.094270	-0.600365	-0.498794	-0.463248	0.732534	-0.347175	0.881200	0.320867
52657		-0.793363	-0.089605	-0.602118	-0.497967	-0.473401	0.726581	-0.350149	0.876277	0.330959
52658		-0.792912	-0.085190	-0.603352	-0.496952	-0.482576	0.721220	-0.352604	0.871701	0.340305
52659		-0.792805	-0.081052	-0.604062	-0.495770	-0.490725	0.716520	-0.354504	0.867536	0.348867
52660		-0.792894	-0.077302	-0.604436	-0.494612	-0.497724	0.712482	-0.355918	0.863884	0.356408
52661		-0.793129	-0.074086	-0.604531	-0.493468	-0.503604	0.709135	-0.356981	0.860752	0.362864
52662		-0.793608	-0.071435	-0.604221	-0.492201	-0.508406	0.706585	-0.357664	0.858149	0.368314
52663		-0.794400	-0.069227	-0.603438	-0.490879	-0.511939	0.704951	-0.357724	0.856228	0.372702
52664		-0.795796	-0.067231	-0.601821	-0.489095	-0.514633	0.704229	-0.357063	0.854771	0.376661
52665		-0.797975	-0.065167	-0.599157	-0.486846	-0.516319	0.704553	-0.355270	0.853913	0.380284
52666		-0.801149	-0.062751	-0.595166	-0.484204	-0.516500	0.706240	-0.351721	0.853985	0.383409
52667		-0.805470	-0.059821	-0.589610	-0.480777	-0.515753	0.709121	-0.346513	0.854647	0.386663
52668		-0.810864	-0.056483	-0.582502	-0.476114	-0.515121	0.712717	-0.340315	0.855255	0.390801
52669		-0.817211	-0.052837	-0.573912	-0.470084	-0.515019	0.716782	-0.333448	0.855549	0.396041
52670		-0.824184	-0.049084	-0.564191	-0.462822	-0.515749	0.720971	-0.326369	0.855332	0.402355
52671		-0.831610	-0.045557	-0.553489	-0.454264	-0.517533	0.725124	-0.319483	0.854450	0.409690
52672		-0.839548	-0.042081	-0.541653	-0.444363	-0.520417	0.729183	-0.312570	0.852875	0.418216
52673		-0.848090	-0.038350	-0.528462	-0.433189	-0.524138	0.733230	-0.305106	0.850770	0.427903
52674		-0.857288	-0.034251	-0.513697	-0.420788	-0.528292	0.737459	-0.296640	0.848372	0.438486
52675		-0.866998	-0.029862	-0.497415	-0.407162	-0.533028	0.741687	-0.287285	0.845570	0.449976
52676		-0.877011	-0.025126	-0.479812	-0.392721	-0.537838	0.745989	-0.276805	0.842674	0.461823
52677		-0.887277	-0.020034	-0.460802	-0.377565	-0.542284	0.750581	-0.264923	0.839956	0.473592
52678		-0.897696	-0.014508	-0.440376	-0.361812	-0.546127	0.755538	-0.251462	0.837577	0.485007
52679		-0.908207	-0.008633	-0.418432	-0.345347	-0.549319	0.760910	-0.236422	0.835568	0.495915
52680		-0.918636	-0.002223	-0.395100	-0.328280	-0.552170	0.766381	-0.219866	0.833728	0.506514
52681		-0.928862	0.004466	-0.370400	-0.310502	-0.554666	0.771968	-0.202001	0.832061	0.516595
52682		-0.938669	0.011189	-0.344638	-0.292051	-0.557162	0.777352	-0.183322	0.830329	0.526258
52683		-0.947876	0.018038	-0.318129	-0.273200	-0.559844	0.782264	-0.163993	0.828401	0.535591
52684		-0.956356	0.025145	-0.291120	-0.254364	-0.561984	0.787066	-0.143814	0.826766	0.543853
52685		-0.964125	0.032764	-0.263419	-0.235539	-0.563212	0.792031	-0.122411	0.825662	0.550724
52686		-0.971174	0.041011	-0.234818	-0.216538	-0.563647	0.797128	-0.099663	0.824997	0.556279
52687		-0.977481	0.049709	-0.205086	-0.196974	-0.563622	0.802204	-0.075715	0.824536	0.560721
52688		-0.982890	0.058513	-0.174651	-0.176952	-0.563205	0.807148	-0.051135	0.824243	0.563923
52689		-0.987260	0.067020	-0.144312	-0.156846	-0.562530	0.811763	-0.026775	0.824056	0.565875
52690		-0.990650	0.074944	-0.114000	-0.136393	-0.562922	0.815179	-0.003080	0.823105	0.567880
52691		-0.993086	0.082426	-0.083585	-0.115657	-0.565094	0.816879	0.020099	0.820899	0.570720
52692		-0.994555	0.089879	-0.052743	-0.094720	-0.568605	0.817139	0.043453	0.817686	0.574023
52693		-0.995005	0.097527	-0.021289	-0.073619	-0.572905	0.816309	0.067415	0.813799	0.577223
52694		-0.994317	0.105961	0.010257	-0.053085	-0.577033	0.814994	0.092276	0.809818	0.579378
52695		-0.992558	0.114622	0.041120	-0.033504	-0.581687	0.812723	0.117075	0.805296	0.581198
52696		-0.989791	0.123414	0.071291	-0.014733	-0.586115	0.810094	0.141761	0.800774	0.581950
52697		-0.986110	0.132233	0.100501	0.003038	-0.590635	0.806933	0.166063	0.796030	0.582030
52698		-0.981546	0.141635	0.128477	0.019489	-0.594271	0.804029	0.190228	0.791696	0.580544
52699		-0.976151	0.151912	0.155085	0.034452	-0.596921	0.801560	0.214340	0.787787	0.577452
52700		-0.970033	0.162677	0.180480	0.048490	-0.598238	0.799850	0.238087	0.784632	0.572422
52701		-0.963102	0.174505	0.204896	0.061282	-0.599120	0.798310	0.262066	0.781411	0.566320
52702		-0.955598	0.186541	0.228113	0.073713	-0.598182	0.797963	0.285306	0.779346	0.557871
52703		-0.947491	0.199326	0.250059	0.085273	-0.596166	0.798320	0.308202	0.777724	0.547865
52704		-0.939147	0.211451	0.270724	0.096430	-0.594131	0.798567	0.329703	0.776078	0.537586
52705		-0.930508	0.223311	0.290322	0.106486	-0.593467	0.797783	0.350450	0.773259	0.528447
52706		-0.921673	0.234503	0.309076	0.116094	-0.593446	0.796457	0.370191	0.769954	0.519739
52707		-0.912715	0.245571	0.326567	0.124629	-0.593836	0.794875	0.389126	0.766194	0.511398
52708		-0.903405	0.257200	0.343085	0.131172	-0.595996	0.792201	0.408231	0.760682	0.504688
52709		-0.893665	0.270241	0.358234	0.135133	-0.599191	0.789120	0.427904	0.753618	0.498957
52710		-0.883690	0.284203	0.371915	0.137391	-0.602075	0.786530	0.447455	0.746147	0.493001
52711		-0.873285	0.299417	0.384349	0.137800	-0.604873	0.784309	0.467317	0.737888	0.486966
52712		-0.862286	0.315674	0.395996	0.137125	-0.607199	0.782628	0.487504	0.729150	0.480292
52713		-0.850964	0.332530	0.406551	0.135781	-0.608459	0.781883	0.507369	0.720556	0.472625
52714		-0.839571	0.349267	0.416094	0.133988	-0.609141	0.781662	0.526468	0.712012	0.464619
52715		-0.828000	0.366423	0.424440	0.131295	-0.609208	0.782066	0.545140	0.703278	0.456315
52716		-0.816328	0.383865	0.431574	0.127395	-0.609136	0.782767	0.563364	0.693975	0.448352
52717		-0.804456	0.402197	0.437136	0.121435	-0.609012	0.783810	0.581467	0.683624	0.441083
52718		-0.792073	0.421822	0.441234	0.113667	-0.608265	0.785553	0.599750	0.672369	0.433843
52719		-0.778636	0.443240	0.444144	0.104799	-0.606022	0.788514	0.618662	0.660511	0.425420
52720		-0.763977	0.466371	0.445911	0.095527	-0.601708	0.792983	0.638133	0.648417	0.415140
52721		-0.748502	0.490780	0.445960	0.086526	-0.594475	0.799445	0.657464	0.636973	0.402500
52722		-0.732729	0.515114	0.444709	0.078060	-0.585550	0.806869	0.676029	0.625930	0.388840
52723		-0.716213	0.539727	0.442418	0.069877	-0.575297	0.814954	0.694375	0.614595	0.374321
52724		-0.699473	0.563949	0.438975	0.061278	-0.564655	0.823049	0.712027	0.602600	0.360403
52725		-0.682335	0.588185	0.434118	0.051566	-0.553632	0.831163	0.729219	0.589517	0.347432
52726		-0.665270	0.611909	0.427765	0.040611	-0.542442	0.839111	0.745497	0.575607	0.336021
52727		-0.647698	0.635727	0.419926	0.027764	-0.531099	0.846855	0.761391	0.560165	0.326341
52728		-0.629607	0.659509	0.410661	0.013348	-0.519320	0.854476	0.776799	0.543466	0.318165
52729		-0.610972	0.683154	0.400019	-0.001743	-0.506456	0.862264	0.791651	0.526122	0.310621
52730		-0.591831	0.706410	0.388228	-0.016405	-0.492091	0.870389	0.805895	0.508754	0.302824
52731		-0.572683	0.728889	0.375173	-0.030395	-0.476217	0.878802	0.819214	0.491871	0.294876
52732		-0.554721	0.749593	0.361102	-0.043172	-0.459344	0.887208	0.830915	0.476564	0.287169
52733		-0.537144	0.769047	0.346472	-0.053530	-0.441011	0.895904	0.841790	0.462683	0.278053
52734		-0.519303	0.787932	0.330890	-0.061317	-0.420547	0.905196	0.852388	0.449782	0.266705
52735		-0.501373	0.806317	0.313813	-0.067514	-0.398045	0.914878	0.862593	0.437509	0.254007
52736		-0.483775	0.823962	0.295039	-0.073338	-0.374093	0.924487	0.872114	0.425606	0.241405
52737		-0.466188	0.840849	0.275029	-0.078780	-0.349100	0.933768	0.881171	0.413645	0.228988
52738		-0.448707	0.856781	0.254140	-0.084118	-0.323604	0.942446	0.889711	0.401505	0.217274
52739		-0.431120	0.871845	0.232426	-0.090065	-0.297889	0.950342	0.897788	0.388778	0.206948
52740		-0.413627	0.885932	0.209848	-0.096977	-0.272050	0.957384	0.905267	0.375650	0.198442
52741		-0.395856	0.899239	0.186190	-0.104374	-0.245497	0.963762	0.912362	0.362078	0.191039
52742		-0.377683	0.911809	0.161119	-0.112764	-0.218005	0.969411	0.919043	0.347962	0.185156
52743		-0.359383	0.923448	0.134489	-0.121113	-0.189054	0.974469	0.925297	0.333920	0.179784
52744		-0.341258	0.933872	0.106894	-0.128904	-0.159142	0.978804	0.931089	0.320245	0.174689
52745		-0.322669	0.943240	0.078632	-0.135263	-0.128175	0.982484	0.936797	0.306382	0.168944
52746		-0.303332	0.951534	0.050729	-0.139258	-0.096933	0.985500	0.942654	0.291869	0.161912
52747		-0.282869	0.958856	0.024091	-0.141428	-0.066538	0.987710	0.948675	0.275985	0.154430
52748		-0.261721	0.965142	-0.001879	-0.146406	-0.037777	0.988503	0.953975	0.258987	0.151189
52749		-0.241169	0.970085	-0.027806	-0.157389	-0.010824	0.987477	0.957636	0.242526	0.155291
52750		-0.221920	0.973509	-0.055057	-0.173992	0.016022	0.984617	0.959415	0.228086	0.165827
52751		-0.204151	0.975318	-0.084130	-0.194860	0.043733	0.979856	0.959350	0.216432	0.181122
52752		-0.187720	0.975435	-0.115270	-0.216469	0.073386	0.973527	0.958072	0.207703	0.197375
52753		-0.172275	0.974013	-0.147038	-0.235514	0.104213	0.966268	0.956480	0.201093	0.211440
52754		-0.157567	0.971271	-0.178343	-0.251840	0.135105	0.958292	0.954856	0.195909	0.223317
52755		-0.142870	0.967309	-0.209528	-0.264302	0.166725	0.949920	0.953799	0.191094	0.231841
52756		-0.127687	0.962158	-0.240724	-0.274048	0.199035	0.940895	0.953202	0.186110	0.238264
52757		-0.112819	0.955844	-0.271358	-0.282745	0.230927	0.930982	0.952537	0.181757	0.244207
52758		-0.098011	0.948470	-0.301328	-0.289547	0.262509	0.920463	0.952133	0.177464	0.248898
52759		-0.083134	0.939973	-0.330969	-0.295909	0.293855	0.908894	0.951592	0.173497	0.253717
52760		-0.069336	0.930163	-0.360541	-0.304178	0.324488	0.895647	0.950088	0.171769	0.260437
52761		-0.057713	0.919108	-0.389756	-0.311716	0.354298	0.881649	0.948421	0.172376	0.266053
52762		-0.047447	0.907054	-0.418333	-0.316142	0.383638	0.867684	0.947525	0.173422	0.268555
52763		-0.038802	0.894577	-0.445226	-0.317309	0.411469	0.854405	0.947528	0.174426	0.267891
52764		-0.028814	0.882252	-0.469895	-0.315621	0.438011	0.841742	0.948448	0.172563	0.265837
52765		-0.017983	0.869915	-0.492874	-0.315301	0.462866	0.828456	0.948821	0.170301	0.265961
52766		-0.008161	0.857017	-0.515224	-0.320149	0.485881	0.813280	0.947332	0.171585	0.270408
52767		-0.000919	0.843015	-0.537889	-0.329790	0.507541	0.796016	0.944054	0.178122	0.277552
52768		0.003699	0.827747	-0.561089	-0.341864	0.528333	0.777170	0.939742	0.188942	0.284931
52769		0.006277	0.811476	-0.584353	-0.353386	0.548458	0.757834	0.935456	0.201746	0.290207
52770		0.008522	0.795099	-0.606419	-0.361115	0.567963	0.739604	0.932482	0.212684	0.291962
52771		0.011330	0.779173	-0.626707	-0.366375	0.586396	0.722432	0.930398	0.221425	0.292114
52772		0.014937	0.763794	-0.645287	-0.371231	0.603468	0.705701	0.928420	0.229009	0.292558
52773		0.018239	0.748584	-0.662789	-0.376052	0.619360	0.689186	0.926419	0.236673	0.292803
52774		0.020436	0.733490	-0.679393	-0.380143	0.634199	0.673263	0.924702	0.244508	0.291792
52775		0.021437	0.718761	-0.694926	-0.383106	0.647934	0.658339	0.923455	0.252118	0.289252
52776		0.021902	0.704860	-0.709008	-0.384535	0.660562	0.644819	0.922851	0.258515	0.285511
52777		0.021848	0.692041	-0.721528	-0.385185	0.671812	0.632693	0.922581	0.264099	0.281242
52778		0.021228	0.680551	-0.732393	-0.384330	0.681823	0.622421	0.922952	0.268268	0.276030
52779		0.020604	0.670412	-0.741703	-0.381490	0.691003	0.613988	0.924143	0.270301	0.269993
52780		0.020040	0.661689	-0.749510	-0.377425	0.699200	0.607182	0.925823	0.270716	0.263749
52781		0.019548	0.654308	-0.755975	-0.372699	0.706390	0.601754	0.927746	0.269988	0.257669
52782		0.019048	0.648167	-0.761260	-0.366976	0.712788	0.597714	0.930035	0.267979	0.251439
52783		0.018176	0.643300	-0.765398	-0.360410	0.718275	0.595135	0.932617	0.265040	0.244906
52784		0.016855	0.639815	-0.768344	-0.353815	0.722548	0.593919	0.935164	0.261841	0.238555
52785		0.014642	0.637795	-0.770067	-0.347686	0.725338	0.594137	0.937497	0.259042	0.232373
52786		0.011806	0.637243	-0.770572	-0.341774	0.726786	0.595796	0.939708	0.256328	0.226374
52787		0.008906	0.638204	-0.769816	-0.335882	0.727027	0.598844	0.941862	0.253234	0.220836
52788		0.006269	0.640757	-0.767718	-0.329992	0.726052	0.603286	0.943963	0.249559	0.215996
52789		0.003675	0.644835	-0.764313	-0.324205	0.723802	0.609099	0.945980	0.245556	0.211719
52790		0.001131	0.650518	-0.759490	-0.318663	0.720131	0.616332	0.947868	0.241324	0.208110
52791		-0.001502	0.657858	-0.753141	-0.313879	0.714770	0.624967	0.949462	0.237334	0.205414
52792		-0.004486	0.666582	-0.745418	-0.310346	0.707691	0.634712	0.950613	0.234185	0.203696
52793		-0.008024	0.676250	-0.736628	-0.308153	0.699130	0.645182	0.951303	0.232171	0.202779
52794		-0.012197	0.686588	-0.726945	-0.306952	0.689327	0.656208	0.951647	0.231141	0.202341
52795		-0.016758	0.697472	-0.716416	-0.305266	0.678736	0.667929	0.952120	0.229890	0.201540
52796		-0.021561	0.708911	-0.704968	-0.303153	0.667299	0.680302	0.952698	0.228382	0.200521
52797		-0.026996	0.721046	-0.692361	-0.300583	0.654705	0.693550	0.953374	0.226835	0.199060
52798		-0.033060	0.733827	-0.678532	-0.298172	0.640745	0.707488	0.953940	0.225709	0.197623
52799		-0.040132	0.747246	-0.663335	-0.296419	0.625081	0.722087	0.954214	0.225604	0.196412
52800		-0.048446	0.761113	-0.646808	-0.295731	0.607603	0.737131	0.954042	0.226992	0.195648
52801		-0.057669	0.775181	-0.629102	-0.294842	0.588817	0.752571	0.953804	0.228885	0.194599
52802		-0.067685	0.789225	-0.610363	-0.293142	0.569032	0.768290	0.953670	0.230925	0.192840
52803		-0.078353	0.803220	-0.590507	-0.290307	0.548274	0.784294	0.953721	0.232880	0.190221
52804		-0.089211	0.817067	-0.569600	-0.285981	0.526787	0.800444	0.954073	0.234303	0.186671
52805		-0.100159	0.830744	-0.547570	-0.280129	0.504530	0.816687	0.954723	0.235189	0.182182
52806		-0.111162	0.844038	-0.524636	-0.273148	0.481627	0.832722	0.955528	0.235870	0.177009
52807		-0.122544	0.856737	-0.500984	-0.265401	0.458116	0.848347	0.956319	0.236921	0.171239
52808		-0.134648	0.868574	-0.476917	-0.257462	0.434103	0.863289	0.956861	0.239028	0.165174
52809		-0.147318	0.879596	-0.452336	-0.249227	0.409559	0.877581	0.957175	0.242018	0.158883
52810		-0.160020	0.889828	-0.427317	-0.240240	0.384772	0.891199	0.957433	0.245268	0.152201
52811		-0.172717	0.899165	-0.402082	-0.230859	0.359891	0.903982	0.957535	0.248958	0.145420
52812		-0.185703	0.907518	-0.376730	-0.220950	0.335014	0.915940	0.957442	0.253331	0.138303
52813		-0.198861	0.914921	-0.351246	-0.210352	0.310204	0.927106	0.957187	0.258251	0.130767
52814		-0.212179	0.921467	-0.325389	-0.198763	0.285317	0.937597	0.956804	0.263613	0.122615
52815		-0.225281	0.927190	-0.299277	-0.186815	0.260366	0.947265	0.956216	0.269310	0.114557
52816		-0.237883	0.932125	-0.273048	-0.174815	0.235439	0.956038	0.955433	0.275158	0.106943
52817		-0.250491	0.936099	-0.246926	-0.164053	0.210326	0.963768	0.954118	0.281925	0.100885
52818		-0.263855	0.938948	-0.220811	-0.155446	0.184539	0.970454	0.951954	0.290383	0.097265
52819		-0.278306	0.940615	-0.194394	-0.147765	0.158051	0.976312	0.949058	0.300438	0.095004
52820		-0.293457	0.941150	-0.167688	-0.140198	0.131145	0.981400	0.945636	0.311508	0.093462
52821		-0.308507	0.940723	-0.140940	-0.132878	0.104094	0.985651	0.941895	0.322808	0.092887
52822		-0.323449	0.939334	-0.114158	-0.124894	0.077207	0.989162	0.937967	0.334201	0.092344
52823		-0.338023	0.937029	-0.087851	-0.115857	0.051206	0.991945	0.933979	0.345479	0.091252
52824		-0.351852	0.933958	-0.062627	-0.108294	0.025841	0.993783	0.929770	0.356447	0.092050
52825		-0.365367	0.930078	-0.038242	-0.102201	0.000754	0.994763	0.925236	0.367362	0.094780
52826		-0.378503	0.925492	-0.014174	-0.097410	-0.024601	0.994940	0.920460	0.377968	0.099464
52827		-0.391547	0.920106	0.009829	-0.092145	-0.049836	0.994498	0.915533	0.388487	0.104296
52828		-0.405273	0.913577	0.033632	-0.085867	-0.074666	0.993505	0.910154	0.399753	0.108706
52829		-0.420020	0.905724	0.056982	-0.077582	-0.098395	0.992119	0.904192	0.412289	0.111596
52830		-0.435095	0.896835	0.079864	-0.067598	-0.120986	0.990350	0.897843	0.425498	0.113265
52831		-0.450011	0.887178	0.102005	-0.056819	-0.142438	0.988171	0.891214	0.438892	0.114508
52832		-0.464911	0.876718	0.123382	-0.045186	-0.162673	0.985645	0.884204	0.452662	0.115244
52833		-0.479989	0.865423	0.143716	-0.032835	-0.181429	0.982856	0.876660	0.467041	0.115500
52834		-0.494935	0.853439	0.163342	-0.019558	-0.198875	0.979830	0.868710	0.481757	0.115121
52835		-0.509586	0.840825	0.182577	-0.005208	-0.215205	0.976555	0.860404	0.496688	0.114045
52836		-0.523262	0.827965	0.201671	0.010217	-0.230543	0.973008	0.852111	0.511199	0.112176
52837		-0.536194	0.814767	0.220571	0.025992	-0.245250	0.969111	0.843695	0.525365	0.110324
52838		-0.548929	0.800896	0.239253	0.042201	-0.259313	0.964871	0.834803	0.539742	0.108546
52839		-0.561986	0.786029	0.257547	0.059074	-0.272431	0.960360	0.825035	0.554923	0.106669
52840		-0.574507	0.770757	0.275455	0.076061	-0.284808	0.955562	0.814958	0.569929	0.105000
52841		-0.586407	0.755283	0.292701	0.092755	-0.296363	0.950561	0.804688	0.584565	0.103733
52842		-0.597927	0.739362	0.309560	0.109459	-0.307267	0.945307	0.794042	0.599108	0.102793
52843		-0.609055	0.722919	0.326250	0.126161	-0.317804	0.939725	0.783029	0.613505	0.102357
52844		-0.619661	0.705963	0.342981	0.142736	-0.328343	0.933712	0.771782	0.627540	0.102695
52845		-0.630077	0.688242	0.359619	0.159074	-0.338891	0.927280	0.760065	0.641464	0.104046
52846		-0.640074	0.669958	0.376113	0.174862	-0.349657	0.920415	0.748150	0.654901	0.106656
52847		-0.649766	0.651048	0.392354	0.190008	-0.360668	0.913135	0.736004	0.667874	0.110645
52848		-0.659129	0.631365	0.408567	0.204759	-0.372091	0.905330	0.723618	0.680387	0.115979
52849		-0.668032	0.611044	0.424686	0.219461	-0.383549	0.897066	0.711035	0.692470	0.122122
52850		-0.676558	0.590003	0.440642	0.233519	-0.395602	0.888239	0.698382	0.703843	0.129871
52851		-0.684903	0.567907	0.456496	0.247370	-0.408067	0.878800	0.685358	0.714816	0.139004
52852		-0.692563	0.545305	0.472227	0.261239	-0.420601	0.868820	0.672392	0.725077	0.148838
52853		-0.699074	0.522939	0.487678	0.275120	-0.432808	0.858479	0.660004	0.734310	0.158694
52854		-0.704714	0.500890	0.502482	0.289021	-0.444130	0.848066	0.647955	0.742871	0.168216
52855		-0.709777	0.479290	0.516234	0.302121	-0.454895	0.837731	0.636348	0.750567	0.178071
52856		-0.714332	0.458165	0.528975	0.313776	-0.465952	0.827305	0.625519	0.756950	0.189084
52857		-0.718235	0.437718	0.540871	0.323959	-0.477574	0.816685	0.615784	0.761791	0.201207
52858		-0.721380	0.417862	0.552271	0.332982	-0.489948	0.805651	0.607235	0.765076	0.214298
52859		-0.724195	0.398233	0.562985	0.340521	-0.503408	0.794119	0.599656	0.766805	0.228959
52860		-0.727468	0.378006	0.572627	0.346432	-0.518025	0.782071	0.592263	0.767308	0.245893
52861		-0.731768	0.356829	0.580679	0.350430	-0.533762	0.769608	0.584563	0.766662	0.265546
52862		-0.737167	0.334968	0.586840	0.352675	-0.550068	0.756997	0.576372	0.764997	0.287357
52863		-0.742567	0.313659	0.591788	0.353961	-0.566322	0.744306	0.568601	0.762166	0.309509
52864		-0.747007	0.293599	0.596473	0.355798	-0.581343	0.731743	0.561595	0.758841	0.329805
52865		-0.750359	0.274360	0.601405	0.359512	-0.594099	0.719581	0.554718	0.756157	0.347152
52866		-0.752674	0.256170	0.606514	0.365020	-0.604304	0.708221	0.547944	0.754449	0.361337
52867		-0.754345	0.238763	0.611519	0.372423	-0.611466	0.698148	0.540615	0.754388	0.372335
52868		-0.755779	0.222070	0.616022	0.380788	-0.616285	0.689343	0.532727	0.755565	0.381214
52869		-0.757203	0.206107	0.619810	0.389421	-0.619376	0.681707	0.524400	0.757557	0.388731
52870		-0.758628	0.191022	0.622892	0.397838	-0.621299	0.675065	0.515954	0.759933	0.395339
52871		-0.760050	0.177193	0.625242	0.405959	-0.621835	0.669715	0.507466	0.762839	0.400693
52872		-0.761337	0.165039	0.626999	0.413622	-0.621072	0.665722	0.499282	0.766180	0.404582
52873		-0.762623	0.154282	0.628175	0.420489	-0.619704	0.662688	0.491523	0.769522	0.407727
52874		-0.763977	0.144317	0.628897	0.426457	-0.618507	0.659988	0.484225	0.772413	0.410980
52875		-0.765442	0.134786	0.629231	0.431346	-0.618155	0.657134	0.477534	0.774414	0.415022
52876		-0.766950	0.126047	0.629206	0.434809	-0.619044	0.654007	0.471942	0.775175	0.419970
52877		-0.768404	0.118399	0.628917	0.437091	-0.620722	0.650889	0.467447	0.775040	0.425214
52878		-0.769750	0.112346	0.628382	0.438413	-0.622463	0.648331	0.463982	0.774544	0.429887
52879		-0.770907	0.107910	0.627740	0.439373	-0.623431	0.646749	0.461143	0.774396	0.433195
52880		-0.771806	0.105066	0.627117	0.440432	-0.623018	0.646428	0.458623	0.775119	0.434575
52881		-0.772377	0.104081	0.626579	0.441729	-0.620835	0.647642	0.456409	0.777002	0.433543
52882		-0.772828	0.104755	0.625910	0.443108	-0.616979	0.650378	0.454304	0.779976	0.430401
52883		-0.773286	0.106842	0.624991	0.444175	-0.612140	0.654212	0.452479	0.783498	0.425902
52884		-0.773786	0.110342	0.623763	0.444306	-0.607321	0.658600	0.451495	0.786757	0.420911
52885		-0.774352	0.115048	0.622208	0.443122	-0.603345	0.663037	0.451687	0.789138	0.416221
52886		-0.775074	0.120915	0.620193	0.440314	-0.600615	0.667372	0.453193	0.790343	0.412280
52887		-0.775817	0.128028	0.617833	0.435783	-0.599403	0.671423	0.456292	0.790142	0.409235
52888		-0.776515	0.136570	0.615120	0.429713	-0.599208	0.675497	0.460837	0.788859	0.406609
52889		-0.776971	0.146528	0.612247	0.422890	-0.598954	0.680013	0.466349	0.787263	0.403405
52890		-0.777161	0.157798	0.609196	0.415912	-0.597695	0.685404	0.472269	0.786041	0.398876
52891		-0.777107	0.169978	0.605980	0.408864	-0.595642	0.691405	0.478471	0.785059	0.393380
52892		-0.776782	0.182957	0.602609	0.401662	-0.593063	0.697814	0.485055	0.784094	0.387193
52893		-0.776162	0.196782	0.599040	0.394290	-0.589911	0.704656	0.492044	0.783123	0.380277
52894		-0.775293	0.211435	0.595161	0.386665	-0.586197	0.711943	0.499411	0.782092	0.372720
52895		-0.774138	0.227072	0.590888	0.378429	-0.582270	0.719550	0.507446	0.780641	0.364826
52896		-0.772730	0.243756	0.586064	0.369355	-0.578216	0.727491	0.516202	0.778620	0.356772
52897		-0.771016	0.261532	0.580634	0.359259	-0.574195	0.735686	0.525802	0.775823	0.348755
52898		-0.768921	0.280365	0.574592	0.348267	-0.570006	0.744179	0.536163	0.772326	0.340648
52899		-0.766341	0.300312	0.567921	0.336542	-0.565348	0.753074	0.547230	0.768241	0.332182
52900		-0.763236	0.321258	0.560593	0.324315	-0.559933	0.762427	0.558830	0.763720	0.323173
52901		-0.759507	0.342886	0.552791	0.311710	-0.554037	0.771932	0.570951	0.758599	0.313915
52902		-0.755091	0.365013	0.544612	0.299090	-0.547428	0.781580	0.583423	0.753053	0.304187
52903		-0.750050	0.387392	0.536052	0.286784	-0.539845	0.791405	0.595969	0.747325	0.293813
52904		-0.744377	0.409955	0.527105	0.275054	-0.531051	0.801455	0.608480	0.741567	0.282543
52905		-0.737935	0.432680	0.517920	0.263909	-0.521312	0.811533	0.621132	0.735542	0.270506
52906		-0.730838	0.455538	0.508292	0.253146	-0.510679	0.821659	0.633871	0.729172	0.257906
52907		-0.723138	0.478657	0.497954	0.242294	-0.499330	0.831843	0.646811	0.722189	0.245109
52908		-0.714918	0.502078	0.486631	0.231038	-0.487254	0.842143	0.659934	0.714494	0.232348
52909		-0.706109	0.525771	0.474314	0.218892	-0.474960	0.852350	0.673421	0.705675	0.220286
52910		-0.696524	0.549868	0.460977	0.205590	-0.462575	0.862414	0.687450	0.695464	0.209147
52911		-0.686253	0.574054	0.446676	0.191053	-0.450277	0.872209	0.701823	0.683895	0.199329
52912		-0.675317	0.597940	0.431757	0.175581	-0.438238	0.881544	0.716322	0.671130	0.190962
52913		-0.663684	0.621286	0.416565	0.159595	-0.426460	0.890315	0.730789	0.657369	0.183881
52914		-0.651374	0.644164	0.400955	0.143291	-0.414494	0.898700	0.745103	0.642844	0.177688
52915		-0.638383	0.666529	0.384977	0.127190	-0.401931	0.906793	0.759138	0.627846	0.171810
52916		-0.624947	0.688257	0.368433	0.111107	-0.388726	0.914629	0.772720	0.612530	0.166463
52917		-0.611272	0.709197	0.351265	0.094666	-0.375133	0.922124	0.785739	0.596921	0.162172
52918		-0.597273	0.729564	0.333168	0.077666	-0.360838	0.929389	0.798269	0.580975	0.158857
52919		-0.582706	0.749743	0.313590	0.059911	-0.345190	0.936619	0.810471	0.564561	0.156226
52920		-0.567913	0.769526	0.292070	0.041902	-0.327356	0.943972	0.822021	0.548332	0.153665
52921		-0.552874	0.788611	0.269115	0.024161	-0.307657	0.951191	0.832914	0.532391	0.151042
52922		-0.537507	0.806747	0.245450	0.007364	-0.286571	0.958031	0.843227	0.516755	0.148093
52923		-0.521774	0.823790	0.221634	-0.008771	-0.264970	0.964217	0.853039	0.501159	0.145480
52924		-0.505796	0.839730	0.197543	-0.025012	-0.243174	0.969660	0.862290	0.485509	0.144000
52925		-0.489867	0.854487	0.172866	-0.041863	-0.221114	0.974349	0.870792	0.470065	0.144088
52926		-0.473571	0.868320	0.147482	-0.059169	-0.198436	0.978326	0.878766	0.454580	0.145351
52927		-0.457029	0.881114	0.121503	-0.076232	-0.174904	0.981630	0.886179	0.439370	0.147105
52928		-0.440311	0.892791	0.095136	-0.093189	-0.150831	0.984157	0.892996	0.424469	0.149611
52929		-0.423233	0.903416	0.068647	-0.109869	-0.126384	0.985878	0.899334	0.409714	0.152747
52930		-0.405665	0.913047	0.042205	-0.126227	-0.101695	0.986775	0.905264	0.394972	0.156505
52931		-0.388203	0.921435	0.016010	-0.143839	-0.077741	0.986543	0.910279	0.380676	0.162718
52932		-0.371441	0.928403	-0.009933	-0.163342	-0.054812	0.985046	0.913975	0.367509	0.172007
52933		-0.355331	0.934059	-0.035688	-0.183958	-0.032446	0.982398	0.916460	0.355641	0.183357
52934		-0.339404	0.938617	-0.061670	-0.205250	-0.009917	0.978659	0.917975	0.344818	0.196017
52935		-0.323362	0.942165	-0.088101	-0.226443	0.013354	0.973933	0.918782	0.334883	0.209029
52936		-0.307249	0.944643	-0.115097	-0.247600	0.037427	0.968139	0.918854	0.325958	0.222394
52937		-0.291371	0.945878	-0.142887	-0.269537	0.062140	0.960983	0.917852	0.318516	0.236844
52938		-0.276554	0.945623	-0.171213	-0.292129	0.087007	0.952413	0.915521	0.313410	0.252182
52939		-0.263342	0.943913	-0.199199	-0.313057	0.111697	0.943143	0.912495	0.310730	0.266084
52940		-0.250814	0.941274	-0.226044	-0.329906	0.136415	0.934105	0.910085	0.308860	0.276317
52941		-0.238035	0.938222	-0.251156	-0.340799	0.161466	0.926167	0.909503	0.306053	0.281310
52942		-0.224851	0.934994	-0.274278	-0.348657	0.185646	0.918680	0.909879	0.302196	0.284250
52943		-0.212386	0.931324	-0.295852	-0.357750	0.207635	0.910441	0.909344	0.299206	0.289082
52944		-0.201670	0.926682	-0.317160	-0.370656	0.227525	0.900470	0.906611	0.299155	0.297595
52945		-0.193205	0.920773	-0.338894	-0.384987	0.246557	0.889379	0.902473	0.302302	0.306849
52946		-0.185974	0.913918	-0.360787	-0.398368	0.265524	0.877952	0.898174	0.307003	0.314695
52947		-0.179266	0.906559	-0.382119	-0.409989	0.284233	0.866672	0.894300	0.312029	0.320726
52948		-0.173198	0.899081	-0.402064	-0.419617	0.301964	0.856002	0.891024	0.316970	0.324971
52949		-0.167519	0.891706	-0.420473	-0.428239	0.318345	0.845735	0.888002	0.321740	0.328535
52950		-0.162026	0.884311	-0.437883	-0.436850	0.333615	0.835382	0.884822	0.326643	0.332257
52951		-0.157273	0.876445	-0.455092	-0.445505	0.348305	0.824748	0.881357	0.332457	0.335682
52952		-0.153760	0.867946	-0.472258	-0.454604	0.362216	0.813716	0.877321	0.339808	0.338877
52953		-0.151281	0.859114	-0.488915	-0.463187	0.375338	0.802857	0.873254	0.347916	0.341149
52954		-0.149011	0.850521	-0.504391	-0.469341	0.388133	0.793140	0.870353	0.354918	0.341348
52955		-0.146915	0.842598	-0.518117	-0.473182	0.400112	0.784863	0.868628	0.360472	0.339920
52956		-0.144709	0.835608	-0.529923	-0.476032	0.410716	0.777628	0.867440	0.364790	0.338342
52957		-0.142481	0.829107	-0.540630	-0.479734	0.419913	0.770408	0.865768	0.369127	0.337921
52958		-0.140695	0.822513	-0.551069	-0.485755	0.427658	0.762332	0.862697	0.374941	0.339371
52959		-0.139681	0.815611	-0.561487	-0.493365	0.434322	0.753628	0.858534	0.382285	0.341728
52960		-0.138978	0.808865	-0.571334	-0.499861	0.440745	0.745576	0.854883	0.389206	0.343066
52961		-0.137990	0.802631	-0.580295	-0.504612	0.447181	0.738509	0.852247	0.394731	0.343311
52962		-0.136798	0.797030	-0.588243	-0.507802	0.453445	0.732479	0.850543	0.398912	0.342703
52963		-0.136077	0.791859	-0.595350	-0.509794	0.459303	0.727428	0.849466	0.402492	0.341185
52964		-0.135934	0.787049	-0.601727	-0.510971	0.464654	0.723191	0.848782	0.405772	0.338997
52965		-0.136224	0.782432	-0.607654	-0.511949	0.469525	0.719343	0.848145	0.409080	0.336605
52966		-0.136765	0.778063	-0.613118	-0.512650	0.474014	0.715891	0.847635	0.412224	0.334046
52967		-0.137330	0.774101	-0.617988	-0.513394	0.477929	0.712748	0.847093	0.415153	0.331785
52968		-0.137662	0.770804	-0.622021	-0.514089	0.481182	0.710053	0.846618	0.417521	0.330022
52969		-0.137778	0.768161	-0.625257	-0.515410	0.483469	0.707539	0.845796	0.419747	0.329306
52970		-0.137783	0.766000	-0.627902	-0.518096	0.484563	0.704823	0.844152	0.422426	0.330097
52971		-0.137773	0.764134	-0.630173	-0.522258	0.484560	0.701747	0.841585	0.425794	0.332316
52972		-0.137852	0.762462	-0.632177	-0.527759	0.483567	0.698308	0.838133	0.429900	0.335736
52973		-0.138046	0.760944	-0.633962	-0.534187	0.481804	0.694628	0.834019	0.434545	0.339976
52974		-0.138267	0.759537	-0.635598	-0.541237	0.479508	0.690749	0.829424	0.439517	0.344790
52975		-0.138525	0.758191	-0.637147	-0.548728	0.476810	0.686695	0.824445	0.444745	0.349990
52976		-0.138676	0.756931	-0.638612	-0.556632	0.473771	0.682423	0.819103	0.450107	0.355631
52977		-0.138852	0.755783	-0.639931	-0.564555	0.470494	0.678169	0.813633	0.455442	0.361352
52978		-0.138854	0.754696	-0.641212	-0.572405	0.467206	0.673848	0.808129	0.460600	0.367118
52979		-0.138658	0.753552	-0.642599	-0.580368	0.463942	0.669277	0.802463	0.465745	0.373008
52980		-0.138152	0.752269	-0.644210	-0.588341	0.460910	0.664393	0.796724	0.470802	0.378915
52981		-0.137327	0.750850	-0.646039	-0.596347	0.458096	0.659180	0.790893	0.475787	0.384858
52982		-0.136151	0.749226	-0.648169	-0.604399	0.455580	0.653566	0.784961	0.480736	0.390804
52983		-0.134757	0.747385	-0.650582	-0.612156	0.453496	0.647771	0.779170	0.485549	0.396405
52984		-0.133138	0.745366	-0.653226	-0.619520	0.451872	0.641878	0.773608	0.490145	0.401607
52985		-0.131270	0.743181	-0.656087	-0.626135	0.450945	0.636084	0.768585	0.494298	0.406136
52986		-0.128887	0.740882	-0.659153	-0.632188	0.450725	0.630226	0.764020	0.497937	0.410284
52987		-0.126100	0.738453	-0.662409	-0.637529	0.451265	0.624433	0.760036	0.501046	0.413881
52988		-0.122820	0.735831	-0.665933	-0.642455	0.452487	0.618471	0.756417	0.503793	0.417164
52989		-0.119031	0.732788	-0.669966	-0.648119	0.453832	0.611538	0.752179	0.507009	0.420913
52990		-0.115003	0.728946	-0.674843	-0.655123	0.455015	0.603137	0.746718	0.511468	0.425221
52991		-0.110577	0.724430	-0.680422	-0.662678	0.456484	0.593701	0.740696	0.516550	0.429587
52992		-0.105617	0.719592	-0.686317	-0.670234	0.458340	0.583705	0.734596	0.521642	0.433886
52993		-0.100574	0.714189	-0.692690	-0.678768	0.459781	0.572604	0.727433	0.527764	0.438527
52994		-0.096193	0.708201	-0.699427	-0.687988	0.460504	0.560900	0.719319	0.535152	0.442937
52995		-0.092425	0.701768	-0.706384	-0.697554	0.460609	0.548869	0.710546	0.543471	0.446949
52996		-0.088742	0.694934	-0.713577	-0.707089	0.460620	0.536521	0.701534	0.552174	0.450504
52997		-0.084721	0.687745	-0.720992	-0.716320	0.460937	0.523854	0.692610	0.560842	0.453594
52998		-0.080467	0.680189	-0.728606	-0.725544	0.461245	0.510723	0.683455	0.569733	0.456393
52999		-0.075999	0.672268	-0.736397	-0.734597	0.461638	0.497249	0.674234	0.578746	0.458762
53000		-0.071112	0.664551	-0.743852	-0.743506	0.461814	0.483660	0.664938	0.587452	0.461257
53001		-0.066653	0.656653	-0.751241	-0.752961	0.460916	0.469688	0.654681	0.596961	0.463713
53002		-0.063258	0.648149	-0.758882	-0.763386	0.458373	0.455122	0.642838	0.608110	0.465791
53003		-0.060354	0.638400	-0.767335	-0.774676	0.454824	0.439332	0.629471	0.620952	0.467103
53004		-0.057984	0.627466	-0.776482	-0.785699	0.451155	0.423245	0.615886	0.634622	0.466840
53005		-0.056305	0.616381	-0.785433	-0.796391	0.446730	0.407668	0.602155	0.648465	0.465727
53006		-0.054740	0.605398	-0.794038	-0.806598	0.441933	0.392549	0.588560	0.661958	0.464122
53007		-0.053650	0.594936	-0.801981	-0.816548	0.436155	0.378178	0.574780	0.675145	0.462394
53008		-0.052879	0.584733	-0.809500	-0.826740	0.429032	0.363912	0.560093	0.688490	0.460736
53009		-0.052609	0.574558	-0.816771	-0.837015	0.420715	0.349865	0.544646	0.702056	0.458780
53010		-0.052574	0.564577	-0.823704	-0.847402	0.411182	0.335916	0.528343	0.715669	0.456806
53011		-0.053142	0.554535	-0.830462	-0.858081	0.400007	0.322012	0.510758	0.729715	0.454579
53012		-0.054382	0.543923	-0.837371	-0.869015	0.387249	0.307979	0.491788	0.744436	0.451618
53013		-0.056608	0.532385	-0.844607	-0.880063	0.372879	0.294023	0.471470	0.759952	0.447424
53014		-0.059645	0.519680	-0.852277	-0.891130	0.357012	0.280054	0.449811	0.776193	0.441808
53015		-0.063776	0.505911	-0.860225	-0.901484	0.340550	0.267118	0.428088	0.792515	0.434351
53016		-0.068934	0.491673	-0.868047	-0.910941	0.323731	0.255705	0.406737	0.808366	0.425569
53017		-0.074901	0.477704	-0.875322	-0.918890	0.307893	0.246661	0.387337	0.822800	0.415896
53018		-0.081955	0.464307	-0.881875	-0.925410	0.293048	0.240290	0.370000	0.835789	0.405657
53019		-0.089987	0.452385	-0.887271	-0.931377	0.277324	0.235857	0.352760	0.847608	0.396386
53020		-0.098626	0.441642	-0.891754	-0.936685	0.261369	0.233038	0.335996	0.858277	0.387902
53021		-0.108577	0.430729	-0.895926	-0.941565	0.244515	0.231662	0.318851	0.868726	0.379011
53022		-0.119853	0.419435	-0.899838	-0.946204	0.226133	0.231434	0.300555	0.879169	0.369769
53023		-0.132809	0.407640	-0.903433	-0.950028	0.207450	0.233262	0.282504	0.889266	0.359718
53024		-0.147144	0.395778	-0.906481	-0.953191	0.188007	0.236812	0.264150	0.898895	0.349588
53025		-0.162435	0.383818	-0.909010	-0.955321	0.169375	0.242227	0.246935	0.907742	0.339157
53026		-0.178665	0.371353	-0.911140	-0.956374	0.152003	0.249487	0.231144	0.915965	0.327995
53027		-0.196007	0.358255	-0.912817	-0.956549	0.135060	0.258404	0.215860	0.923803	0.316215
53028		-0.214439	0.344690	-0.913895	-0.955841	0.118448	0.268956	0.200955	0.931214	0.304070
53029		-0.234002	0.330687	-0.914270	-0.954250	0.101925	0.281100	0.186143	0.938220	0.291708
53030		-0.254539	0.315858	-0.914026	-0.951671	0.086147	0.294791	0.171852	0.944888	0.278665
53031		-0.276620	0.299941	-0.912971	-0.947922	0.070914	0.310507	0.157876	0.951318	0.264704
53032		-0.299663	0.283205	-0.911042	-0.943172	0.055820	0.327584	0.143628	0.957433	0.250384
53033		-0.323752	0.265831	-0.908030	-0.937267	0.041035	0.346189	0.129289	0.963146	0.235870
53034		-0.348328	0.247765	-0.904035	-0.930443	0.025668	0.365537	0.113772	0.968480	0.221591
53035		-0.373010	0.229021	-0.899118	-0.922599	0.011178	0.385599	0.098360	0.973357	0.207125
53036		-0.397473	0.209723	-0.893326	-0.913751	-0.001231	0.406272	0.084105	0.977760	0.192124
53037		-0.421727	0.190211	-0.886547	-0.903961	-0.011950	0.427447	0.070711	0.981670	0.176983
53038		-0.445937	0.170569	-0.878662	-0.893188	-0.021277	0.449180	0.057921	0.985116	0.161838
53039		-0.470349	0.150670	-0.869523	-0.881282	-0.028867	0.471707	0.045971	0.988163	0.146360
53040		-0.494568	0.130662	-0.859261	-0.868454	-0.035042	0.494530	0.034506	0.990808	0.130804
53041		-0.518502	0.110426	-0.847916	-0.854754	-0.039712	0.517511	0.023474	0.993091	0.114978
53042		-0.541544	0.090477	-0.835789	-0.840578	-0.043339	0.539955	0.012631	0.994955	0.099523
53043		-0.563660	0.071242	-0.822929	-0.826004	-0.046340	0.561755	0.001886	0.996382	0.084966
53044		-0.584508	0.052225	-0.809706	-0.811325	-0.050088	0.582446	-0.010138	0.997378	0.071648
53045		-0.604000	0.032798	-0.796309	-0.796627	-0.054765	0.601986	-0.023866	0.997960	0.059205
53046		-0.621687	0.013599	-0.783148	-0.782309	-0.060191	0.619975	-0.038707	0.998094	0.048059
53047		-0.637728	-0.005421	-0.770243	-0.768242	-0.067896	0.636549	-0.055747	0.997678	0.039134
53048		-0.651998	-0.024537	-0.757823	-0.754419	-0.078968	0.651626	-0.075833	0.996575	0.032976
53049		-0.664369	-0.043434	-0.746142	-0.741110	-0.091011	0.665187	-0.096799	0.994902	0.028276
53050		-0.674451	-0.061779	-0.735730	-0.728704	-0.104601	0.676793	-0.118770	0.992594	0.025529
53051		-0.682436	-0.079289	-0.726632	-0.717164	-0.119496	0.686583	-0.141268	0.989664	0.024685
53052		-0.688721	-0.095371	-0.718727	-0.706397	-0.135007	0.694821	-0.163299	0.986244	0.025613
53053		-0.693835	-0.109708	-0.711728	-0.696130	-0.150872	0.701884	-0.184382	0.982447	0.028309
53054		-0.698159	-0.121806	-0.705505	-0.686327	-0.166622	0.707949	-0.203785	0.978468	0.032730
53055		-0.701846	-0.131932	-0.700004	-0.677088	-0.181704	0.713116	-0.221277	0.974463	0.038199
53056		-0.704565	-0.140771	-0.695537	-0.668987	-0.195212	0.717181	-0.236735	0.970606	0.043365
53057		-0.705964	-0.148838	-0.692432	-0.662623	-0.206426	0.719944	-0.250091	0.967076	0.047106
53058		-0.706457	-0.155859	-0.690382	-0.657256	-0.217385	0.721636	-0.262552	0.963562	0.051135
53059		-0.706222	-0.161946	-0.689220	-0.652488	-0.228960	0.722383	-0.274791	0.959870	0.056029
53060		-0.705704	-0.166997	-0.688545	-0.648061	-0.240633	0.722573	-0.286354	0.956142	0.061592
53061		-0.704808	-0.171284	-0.688410	-0.644287	-0.251563	0.722226	-0.296884	0.952564	0.066947
53062		-0.703777	-0.174394	-0.688684	-0.641205	-0.261439	0.721461	-0.305867	0.949335	0.072172
53063		-0.702637	-0.176989	-0.689185	-0.639042	-0.269007	0.720598	-0.312933	0.946737	0.075911
53064		-0.701611	-0.178781	-0.689768	-0.637738	-0.274260	0.719772	-0.317857	0.944891	0.078409
53065		-0.700831	-0.179599	-0.690348	-0.637270	-0.277197	0.719061	-0.320505	0.943878	0.079815
53066		-0.701002	-0.178978	-0.690335	-0.637739	-0.275931	0.719132	-0.319194	0.944367	0.079286
53067		-0.702139	-0.175525	-0.690067	-0.639432	-0.270928	0.719531	-0.313254	0.946461	0.077993
53068		-0.703537	-0.169687	-0.690102	-0.641592	-0.265931	0.719472	-0.305605	0.948940	0.078223
53069		-0.704780	-0.163035	-0.690438	-0.643536	-0.262677	0.718931	-0.298573	0.951010	0.080210
53070		-0.706013	-0.156163	-0.690767	-0.644921	-0.261240	0.718214	-0.292614	0.952558	0.083726
53071		-0.707070	-0.149076	-0.691251	-0.646188	-0.260824	0.717225	-0.287216	0.953807	0.088090
53072		-0.707640	-0.141692	-0.692220	-0.647426	-0.262353	0.715550	-0.282994	0.954513	0.093916
53073		-0.707586	-0.134495	-0.693710	-0.648306	-0.266982	0.713036	-0.281108	0.954270	0.101719
53074		-0.707502	-0.127232	-0.695164	-0.648453	-0.274217	0.710150	-0.280980	0.953214	0.111505
53075		-0.707586	-0.118905	-0.696552	-0.648291	-0.282954	0.706863	-0.281142	0.951734	0.123129
53076		-0.707341	-0.109502	-0.698340	-0.648321	-0.293191	0.702651	-0.281688	0.949762	0.136394
53077		-0.706369	-0.099776	-0.700776	-0.648876	-0.304327	0.697384	-0.282847	0.947328	0.150225
53078		-0.704812	-0.090042	-0.703656	-0.649918	-0.315613	0.691372	-0.284336	0.944606	0.163928
53079		-0.702864	-0.080312	-0.706776	-0.651373	-0.326581	0.684878	-0.285823	0.941751	0.177229
53080		-0.700892	-0.070847	-0.709740	-0.653168	-0.336030	0.678569	-0.286568	0.939183	0.189246
53081		-0.699415	-0.061769	-0.712041	-0.655123	-0.342855	0.673249	-0.285713	0.937355	0.199332
53082		-0.698577	-0.053516	-0.713531	-0.657041	-0.346911	0.669291	-0.283349	0.936370	0.207181
53083		-0.698016	-0.046179	-0.714592	-0.658943	-0.349200	0.666224	-0.280301	0.935910	0.213317
53084		-0.697150	-0.039896	-0.715814	-0.661088	-0.350541	0.663388	-0.277389	0.935697	0.218005
53085		-0.695964	-0.034957	-0.717225	-0.663756	-0.349769	0.661127	-0.273974	0.936183	0.220224
53086		-0.694883	-0.031515	-0.718432	-0.666857	-0.345672	0.660161	-0.269147	0.937826	0.219185
53087		-0.694461	-0.029348	-0.718931	-0.669956	-0.338081	0.660954	-0.262455	0.940659	0.215122
53088		-0.695173	-0.028122	-0.718293	-0.672420	-0.327828	0.663611	-0.254138	0.944319	0.208988
53089		-0.697160	-0.027638	-0.716383	-0.673678	-0.316521	0.667812	-0.245208	0.948183	0.202046
53090		-0.700056	-0.027906	-0.713542	-0.674064	-0.304009	0.673213	-0.235709	0.952260	0.194013
53091		-0.703724	-0.029234	-0.709872	-0.673518	-0.290599	0.679652	-0.226157	0.956398	0.184812
53092		-0.707972	-0.031710	-0.705528	-0.672167	-0.276299	0.686913	-0.216719	0.960548	0.174298
53093		-0.712687	-0.035505	-0.700584	-0.670084	-0.260997	0.694887	-0.207522	0.964686	0.162218
53094		-0.717662	-0.040505	-0.695213	-0.667261	-0.245721	0.703124	-0.199309	0.968494	0.149317
53095		-0.723004	-0.047187	-0.689230	-0.663360	-0.231184	0.711693	-0.192922	0.971765	0.135845
53096		-0.728640	-0.055311	-0.682660	-0.658705	-0.216410	0.720607	-0.187592	0.974734	0.121251
53097		-0.734535	-0.064039	-0.675542	-0.653478	-0.201465	0.729643	-0.182824	0.977400	0.106136
53098		-0.740645	-0.072370	-0.667988	-0.647836	-0.186754	0.738533	-0.178197	0.979738	0.091434
53099		-0.746957	-0.079931	-0.660050	-0.641862	-0.172220	0.747231	-0.173401	0.981810	0.077336
53100		-0.753169	-0.087259	-0.652014	-0.635845	-0.157518	0.755572	-0.168635	0.983653	0.063154
53101		-0.759132	-0.094393	-0.644057	-0.629941	-0.142737	0.763413	-0.163991	0.985249	0.048894
53102		-0.764536	-0.101641	-0.636516	-0.624283	-0.129094	0.770457	-0.160481	0.986410	0.035245
53103		-0.769027	-0.109503	-0.629767	-0.619117	-0.117519	0.776456	-0.159034	0.987015	0.022580
53104		-0.772533	-0.118113	-0.623893	-0.614330	-0.109476	0.781417	-0.160597	0.986947	0.012014
53105		-0.775194	-0.127395	-0.618744	-0.609772	-0.105052	0.785584	-0.165080	0.986273	0.003754
53106		-0.777014	-0.136972	-0.614400	-0.605581	-0.103749	0.788991	-0.171813	0.985127	-0.002333
53107		-0.778124	-0.146009	-0.610904	-0.602196	-0.103070	0.791667	-0.178556	0.983899	-0.007724
53108		-0.778616	-0.154140	-0.608274	-0.599671	-0.102705	0.793629	-0.184802	0.982697	-0.012466
53109		-0.778409	-0.161664	-0.606584	-0.598089	-0.102556	0.794841	-0.190706	0.981502	-0.016859
53110		-0.777670	-0.168714	-0.605612	-0.597118	-0.103134	0.795495	-0.196671	0.980254	-0.020538
53111		-0.776971	-0.174643	-0.604827	-0.596262	-0.104066	0.796016	-0.201961	0.979117	-0.023277
53112		-0.776459	-0.179709	-0.604000	-0.595480	-0.104375	0.796561	-0.206192	0.978167	-0.025971
53113		-0.776019	-0.184141	-0.603230	-0.595032	-0.103370	0.797027	-0.209121	0.977449	-0.029353
53114		-0.775241	-0.188383	-0.602921	-0.595282	-0.101378	0.797096	-0.211282	0.976849	-0.033549
53115		-0.773748	-0.193120	-0.603339	-0.596424	-0.098939	0.796548	-0.213524	0.976174	-0.038628
53116		-0.771299	-0.198665	-0.604674	-0.598296	-0.097778	0.795287	-0.217119	0.975178	-0.043444
53117		-0.768015	-0.205124	-0.606693	-0.600299	-0.099500	0.793562	-0.223144	0.973665	-0.046718
53118		-0.764027	-0.212204	-0.609288	-0.602300	-0.103961	0.791471	-0.231295	0.971680	-0.048381
53119		-0.759669	-0.219269	-0.612229	-0.603938	-0.111258	0.789228	-0.241169	0.969300	-0.047906
53120		-0.755237	-0.225616	-0.615398	-0.605234	-0.120372	0.786894	-0.251612	0.966751	-0.045641
53121		-0.750869	-0.231174	-0.618671	-0.606331	-0.130084	0.784500	-0.261836	0.964177	-0.042492
53122		-0.746548	-0.235998	-0.622070	-0.607336	-0.140058	0.782002	-0.271676	0.961607	-0.038770
53123		-0.742536	-0.240114	-0.625289	-0.607791	-0.150771	0.779653	-0.281481	0.958965	-0.033986
53124		-0.738964	-0.243292	-0.628284	-0.607832	-0.161536	0.777462	-0.290640	0.956407	-0.028512
53125		-0.735855	-0.245410	-0.631104	-0.607396	-0.172753	0.775388	-0.299313	0.953903	-0.021940
53126		-0.733116	-0.246471	-0.633872	-0.606791	-0.183889	0.773298	-0.307158	0.951544	-0.014745
53127		-0.730891	-0.246982	-0.636238	-0.605975	-0.194047	0.771453	-0.313995	0.949392	-0.007838
53128		-0.729536	-0.247197	-0.637708	-0.604922	-0.201856	0.770275	-0.319135	0.947707	-0.002274
53129		-0.729497	-0.246656	-0.637961	-0.603925	-0.205596	0.770068	-0.321104	0.947043	0.001020
53130		-0.730721	-0.243737	-0.637683	-0.603618	-0.205656	0.770293	-0.318892	0.947786	0.003154
53131		-0.732304	-0.238656	-0.637788	-0.603672	-0.205909	0.770183	-0.315135	0.949023	0.006718
53132		-0.733676	-0.232722	-0.638404	-0.603918	-0.207308	0.769615	-0.311453	0.950191	0.011552
53133		-0.734610	-0.226003	-0.639743	-0.604880	-0.208984	0.768405	-0.307358	0.951445	0.016817
53134		-0.734502	-0.219311	-0.642192	-0.607091	-0.210506	0.766243	-0.303230	0.952675	0.021475
53135		-0.732697	-0.213943	-0.646052	-0.610298	-0.213514	0.762855	-0.301149	0.953226	0.025872
53136		-0.729213	-0.209608	-0.651393	-0.613924	-0.220045	0.758075	-0.302235	0.952704	0.031776
53137		-0.724062	-0.204483	-0.658726	-0.618406	-0.230497	0.751295	-0.305462	0.951345	0.040441
53138		-0.717531	-0.197572	-0.667918	-0.623783	-0.244385	0.742408	-0.309908	0.949337	0.052112
53139		-0.709996	-0.189933	-0.678108	-0.630261	-0.258156	0.732207	-0.314128	0.947249	0.063582
53140		-0.702134	-0.182310	-0.688310	-0.637519	-0.269590	0.721728	-0.317139	0.945561	0.073062
53141		-0.694289	-0.173944	-0.698360	-0.645273	-0.279279	0.711074	-0.318724	0.944323	0.081658
53142		-0.686877	-0.164623	-0.707884	-0.653333	-0.286804	0.700643	-0.318366	0.943739	0.089445
53143		-0.679812	-0.155303	-0.716754	-0.661665	-0.291644	0.690755	-0.316314	0.943835	0.095505
53144		-0.673160	-0.146542	-0.724832	-0.669947	-0.294138	0.681655	-0.313092	0.944462	0.099827
53145		-0.666891	-0.138004	-0.732264	-0.678263	-0.294516	0.673216	-0.308570	0.945629	0.102807
53146		-0.661287	-0.129124	-0.738936	-0.686491	-0.292905	0.665535	-0.302375	0.947382	0.105051
53147		-0.656439	-0.119840	-0.744799	-0.694591	-0.289191	0.658719	-0.294331	0.949740	0.106596
53148		-0.652269	-0.110577	-0.749878	-0.702444	-0.283543	0.652821	-0.284810	0.952563	0.107272
53149		-0.648723	-0.102045	-0.754152	-0.709723	-0.276559	0.647926	-0.274685	0.955564	0.106987
53150		-0.645756	-0.094462	-0.757678	-0.716126	-0.269318	0.643919	-0.264882	0.958407	0.106266
53151		-0.642977	-0.087828	-0.760833	-0.721975	-0.262026	0.640386	-0.255602	0.961056	0.105067
53152		-0.640262	-0.082183	-0.763748	-0.727213	-0.255422	0.637119	-0.247438	0.963331	0.103772
53153		-0.637594	-0.077597	-0.766455	-0.731961	-0.249219	0.634131	-0.240222	0.965333	0.102103
53154		-0.635120	-0.074283	-0.768833	-0.736169	-0.243114	0.631626	-0.233833	0.967149	0.099722
53155		-0.632916	-0.072089	-0.770857	-0.739565	-0.238255	0.629506	-0.229041	0.968523	0.097481
53156		-0.630844	-0.070897	-0.772663	-0.742227	-0.235076	0.627565	-0.226128	0.969388	0.095675
53157		-0.629473	-0.070989	-0.773772	-0.744205	-0.231268	0.626637	-0.223433	0.970297	0.092746
53158		-0.629068	-0.072242	-0.773986	-0.745387	-0.226521	0.626966	-0.220618	0.971323	0.088649
53159		-0.629689	-0.074131	-0.773302	-0.745553	-0.222019	0.628377	-0.218270	0.972220	0.084534
53160		-0.631233	-0.076614	-0.771800	-0.744838	-0.217568	0.630778	-0.216245	0.973034	0.080271
53161		-0.633764	-0.079480	-0.769432	-0.743332	-0.212625	0.634230	-0.214009	0.973896	0.075674
53162		-0.636867	-0.082663	-0.766529	-0.741299	-0.207529	0.638285	-0.211839	0.974730	0.070890
53163		-0.640820	-0.086286	-0.762826	-0.738819	-0.200626	0.643347	-0.208555	0.975860	0.064815
53164		-0.645293	-0.090270	-0.758583	-0.736015	-0.192541	0.649007	-0.204645	0.977128	0.057806
53165		-0.650399	-0.094767	-0.753658	-0.732576	-0.184007	0.655343	-0.200783	0.978346	0.050254
53166		-0.655781	-0.099960	-0.748304	-0.728750	-0.175049	0.662028	-0.197166	0.979472	0.041948
53167		-0.661468	-0.105785	-0.742475	-0.724670	-0.164839	0.669090	-0.193169	0.980631	0.032376
53168		-0.667147	-0.111703	-0.736503	-0.720613	-0.153756	0.676073	-0.188761	0.981775	0.022083
53169		-0.673007	-0.117262	-0.730282	-0.716325	-0.142594	0.683041	-0.184229	0.982811	0.011969
