// Start Time: Unknown
// Update Rate: 100.0Hz
// Filter Profile: human (46.1)
// Option Flags: AHS Disabled ICC Disabled 
// Firmware Version: 4.0.2
PacketCounter	SampleTimeFine	Mat[1][1]	Mat[2][1]	Mat[3][1]	Mat[1][2]	Mat[2][2]	Mat[3][2]	Mat[1][3]	Mat[2][3]	Mat[3][3]
06814		-0.173955	-0.121678	-0.977207	-0.880006	-0.426156	0.209716	-0.441961	0.896429	-0.032945
06815		-0.173862	-0.121759	-0.977214	-0.880044	-0.426102	0.209666	-0.441921	0.896444	-0.033070
06816		-0.173753	-0.121795	-0.977229	-0.880102	-0.426024	0.209581	-0.441848	0.896476	-0.033170
06817		-0.173642	-0.121846	-0.977242	-0.880166	-0.425932	0.209500	-0.441765	0.896513	-0.033285
06818		-0.173522	-0.121889	-0.977258	-0.880280	-0.425742	0.209404	-0.441584	0.896597	-0.033421
06819		-0.173418	-0.121898	-0.977275	-0.880402	-0.425540	0.209306	-0.441383	0.896692	-0.033523
06820		-0.173281	-0.121941	-0.977294	-0.880577	-0.425233	0.209190	-0.441086	0.896832	-0.033694
06821		-0.173153	-0.121949	-0.977316	-0.880764	-0.424908	0.209067	-0.440765	0.896985	-0.033834
06822		-0.173020	-0.121991	-0.977334	-0.880950	-0.424578	0.208952	-0.440445	0.897135	-0.034007
06823		-0.172880	-0.122028	-0.977355	-0.881126	-0.424272	0.208831	-0.440147	0.897275	-0.034174
06824		-0.172724	-0.122064	-0.977377	-0.881308	-0.423960	0.208695	-0.439843	0.897417	-0.034348
06825		-0.172552	-0.122117	-0.977401	-0.881490	-0.423652	0.208551	-0.439545	0.897556	-0.034543
06826		-0.172376	-0.122201	-0.977422	-0.881688	-0.423308	0.208416	-0.439219	0.897707	-0.034775
06827		-0.172173	-0.122231	-0.977454	-0.881890	-0.422977	0.208233	-0.438893	0.897859	-0.034969
06828		-0.171951	-0.122290	-0.977486	-0.882116	-0.422598	0.208044	-0.438525	0.898029	-0.035208
06829		-0.171713	-0.122311	-0.977525	-0.882322	-0.422276	0.207826	-0.438204	0.898178	-0.035408
06830		-0.171536	-0.122273	-0.977561	-0.882567	-0.421859	0.207633	-0.437780	0.898379	-0.035551
06831		-0.171354	-0.122259	-0.977594	-0.882836	-0.421388	0.207444	-0.437308	0.898602	-0.035728
06832		-0.171188	-0.122250	-0.977624	-0.883101	-0.420917	0.207271	-0.436837	0.898824	-0.035903
06833		-0.171061	-0.122258	-0.977646	-0.883351	-0.420456	0.207142	-0.436382	0.899038	-0.036073
06834		-0.170985	-0.122291	-0.977655	-0.883557	-0.420058	0.207071	-0.435994	0.899220	-0.036227
06835		-0.171030	-0.122379	-0.977636	-0.883701	-0.419722	0.207137	-0.435685	0.899365	-0.036361
06836		-0.171325	-0.122523	-0.977566	-0.883740	-0.419482	0.207457	-0.435490	0.899457	-0.036411
06837		-0.171819	-0.122774	-0.977448	-0.883789	-0.419111	0.207998	-0.435196	0.899596	-0.036495
06838		-0.172490	-0.123256	-0.977269	-0.883839	-0.418608	0.208795	-0.434828	0.899764	-0.036733
06839		-0.173450	-0.123950	-0.977012	-0.883814	-0.418085	0.209945	-0.434497	0.899912	-0.037032
06840		-0.174764	-0.124686	-0.976684	-0.883633	-0.417714	0.211440	-0.434338	0.899982	-0.037175
06841		-0.176391	-0.125578	-0.976277	-0.883325	-0.417427	0.213290	-0.434309	0.899992	-0.037296
06842		-0.178302	-0.126697	-0.975785	-0.882944	-0.417100	0.215494	-0.434303	0.899986	-0.037497
06843		-0.180508	-0.127956	-0.975215	-0.882446	-0.416835	0.218030	-0.434402	0.899931	-0.037672
06844		-0.182991	-0.129295	-0.974575	-0.881798	-0.416720	0.220856	-0.434680	0.899793	-0.037756
06845		-0.185813	-0.130785	-0.973842	-0.880943	-0.416813	0.224065	-0.435215	0.899534	-0.037764
06846		-0.188914	-0.132396	-0.973028	-0.879982	-0.416940	0.227581	-0.435825	0.899240	-0.037740
06847		-0.192406	-0.134022	-0.972120	-0.878905	-0.417078	0.231457	-0.436471	0.898935	-0.037545
06848		-0.196266	-0.135746	-0.971109	-0.877723	-0.417186	0.235708	-0.437130	0.898626	-0.037268
06849		-0.200332	-0.137574	-0.970021	-0.876379	-0.417450	0.240198	-0.437980	0.898225	-0.036938
06850		-0.204625	-0.139441	-0.968857	-0.874826	-0.417963	0.244920	-0.439098	0.897699	-0.036461
06851		-0.209138	-0.141363	-0.967615	-0.873005	-0.418835	0.249879	-0.440594	0.896991	-0.035816
06852		-0.213955	-0.143344	-0.966269	-0.870972	-0.419891	0.255144	-0.442301	0.896183	-0.035011
06853		-0.219076	-0.145269	-0.964833	-0.868833	-0.420937	0.260656	-0.444000	0.895382	-0.033997
06854		-0.224377	-0.147232	-0.963316	-0.866650	-0.421878	0.266340	-0.445615	0.894618	-0.032939
06855		-0.229863	-0.149142	-0.961727	-0.864479	-0.422618	0.272158	-0.447033	0.893953	-0.031786
06856		-0.235620	-0.150898	-0.960059	-0.862359	-0.423056	0.278137	-0.448129	0.893450	-0.030448
06857		-0.241601	-0.152673	-0.958290	-0.860260	-0.423223	0.284313	-0.448978	0.893069	-0.029087
06858		-0.247823	-0.154459	-0.956413	-0.858105	-0.423258	0.290705	-0.449711	0.892746	-0.027649
06859		-0.254254	-0.156375	-0.954412	-0.855788	-0.423337	0.297342	-0.450535	0.892375	-0.026189
06860		-0.260876	-0.158285	-0.952307	-0.853209	-0.423704	0.304154	-0.451639	0.891864	-0.024516
06861		-0.267532	-0.160246	-0.950130	-0.850304	-0.424553	0.311027	-0.453221	0.891110	-0.022677
06862		-0.274202	-0.162095	-0.947913	-0.847211	-0.425671	0.317863	-0.455023	0.890241	-0.020608
06863		-0.280900	-0.163925	-0.945634	-0.843963	-0.426954	0.324710	-0.456971	0.889291	-0.018415
06864		-0.287753	-0.165688	-0.943263	-0.840656	-0.428137	0.331656	-0.458797	0.888395	-0.016088
06865		-0.294729	-0.167476	-0.940791	-0.837062	-0.429648	0.338717	-0.460935	0.887330	-0.013558
06866		-0.301710	-0.169232	-0.938260	-0.833124	-0.431685	0.345764	-0.463547	0.886007	-0.010748
06867		-0.308596	-0.171070	-0.935683	-0.828926	-0.434104	0.352754	-0.466530	0.884471	-0.007842
06868		-0.315430	-0.172788	-0.933085	-0.824517	-0.436854	0.359625	-0.469761	0.882781	-0.004670
06869		-0.322136	-0.174350	-0.930500	-0.819993	-0.439823	0.366290	-0.473118	0.880998	-0.001283
06870		-0.328752	-0.175739	-0.927921	-0.815242	-0.443197	0.372769	-0.476762	0.879029	0.002432
06871		-0.335290	-0.176717	-0.925393	-0.810418	-0.446785	0.378953	-0.480419	0.877014	0.006588
06872		-0.341799	-0.177413	-0.922875	-0.805951	-0.449730	0.384950	-0.483340	0.875367	0.010731
06873		-0.348208	-0.178135	-0.920336	-0.802022	-0.451650	0.390862	-0.485296	0.874231	0.014400
06874		-0.354524	-0.178940	-0.917765	-0.798604	-0.452584	0.396735	-0.486358	0.873584	0.017550
06875		-0.360640	-0.179646	-0.915241	-0.795637	-0.452817	0.402392	-0.486724	0.873318	0.020371
06876		-0.366503	-0.180234	-0.912793	-0.792996	-0.452633	0.407776	-0.486656	0.873292	0.022967
06877		-0.372116	-0.180575	-0.910452	-0.790472	-0.452475	0.412820	-0.486502	0.873304	0.025634
06878		-0.377469	-0.180388	-0.908282	-0.788122	-0.452391	0.417379	-0.486189	0.873385	0.028596
06879		-0.382456	-0.180133	-0.906245	-0.786127	-0.451952	0.421597	-0.485523	0.873665	0.031244
06880		-0.387104	-0.179888	-0.904318	-0.784612	-0.450877	0.425552	-0.484288	0.874271	0.033394
06881		-0.391533	-0.179658	-0.902455	-0.783487	-0.449229	0.429349	-0.482545	0.875167	0.035128
06882		-0.395876	-0.179312	-0.900627	-0.782491	-0.447428	0.433030	-0.480614	0.876159	0.036816
06883		-0.399925	-0.179089	-0.898881	-0.781412	-0.445934	0.436507	-0.479015	0.876966	0.038398
06884		-0.403737	-0.178864	-0.897220	-0.780225	-0.444809	0.439765	-0.477750	0.877583	0.040032
06885		-0.407440	-0.178465	-0.895624	-0.779143	-0.443643	0.442851	-0.476371	0.878254	0.041708
06886		-0.411144	-0.177833	-0.894056	-0.778271	-0.442169	0.445849	-0.474611	0.879125	0.043393
06887		-0.414806	-0.176961	-0.892536	-0.777821	-0.440035	0.448736	-0.472156	0.880371	0.044885
06888		-0.418436	-0.176039	-0.891023	-0.777798	-0.437110	0.451624	-0.468978	0.882012	0.045980
06889		-0.422053	-0.175171	-0.889487	-0.778077	-0.433546	0.454570	-0.465261	0.883942	0.046683
06890		-0.425775	-0.174333	-0.887876	-0.778675	-0.429181	0.457678	-0.460848	0.886234	0.046986
06891		-0.429586	-0.173599	-0.886182	-0.779619	-0.423911	0.460970	-0.455686	0.888911	0.046766
06892		-0.433554	-0.173022	-0.884361	-0.780849	-0.417713	0.464532	-0.449783	0.891952	0.045997
06893		-0.437671	-0.172436	-0.882446	-0.782040	-0.411294	0.468242	-0.443686	0.895044	0.045159
06894		-0.441913	-0.171710	-0.880471	-0.782929	-0.405273	0.471992	-0.437877	0.897925	0.044658
06895		-0.446098	-0.171057	-0.878485	-0.783169	-0.400474	0.475675	-0.433178	0.900200	0.044684
06896		-0.450223	-0.170353	-0.876516	-0.782748	-0.397048	0.479226	-0.429656	0.901850	0.045417
06897		-0.454302	-0.169517	-0.874571	-0.781868	-0.394640	0.482640	-0.426956	0.903063	0.046746
06898		-0.458425	-0.168490	-0.872615	-0.780857	-0.392503	0.486007	-0.424391	0.904186	0.048367
06899		-0.462582	-0.167415	-0.870626	-0.779902	-0.390173	0.489405	-0.421629	0.905393	0.049919
06900		-0.466793	-0.166259	-0.868598	-0.779061	-0.387510	0.492849	-0.418531	0.906749	0.051361
06901		-0.471072	-0.165089	-0.866509	-0.778226	-0.384685	0.496368	-0.415278	0.908165	0.052738
06902		-0.475283	-0.163903	-0.864432	-0.777553	-0.381520	0.499854	-0.411725	0.909713	0.053887
06903		-0.479383	-0.162632	-0.862405	-0.777177	-0.377800	0.503252	-0.407661	0.911492	0.054717
06904		-0.483272	-0.161278	-0.860487	-0.777118	-0.373595	0.506472	-0.403156	0.913464	0.055216
06905		-0.487078	-0.159878	-0.858600	-0.777211	-0.369078	0.509632	-0.398369	0.915544	0.055511
06906		-0.490744	-0.158384	-0.856788	-0.777401	-0.364471	0.512649	-0.393470	0.917647	0.055734
06907		-0.494016	-0.157066	-0.855148	-0.777480	-0.360464	0.515355	-0.389195	0.919454	0.055960
06908		-0.496823	-0.155983	-0.853719	-0.777463	-0.357130	0.517696	-0.385640	0.920939	0.056159
06909		-0.499268	-0.154867	-0.852495	-0.777560	-0.354006	0.519692	-0.382271	0.922332	0.056325
06910		-0.501501	-0.153503	-0.851430	-0.778002	-0.350455	0.521435	-0.378430	0.923914	0.056328
06911		-0.503492	-0.151927	-0.850538	-0.778819	-0.346412	0.522915	-0.374081	0.925698	0.056091
06912		-0.505335	-0.150168	-0.849757	-0.779903	-0.341964	0.524225	-0.369308	0.927637	0.055689
06913		-0.506979	-0.148356	-0.849095	-0.781142	-0.337374	0.525353	-0.364401	0.929607	0.055154
06914		-0.508385	-0.146525	-0.848573	-0.782567	-0.332605	0.526272	-0.359351	0.931614	0.054425
06915		-0.509599	-0.144846	-0.848132	-0.784034	-0.327845	0.527076	-0.354401	0.933562	0.053505
06916		-0.510588	-0.143171	-0.847822	-0.785654	-0.322951	0.527684	-0.349354	0.935524	0.052412
06917		-0.511264	-0.141573	-0.847683	-0.787415	-0.318054	0.528034	-0.344364	0.937443	0.051133
06918		-0.511513	-0.139997	-0.847795	-0.789457	-0.313005	0.528002	-0.339282	0.939377	0.049584
06919		-0.511393	-0.138349	-0.848137	-0.791596	-0.308268	0.527586	-0.334445	0.941186	0.048129
06920		-0.511028	-0.136593	-0.848642	-0.793676	-0.304105	0.526877	-0.330044	0.942795	0.046995
06921		-0.510458	-0.134833	-0.849266	-0.795627	-0.300603	0.525943	-0.326207	0.944170	0.046169
06922		-0.509781	-0.133003	-0.849961	-0.797594	-0.297224	0.524883	-0.322440	0.945499	0.045437
06923		-0.509119	-0.131130	-0.850648	-0.799541	-0.293835	0.523827	-0.318640	0.946819	0.044753
06924		-0.508478	-0.129084	-0.851344	-0.801589	-0.290145	0.522754	-0.314492	0.948237	0.044060
06925		-0.507940	-0.127079	-0.851967	-0.803790	-0.285683	0.521830	-0.309706	0.949861	0.042965
06926		-0.507519	-0.125188	-0.852498	-0.806029	-0.280709	0.521076	-0.304537	0.951593	0.041560
06927		-0.507294	-0.123359	-0.852898	-0.808191	-0.275434	0.520541	-0.299131	0.953372	0.040029
06928		-0.507095	-0.121547	-0.853276	-0.810438	-0.269693	0.520054	-0.293334	0.955244	0.038254
06929		-0.507153	-0.119844	-0.853483	-0.812570	-0.263593	0.519855	-0.287273	0.957161	0.036301
06930		-0.507337	-0.118107	-0.853616	-0.814669	-0.257193	0.519775	-0.280933	0.959115	0.034265
06931		-0.507558	-0.116377	-0.853722	-0.816584	-0.251168	0.519717	-0.274910	0.960922	0.032451
06932		-0.507789	-0.114645	-0.853819	-0.818407	-0.245277	0.519662	-0.268998	0.962650	0.030722
06933		-0.508142	-0.112921	-0.853839	-0.820072	-0.239520	0.519723	-0.263199	0.964302	0.029106
06934		-0.508681	-0.111052	-0.853763	-0.821711	-0.233356	0.519938	-0.256971	0.966029	0.027451
06935		-0.509318	-0.109199	-0.853622	-0.823262	-0.227101	0.520255	-0.250670	0.967730	0.025767
06936		-0.510108	-0.107153	-0.853410	-0.824825	-0.220338	0.520687	-0.243832	0.969520	0.024014
06937		-0.511108	-0.105170	-0.853058	-0.826257	-0.213298	0.521348	-0.236785	0.971310	0.022121
06938		-0.512278	-0.103078	-0.852612	-0.827671	-0.205694	0.522160	-0.229200	0.973173	0.020058
06939		-0.513411	-0.100869	-0.852194	-0.828983	-0.198382	0.522908	-0.221805	0.974921	0.018233
06940		-0.514564	-0.098439	-0.851783	-0.830257	-0.191001	0.523634	-0.214238	0.976641	0.016553
06941		-0.515679	-0.096028	-0.851383	-0.831273	-0.184595	0.524319	-0.207511	0.978112	0.015366
06942		-0.516911	-0.093421	-0.850926	-0.832162	-0.178295	0.525087	-0.200770	0.979532	0.014421
06943		-0.518253	-0.090740	-0.850400	-0.832856	-0.172398	0.525957	-0.194332	0.980839	0.013773
06944		-0.519683	-0.087742	-0.849842	-0.833555	-0.166104	0.526873	-0.187391	0.982197	0.013184
06945		-0.521073	-0.084813	-0.849288	-0.834156	-0.160105	0.527778	-0.180738	0.983450	0.012679
06946		-0.522490	-0.081690	-0.848723	-0.834762	-0.153789	0.528697	-0.173713	0.984721	0.012161
06947		-0.523893	-0.078587	-0.848151	-0.835260	-0.147784	0.529623	-0.166965	0.985892	0.011782
06948		-0.525234	-0.075420	-0.847609	-0.835822	-0.141308	0.530503	-0.159785	0.987089	0.011183
06949		-0.526557	-0.072330	-0.847057	-0.836353	-0.134637	0.531400	-0.152482	0.988252	0.010401
06950		-0.527891	-0.069230	-0.846486	-0.836940	-0.127099	0.532332	-0.144441	0.989471	0.009153
06951		-0.529307	-0.066312	-0.845835	-0.837427	-0.119210	0.533391	-0.136202	0.990652	0.007567
06952		-0.530696	-0.063331	-0.845193	-0.837905	-0.110905	0.534430	-0.127582	0.991811	0.005791
06953		-0.531969	-0.060579	-0.844594	-0.838252	-0.103399	0.535391	-0.119763	0.992793	0.004225
06954		-0.533032	-0.057832	-0.844116	-0.838616	-0.096244	0.536153	-0.112248	0.993676	0.002802
06955		-0.533953	-0.055083	-0.843718	-0.838947	-0.089618	0.536784	-0.105180	0.994452	0.001640
06956		-0.534782	-0.052030	-0.843386	-0.839288	-0.083051	0.537307	-0.098000	0.995186	0.000746
06957		-0.535345	-0.049031	-0.843209	-0.839670	-0.077174	0.537585	-0.091432	0.995811	0.000145
06958		-0.535649	-0.045993	-0.843187	-0.840143	-0.071593	0.537620	-0.085094	0.996373	-0.000292
06959		-0.535870	-0.042976	-0.843206	-0.840571	-0.066613	0.537590	-0.079271	0.996853	-0.000428
06960		-0.535955	-0.039824	-0.843306	-0.841031	-0.061912	0.537433	-0.073613	0.997287	-0.000311
06961		-0.535903	-0.036761	-0.843479	-0.841514	-0.057536	0.537163	-0.068276	0.997666	-0.000101
06962		-0.535665	-0.033934	-0.843749	-0.842098	-0.052761	0.536738	-0.062731	0.998030	-0.000314
06963		-0.535500	-0.031183	-0.843959	-0.842607	-0.047757	0.536407	-0.057032	0.998372	-0.000702
06964		-0.535237	-0.028486	-0.844221	-0.843161	-0.042331	0.535993	-0.051005	0.998697	-0.001361
06965		-0.534959	-0.026045	-0.844477	-0.843654	-0.037313	0.535588	-0.045459	0.998964	-0.002012
06966		-0.534637	-0.023671	-0.844750	-0.844136	-0.032321	0.535154	-0.039970	0.999197	-0.002701
06967		-0.534268	-0.021418	-0.845044	-0.844577	-0.028237	0.534689	-0.035314	0.999372	-0.003003
06968		-0.533780	-0.018957	-0.845411	-0.845055	-0.024694	0.534109	-0.031001	0.999515	-0.002838
06969		-0.533152	-0.016531	-0.845858	-0.845574	-0.022048	0.533403	-0.027467	0.999620	-0.002224
06970		-0.532527	-0.013996	-0.846297	-0.846078	-0.019318	0.532708	-0.023804	0.999715	-0.001554
06971		-0.531887	-0.011504	-0.846737	-0.846562	-0.017230	0.532011	-0.020709	0.999785	-0.000574
06972		-0.531217	-0.009076	-0.847187	-0.847053	-0.015105	0.531294	-0.017619	0.999845	0.000336
06973		-0.530646	-0.006714	-0.847567	-0.847470	-0.012854	0.530688	-0.014457	0.999895	0.001131
06974		-0.530182	-0.004245	-0.847873	-0.847818	-0.009830	0.530196	-0.010585	0.999943	0.001613
06975		-0.529850	-0.001681	-0.848090	-0.848068	-0.006407	0.529849	-0.006324	0.999978	0.001969
06976		-0.529673	0.000968	-0.848201	-0.848201	-0.002113	0.529670	-0.001280	0.999997	0.001940
06977		-0.529667	0.003586	-0.848198	-0.848196	0.002585	0.529677	0.004092	0.999990	0.001672
06978		-0.529817	0.006277	-0.848089	-0.848055	0.007722	0.529852	0.009874	0.999950	0.001232
06979		-0.530193	0.009092	-0.847828	-0.847735	0.012581	0.530270	0.015488	0.999880	0.001038
06980		-0.530638	0.012102	-0.847512	-0.847340	0.017115	0.530775	0.020929	0.999780	0.001173
06981		-0.531127	0.015375	-0.847153	-0.846900	0.020801	0.531346	0.025791	0.999665	0.001973
06982		-0.531511	0.018872	-0.846841	-0.846515	0.023753	0.531835	0.030152	0.999540	0.003350
06983		-0.531748	0.022462	-0.846605	-0.846225	0.025901	0.532196	0.033882	0.999412	0.005235
06984		-0.531840	0.026240	-0.846438	-0.846012	0.027856	0.532436	0.037550	0.999267	0.007384
06985		-0.531788	0.030054	-0.846344	-0.845879	0.029654	0.532549	0.041102	0.999108	0.009652
06986		-0.531652	0.033963	-0.846282	-0.845759	0.031963	0.532607	0.045139	0.998912	0.011731
06987		-0.531543	0.037916	-0.846182	-0.845585	0.034611	0.532718	0.049486	0.998681	0.013664
06988		-0.531415	0.041909	-0.846074	-0.845373	0.037712	0.532843	0.054238	0.998409	0.015388
06989		-0.531298	0.046051	-0.845932	-0.845100	0.041201	0.533019	0.059400	0.998089	0.017028
06990		-0.531147	0.050235	-0.845789	-0.844807	0.044799	0.533192	0.064676	0.997732	0.018644
06991		-0.530932	0.054469	-0.845662	-0.844529	0.048263	0.533330	0.069864	0.997348	0.020377
06992		-0.530667	0.058731	-0.845543	-0.844244	0.051803	0.533450	0.075132	0.996929	0.022092
06993		-0.530427	0.062989	-0.845387	-0.843898	0.055484	0.533627	0.080518	0.996471	0.023726
06994		-0.530184	0.067276	-0.845209	-0.843492	0.059462	0.533840	0.086172	0.995961	0.025221
06995		-0.529975	0.071617	-0.844984	-0.843011	0.063573	0.534126	0.091971	0.995404	0.026682
06996		-0.529798	0.075908	-0.844720	-0.842446	0.067961	0.534478	0.097979	0.994796	0.027943
06997		-0.529673	0.080155	-0.844406	-0.841797	0.072433	0.534912	0.104039	0.994147	0.029109
06998		-0.529480	0.084379	-0.844115	-0.841128	0.077092	0.535313	0.110244	0.993447	0.030155
06999		-0.529260	0.088555	-0.843826	-0.840445	0.081655	0.535709	0.116343	0.992719	0.031209
07000		-0.528941	0.092718	-0.843578	-0.839810	0.085983	0.536028	0.122233	0.991973	0.032386
07001		-0.528470	0.096952	-0.843398	-0.839275	0.089913	0.536222	0.127820	0.991219	0.033853
07002		-0.527731	0.101258	-0.843355	-0.838929	0.093373	0.536172	0.133038	0.990469	0.035672
07003		-0.526825	0.105694	-0.843377	-0.838720	0.096287	0.535983	0.137857	0.989726	0.037922
07004		-0.525715	0.110304	-0.843479	-0.838648	0.098838	0.535630	0.142450	0.988971	0.040546
07005		-0.524438	0.114955	-0.843653	-0.838638	0.101493	0.535150	0.147143	0.988172	0.043179
07006		-0.523047	0.119499	-0.843885	-0.838628	0.104502	0.534587	0.152070	0.987319	0.045555
07007		-0.521574	0.124133	-0.844127	-0.838560	0.107948	0.534008	0.157410	0.986376	0.047790
07008		-0.519996	0.128819	-0.844399	-0.838479	0.111623	0.533379	0.162963	0.985366	0.049968
07009		-0.518293	0.133639	-0.844697	-0.838387	0.115508	0.532696	0.168758	0.984276	0.052174
07010		-0.516410	0.138559	-0.845057	-0.838278	0.119822	0.531914	0.174958	0.983079	0.054274
07011		-0.514418	0.143564	-0.845437	-0.838125	0.124427	0.531098	0.181442	0.981788	0.056317
07012		-0.512244	0.148594	-0.845888	-0.837986	0.129252	0.530164	0.188112	0.980415	0.058311
07013		-0.509964	0.153565	-0.846377	-0.837825	0.134263	0.529172	0.194899	0.978975	0.060192
07014		-0.507580	0.158577	-0.846886	-0.837648	0.139349	0.528136	0.201763	0.977464	0.062101
07015		-0.505088	0.163661	-0.847409	-0.837451	0.144505	0.527061	0.208714	0.975876	0.064070
07016		-0.502463	0.168729	-0.847975	-0.837294	0.149572	0.525896	0.215567	0.974248	0.066121
07017		-0.499770	0.173776	-0.848547	-0.837122	0.154626	0.524708	0.222389	0.972570	0.068194
07018		-0.496962	0.178793	-0.849154	-0.836963	0.159675	0.523447	0.229177	0.970843	0.070291
07019		-0.494106	0.183746	-0.849763	-0.836826	0.164530	0.522161	0.235757	0.969106	0.072468
07020		-0.491211	0.188717	-0.850352	-0.836753	0.168977	0.520856	0.241984	0.967384	0.074907
07021		-0.488269	0.193718	-0.850921	-0.836742	0.173059	0.519532	0.247902	0.965673	0.077593
07022		-0.485391	0.198686	-0.851422	-0.836714	0.176890	0.518285	0.253584	0.963968	0.080382
07023		-0.482575	0.203578	-0.851867	-0.836573	0.180874	0.517137	0.259358	0.962206	0.083023
07024		-0.479765	0.208290	-0.852315	-0.836319	0.185193	0.516018	0.265325	0.960374	0.085348
07025		-0.477052	0.212786	-0.852727	-0.835894	0.189855	0.515011	0.271481	0.958477	0.087296
07026		-0.474411	0.217163	-0.853097	-0.835338	0.194708	0.514100	0.277748	0.956519	0.089033
07027		-0.471887	0.221353	-0.853420	-0.834699	0.199531	0.513288	0.283902	0.954563	0.090607
07028		-0.469330	0.225415	-0.853767	-0.834102	0.204184	0.512429	0.289834	0.952626	0.092189
07029		-0.466722	0.229389	-0.854138	-0.833642	0.208381	0.511486	0.295316	0.950767	0.093972
07030		-0.464050	0.233279	-0.854540	-0.833368	0.212027	0.510434	0.300259	0.949013	0.096017
07031		-0.461356	0.237227	-0.854912	-0.833258	0.215056	0.509346	0.304684	0.947351	0.098454
07032		-0.458676	0.241090	-0.855273	-0.833318	0.217493	0.508210	0.308540	0.945818	0.101146
07033		-0.456156	0.244780	-0.855572	-0.833320	0.219850	0.507191	0.312248	0.944325	0.103695
07034		-0.453860	0.248371	-0.855759	-0.833112	0.222433	0.506407	0.316126	0.942781	0.105967
07035		-0.451917	0.251660	-0.855826	-0.832639	0.225289	0.505921	0.320129	0.941229	0.107730
07036		-0.450348	0.254698	-0.855754	-0.831869	0.228451	0.505772	0.324317	0.939648	0.108993
07037		-0.449030	0.257551	-0.855593	-0.830820	0.232019	0.505871	0.328801	0.937995	0.109795
07038		-0.447905	0.260248	-0.855366	-0.829670	0.235562	0.506120	0.333209	0.936366	0.110411
07039		-0.446918	0.262789	-0.855106	-0.828661	0.238507	0.506394	0.337024	0.934910	0.111170
07040		-0.445959	0.265280	-0.854837	-0.827973	0.240500	0.506578	0.339973	0.933695	0.112392
07041		-0.445019	0.267641	-0.854591	-0.827673	0.241444	0.506618	0.341928	0.932777	0.114072
07042		-0.444103	0.269928	-0.854348	-0.827656	0.241614	0.506565	0.343159	0.932074	0.116106
07043		-0.443287	0.272152	-0.854067	-0.827724	0.241423	0.506544	0.344049	0.931476	0.118247
07044		-0.442637	0.274247	-0.853734	-0.827761	0.241124	0.506627	0.344796	0.930939	0.120280
07045		-0.442152	0.276231	-0.853345	-0.827658	0.240998	0.506855	0.345664	0.930385	0.122067
07046		-0.441728	0.278094	-0.852960	-0.827476	0.241058	0.507124	0.346641	0.929814	0.123634
07047		-0.441438	0.279800	-0.852552	-0.827096	0.241523	0.507522	0.347915	0.929182	0.124804
07048		-0.441263	0.281410	-0.852113	-0.826470	0.242507	0.508072	0.349620	0.928439	0.125567
07049		-0.441111	0.282997	-0.851665	-0.825695	0.243851	0.508689	0.351636	0.927604	0.126104
07050		-0.440906	0.284729	-0.851194	-0.824821	0.245437	0.509344	0.353939	0.926655	0.126636
07051		-0.440594	0.286594	-0.850729	-0.823991	0.246971	0.509946	0.356253	0.925672	0.127337
07052		-0.440052	0.288686	-0.850303	-0.823434	0.248000	0.510345	0.358205	0.924747	0.128581
07053		-0.439310	0.291009	-0.849895	-0.823161	0.248456	0.510564	0.359740	0.923896	0.130398
07054		-0.438255	0.293567	-0.849559	-0.823148	0.248575	0.510527	0.361053	0.923054	0.132710
07055		-0.436933	0.296383	-0.849262	-0.823147	0.248911	0.510364	0.362655	0.922063	0.135209
07056		-0.435457	0.299359	-0.848977	-0.822965	0.249832	0.510209	0.364837	0.920852	0.137571
07057		-0.433801	0.302504	-0.848710	-0.822586	0.251393	0.510052	0.367652	0.919398	0.139781
07058		-0.431978	0.305753	-0.848476	-0.821966	0.253707	0.509906	0.371169	0.917686	0.141723
07059		-0.430095	0.308873	-0.848302	-0.821116	0.256700	0.509778	0.375215	0.915807	0.143215
07060		-0.428125	0.311912	-0.848186	-0.819994	0.260461	0.509677	0.379894	0.913713	0.144256
07061		-0.426073	0.314888	-0.848120	-0.818584	0.264975	0.509615	0.385203	0.911391	0.144864
07062		-0.423828	0.317799	-0.848159	-0.817128	0.269808	0.509417	0.390732	0.908960	0.145330
07063		-0.421425	0.320564	-0.848316	-0.815824	0.274487	0.509007	0.396021	0.906585	0.145848
07064		-0.418650	0.323350	-0.848633	-0.814884	0.278734	0.508205	0.400871	0.904297	0.146801
07065		-0.415492	0.326123	-0.849123	-0.814380	0.282435	0.506967	0.405156	0.902150	0.148239
07066		-0.411912	0.328958	-0.849774	-0.814216	0.285831	0.505325	0.409122	0.900048	0.150106
07067		-0.408002	0.331728	-0.850583	-0.814273	0.289136	0.503349	0.412909	0.897974	0.152149
07068		-0.403636	0.334535	-0.851566	-0.814594	0.292356	0.500963	0.416550	0.895887	0.154505
07069		-0.398856	0.337310	-0.852723	-0.815154	0.295526	0.498184	0.420044	0.893805	0.157087
07070		-0.393633	0.340035	-0.854066	-0.815877	0.298844	0.495012	0.423554	0.891666	0.159791
07071		-0.388076	0.342813	-0.855498	-0.816683	0.302269	0.491592	0.427115	0.889445	0.162666
07072		-0.382102	0.345704	-0.857022	-0.817531	0.305933	0.487902	0.430861	0.887070	0.165726
07073		-0.375935	0.348534	-0.858602	-0.818295	0.309916	0.484092	0.434817	0.884577	0.168695
07074		-0.369585	0.351271	-0.860242	-0.818941	0.314277	0.480173	0.439025	0.881952	0.171518
07075		-0.363019	0.354022	-0.861908	-0.819505	0.318901	0.476145	0.443429	0.879187	0.174355
07076		-0.356248	0.356625	-0.863658	-0.820055	0.323714	0.471932	0.447881	0.876372	0.177129
07077		-0.349357	0.359035	-0.865473	-0.820627	0.328572	0.467560	0.452240	0.873576	0.179845
07078		-0.342356	0.361347	-0.867307	-0.821149	0.333545	0.463101	0.456626	0.870733	0.182528
07079		-0.335355	0.363497	-0.869141	-0.821537	0.338708	0.458644	0.461101	0.867840	0.185039
07080		-0.328405	0.365364	-0.871011	-0.821767	0.344115	0.454184	0.465670	0.864924	0.187235
07081		-0.321612	0.366958	-0.872873	-0.821900	0.349541	0.449779	0.470155	0.862069	0.189186
07082		-0.314929	0.368438	-0.874685	-0.822117	0.354627	0.445379	0.474282	0.859356	0.191217
07083		-0.308403	0.369827	-0.876422	-0.822562	0.359077	0.440972	0.477786	0.856908	0.193465
07084		-0.302060	0.371151	-0.878070	-0.823206	0.362929	0.436593	0.480719	0.854710	0.195907
07085		-0.295861	0.372544	-0.879589	-0.823999	0.366266	0.432291	0.483211	0.852678	0.198612
07086		-0.289899	0.373972	-0.880968	-0.824850	0.369195	0.428156	0.485367	0.850788	0.201442
07087		-0.284216	0.375466	-0.882183	-0.825717	0.371759	0.424248	0.487251	0.849011	0.204368
07088		-0.278788	0.377006	-0.883258	-0.826512	0.374154	0.420579	0.489035	0.847275	0.207291
07089		-0.273732	0.378496	-0.884201	-0.827107	0.376561	0.417249	0.490882	0.845543	0.209980
07090		-0.269029	0.379949	-0.885021	-0.827455	0.379074	0.414271	0.492891	0.843766	0.212409
07091		-0.264759	0.381317	-0.885720	-0.827574	0.381632	0.411677	0.494998	0.841994	0.214528
07092		-0.260862	0.382648	-0.886302	-0.827443	0.384300	0.409453	0.497282	0.840175	0.216370
07093		-0.257417	0.383914	-0.886762	-0.827101	0.386964	0.407630	0.499640	0.838373	0.217925
07094		-0.254378	0.385229	-0.887068	-0.826775	0.389239	0.406124	0.501732	0.836715	0.219484
07095		-0.251688	0.386576	-0.887250	-0.826504	0.391118	0.404867	0.503532	0.835216	0.221067
07096		-0.249340	0.387898	-0.887336	-0.826263	0.392685	0.403841	0.505093	0.833866	0.222594
07097		-0.247352	0.389183	-0.887330	-0.826097	0.393865	0.403032	0.506341	0.832711	0.224080
07098		-0.245697	0.390470	-0.887224	-0.826010	0.394657	0.402435	0.507288	0.831733	0.225566
07099		-0.244330	0.391734	-0.887044	-0.826053	0.395028	0.401982	0.507877	0.830962	0.227076
07100		-0.243256	0.393052	-0.886756	-0.826172	0.395032	0.401734	0.508199	0.830337	0.228635
07101		-0.242423	0.394360	-0.886404	-0.826342	0.394778	0.401633	0.508321	0.829837	0.230173
07102		-0.241844	0.395682	-0.885973	-0.826449	0.394433	0.401753	0.508423	0.829373	0.231619
07103		-0.241619	0.396911	-0.885484	-0.826485	0.393983	0.402119	0.508471	0.828999	0.232848
07104		-0.241690	0.398112	-0.884925	-0.826433	0.393469	0.402730	0.508522	0.828667	0.233915
07105		-0.242143	0.399248	-0.884290	-0.826209	0.392980	0.403665	0.508671	0.828353	0.234705
07106		-0.243005	0.400393	-0.883535	-0.825893	0.392329	0.404943	0.508773	0.828108	0.235344
07107		-0.244143	0.401576	-0.882684	-0.825658	0.391317	0.406399	0.508609	0.828014	0.236027
07108		-0.245576	0.402806	-0.881725	-0.825492	0.389941	0.408055	0.508188	0.828066	0.236753
07109		-0.247317	0.403965	-0.880708	-0.825556	0.387981	0.409790	0.507239	0.828422	0.237542
07110		-0.249295	0.405047	-0.879653	-0.825941	0.385336	0.411506	0.505641	0.829128	0.238482
07111		-0.251597	0.405990	-0.878562	-0.826659	0.381937	0.413230	0.503323	0.830238	0.239521
07112		-0.254224	0.406789	-0.877435	-0.827662	0.377848	0.414977	0.500345	0.831717	0.240626
07113		-0.257235	0.407399	-0.876274	-0.828770	0.373325	0.416856	0.496962	0.833460	0.241607
07114		-0.260677	0.407882	-0.875031	-0.829846	0.368511	0.418992	0.493358	0.835363	0.242417
07115		-0.264571	0.408290	-0.873671	-0.830971	0.363216	0.421380	0.489376	0.837481	0.243181
07116		-0.268791	0.408699	-0.872191	-0.832233	0.357328	0.423917	0.484913	0.839810	0.244086
07117		-0.273329	0.409113	-0.870585	-0.833822	0.350492	0.426493	0.479616	0.842486	0.245328
07118		-0.278163	0.409652	-0.868798	-0.835857	0.342409	0.429068	0.473253	0.845542	0.247165
07119		-0.283259	0.410118	-0.866930	-0.838390	0.333047	0.431488	0.465689	0.849048	0.249500
07120		-0.288968	0.410618	-0.864806	-0.841126	0.322487	0.434176	0.457169	0.852874	0.252193
07121		-0.295211	0.411126	-0.862454	-0.844081	0.310696	0.437029	0.447635	0.856997	0.255303
07122		-0.301950	0.411755	-0.859816	-0.847142	0.297767	0.440096	0.437237	0.861274	0.258905
07123		-0.309266	0.412411	-0.856897	-0.850272	0.283635	0.443384	0.425902	0.865718	0.262943
07124		-0.317228	0.413161	-0.853619	-0.853162	0.268706	0.447115	0.414103	0.870112	0.267252
07125		-0.325927	0.413906	-0.849972	-0.855750	0.252969	0.451329	0.401824	0.874465	0.271751
07126		-0.335429	0.414662	-0.845897	-0.858033	0.236231	0.456043	0.388930	0.878778	0.276555
07127		-0.345645	0.415228	-0.841496	-0.860224	0.218062	0.460938	0.374893	0.883196	0.281817
07128		-0.356628	0.415783	-0.836625	-0.862064	0.198703	0.466223	0.360087	0.887492	0.287568
07129		-0.368495	0.416006	-0.831355	-0.863501	0.178089	0.471858	0.344351	0.891753	0.293597
07130		-0.380909	0.416066	-0.825710	-0.864627	0.156136	0.477537	0.327610	0.895830	0.300268
07131		-0.393850	0.415859	-0.819721	-0.865529	0.132417	0.483037	0.309420	0.899737	0.307786
07132		-0.407464	0.415499	-0.813225	-0.865834	0.107360	0.488677	0.290352	0.903236	0.316008
07133		-0.421971	0.414843	-0.806130	-0.865115	0.081676	0.494879	0.271139	0.906220	0.324422
07134		-0.437412	0.413886	-0.798354	-0.863355	0.055085	0.501582	0.251575	0.908661	0.333235
07135		-0.453632	0.412447	-0.790003	-0.860752	0.026922	0.508313	0.230921	0.910584	0.342802
07136		-0.470704	0.410689	-0.780879	-0.857138	-0.003031	0.515077	0.209170	0.911771	0.353444
07137		-0.488626	0.408327	-0.771047	-0.852167	-0.033706	0.522183	0.187233	0.912213	0.364432
07138		-0.507437	0.405402	-0.760366	-0.845450	-0.063732	0.530239	0.166500	0.911914	0.375087
07139		-0.527215	0.401618	-0.748831	-0.836843	-0.092496	0.539572	0.147438	0.911124	0.384857
07140		-0.547922	0.396786	-0.736439	-0.826416	-0.120271	0.550065	0.129686	0.909997	0.393810
07141		-0.569074	0.390884	-0.723440	-0.814555	-0.147610	0.560991	0.112496	0.908527	0.402398
07142		-0.590319	0.384110	-0.709918	-0.801500	-0.174878	0.571853	0.095505	0.906575	0.411097
07143		-0.611529	0.376213	-0.696057	-0.787319	-0.202066	0.582493	0.078492	0.904231	0.419769
07144		-0.632532	0.367559	-0.681765	-0.772074	-0.229118	0.592796	0.061683	0.901335	0.428708
07145		-0.653331	0.358125	-0.667012	-0.755715	-0.255771	0.602889	0.045307	0.897958	0.437743
07146		-0.674009	0.347897	-0.651674	-0.738139	-0.282082	0.612847	0.029382	0.894090	0.446923
07147		-0.694577	0.336473	-0.635884	-0.719297	-0.308590	0.622401	0.013194	0.889696	0.456364
07148		-0.715131	0.323816	-0.619461	-0.698983	-0.335601	0.631503	-0.003401	0.884599	0.466340
07149		-0.735573	0.309624	-0.602549	-0.677127	-0.363275	0.639945	-0.020749	0.878729	0.476870
07150		-0.755747	0.294179	-0.585069	-0.653757	-0.390839	0.647955	-0.038053	0.872183	0.487697
07151		-0.775284	0.277662	-0.567309	-0.629218	-0.417671	0.655466	-0.054950	0.865133	0.498523
07152		-0.794049	0.260449	-0.549229	-0.603702	-0.443326	0.662575	-0.070921	0.857688	0.509256
07153		-0.811748	0.242192	-0.531421	-0.577523	-0.468128	0.668822	-0.086790	0.849823	0.519873
07154		-0.828265	0.223526	-0.513822	-0.550957	-0.491953	0.674113	-0.102094	0.841438	0.530620
07155		-0.843875	0.203820	-0.496318	-0.523736	-0.513794	0.679497	-0.116510	0.833350	0.540326
07156		-0.858751	0.182833	-0.478663	-0.495530	-0.534021	0.685034	-0.130369	0.825466	0.549191
07157		-0.872774	0.160586	-0.460953	-0.466302	-0.553494	0.690077	-0.144318	0.817225	0.557956
07158		-0.885848	0.137450	-0.443148	-0.436106	-0.572701	0.694136	-0.158383	0.808159	0.567269
07159		-0.897828	0.113212	-0.425545	-0.404972	-0.591790	0.696981	-0.172927	0.798103	0.577173
07160		-0.908713	0.088285	-0.407979	-0.373043	-0.610308	0.698830	-0.187297	0.787229	0.587529
07161		-0.918378	0.062944	-0.390667	-0.340608	-0.628272	0.699472	-0.201418	0.775443	0.598430
07162		-0.926824	0.037687	-0.373601	-0.307983	-0.645483	0.698926	-0.214812	0.762844	0.609856
07163		-0.934027	0.012272	-0.356991	-0.275396	-0.661222	0.697812	-0.227487	0.750090	0.620979
07164		-0.940133	-0.013169	-0.340553	-0.242859	-0.675160	0.696547	-0.239101	0.737553	0.631542
07165		-0.945103	-0.039038	-0.324432	-0.210229	-0.687448	0.695139	-0.250167	0.725184	0.641502
07166		-0.948990	-0.065208	-0.308491	-0.177342	-0.698579	0.693208	-0.260708	0.712556	0.651380
07167		-0.951678	-0.091866	-0.293036	-0.144335	-0.708450	0.690844	-0.271066	0.699757	0.660957
07168		-0.953208	-0.118939	-0.277935	-0.111104	-0.717197	0.687957	-0.281159	0.686646	0.670423
07169		-0.953523	-0.146538	-0.263289	-0.077438	-0.725261	0.684105	-0.291200	0.672699	0.680205
07170		-0.952703	-0.174316	-0.248939	-0.043422	-0.732658	0.679211	-0.300785	0.657896	0.690436
07171		-0.950735	-0.202268	-0.234929	-0.009402	-0.738658	0.674015	-0.309864	0.643018	0.700366
07172		-0.947696	-0.230332	-0.220950	0.024499	-0.742708	0.669167	-0.318232	0.628754	0.709504
07173		-0.943490	-0.258579	-0.207276	0.058161	-0.744945	0.664586	-0.326257	0.614975	0.717887
07174		-0.938249	-0.286573	-0.193816	0.091495	-0.745821	0.659833	-0.333642	0.601354	0.725986
07175		-0.931958	-0.314263	-0.180813	0.124426	-0.745638	0.654631	-0.340547	0.587591	0.734006
07176		-0.924718	-0.341574	-0.168000	0.157075	-0.744426	0.648966	-0.346733	0.573722	0.742037
07177		-0.916519	-0.368527	-0.155505	0.189576	-0.742545	0.642408	-0.352214	0.559299	0.750420
07178		-0.907484	-0.394973	-0.143072	0.221928	-0.739926	0.635025	-0.356680	0.544524	0.759127
07179		-0.897682	-0.420792	-0.130769	0.253843	-0.736412	0.627106	-0.360181	0.529747	0.767879
07180		-0.887192	-0.445947	-0.118415	0.285096	-0.731616	0.619240	-0.362782	0.515625	0.776221
07181		-0.875975	-0.470514	-0.106223	0.315504	-0.725477	0.611671	-0.364862	0.502295	0.783949
07182		-0.863973	-0.494691	-0.093970	0.345344	-0.717948	0.604390	-0.366453	0.489725	0.791127
07183		-0.851088	-0.518574	-0.082036	0.374705	-0.709404	0.596943	-0.367756	0.477312	0.798078
07184		-0.837347	-0.542139	-0.070251	0.403986	-0.700239	0.588608	-0.368300	0.464489	0.805360
07185		-0.822863	-0.565228	-0.058429	0.433372	-0.690743	0.578845	-0.367539	0.450989	0.813341
07186		-0.807765	-0.587695	-0.046158	0.462915	-0.680840	0.567598	-0.365000	0.437118	0.822011
07187		-0.792106	-0.609453	-0.033699	0.492133	-0.670334	0.555389	-0.361073	0.423343	0.830908
07188		-0.775868	-0.630547	-0.020933	0.520674	-0.658704	0.543146	-0.356268	0.410510	0.839377
07189		-0.758985	-0.651054	-0.008441	0.548138	-0.645898	0.531376	-0.351407	0.398680	0.847094
07190		-0.741458	-0.670989	0.003724	0.574522	-0.631973	0.520130	-0.346648	0.387794	0.854079
07191		-0.723501	-0.690165	0.014772	0.599465	-0.617521	0.509224	-0.342326	0.377280	0.860507
07192		-0.705125	-0.708647	0.024864	0.623138	-0.602547	0.498634	-0.338374	0.367093	0.866456
07193		-0.686570	-0.726272	0.033906	0.645705	-0.587644	0.487586	-0.334196	0.356656	0.872416
07194		-0.668203	-0.742766	0.042467	0.667212	-0.573026	0.475887	-0.329138	0.346324	0.878481
07195		-0.650319	-0.757996	0.050273	0.687530	-0.559134	0.463327	-0.323090	0.335874	0.884760
07196		-0.632935	-0.772065	0.057529	0.706736	-0.545841	0.450091	-0.316097	0.325536	0.891128
07197		-0.616148	-0.785025	0.064018	0.724699	-0.533206	0.436467	-0.308502	0.315322	0.897440
07198		-0.599903	-0.797016	0.069875	0.741416	-0.520973	0.422952	-0.300697	0.305536	0.903454
07199		-0.584361	-0.808000	0.075218	0.756524	-0.508898	0.410724	-0.293587	0.296915	0.908652
07200		-0.569577	-0.818024	0.080123	0.769884	-0.496824	0.400556	-0.287857	0.289833	0.912763
07202		-0.542173	-0.835622	0.088236	0.791831	-0.472958	0.386413	-0.281163	0.279370	0.918096
07204		-0.518064	-0.850068	0.094837	0.810724	-0.452669	0.371238	-0.272647	0.269212	0.923682
07205		-0.507907	-0.855840	0.097820	0.819200	-0.444781	0.362051	-0.266349	0.264022	0.927012
07206		-0.499162	-0.860623	0.100819	0.826872	-0.438307	0.352377	-0.259074	0.259258	0.930412
07207		-0.491831	-0.864491	0.103723	0.833522	-0.433047	0.343090	-0.251682	0.255198	0.933558
07208		-0.485755	-0.867567	0.106627	0.839226	-0.428785	0.334429	-0.244420	0.251935	0.936370
07209		-0.481027	-0.869892	0.109088	0.843820	-0.425625	0.326821	-0.237869	0.249260	0.938769
07210		-0.477366	-0.871668	0.110982	0.847294	-0.423148	0.320997	-0.232841	0.247267	0.940555
07211		-0.474655	-0.873020	0.111976	0.849641	-0.421251	0.317266	-0.229810	0.245731	0.941703
07212		-0.472685	-0.874040	0.112357	0.851018	-0.419653	0.315690	-0.228774	0.244839	0.942187
07213		-0.471694	-0.874627	0.111952	0.851481	-0.418821	0.315545	-0.229096	0.244166	0.942284
07214		-0.471692	-0.874778	0.110772	0.851317	-0.419071	0.315656	-0.229707	0.243195	0.942386
07215		-0.472762	-0.874428	0.108956	0.850771	-0.420732	0.314919	-0.229533	0.241578	0.942844
07216		-0.474747	-0.873616	0.106822	0.850147	-0.423781	0.312507	-0.227742	0.239176	0.943890
07217		-0.477651	-0.872325	0.104400	0.849467	-0.428244	0.308242	-0.224178	0.235916	0.945562
07218		-0.481480	-0.870528	0.101772	0.848706	-0.434093	0.302097	-0.218806	0.231828	0.947829
07219		-0.486441	-0.868113	0.098768	0.847470	-0.441309	0.295027	-0.212529	0.227216	0.950371
07220		-0.492230	-0.865191	0.095679	0.845671	-0.449264	0.288101	-0.206277	0.222724	0.952808
07221		-0.499035	-0.861640	0.092420	0.842940	-0.457910	0.282438	-0.201040	0.218851	0.954823
07222		-0.506590	-0.857613	0.088691	0.839098	-0.466763	0.279368	-0.198192	0.215946	0.956079
07223		-0.514530	-0.853283	0.084663	0.834386	-0.475473	0.278792	-0.197633	0.214088	0.956612
07224		-0.522908	-0.848548	0.080835	0.829057	-0.484266	0.279553	-0.198068	0.213198	0.956721
07225		-0.531939	-0.843232	0.077461	0.823094	-0.493403	0.281194	-0.198892	0.213336	0.956520
07226		-0.541587	-0.837317	0.074725	0.816682	-0.502994	0.282892	-0.199284	0.214237	0.956237
07227		-0.551889	-0.830759	0.072518	0.810022	-0.513376	0.283389	-0.198199	0.215140	0.956259
07228		-0.562737	-0.823578	0.071034	0.803459	-0.524730	0.281269	-0.194373	0.215353	0.956996
07229		-0.574296	-0.815648	0.070016	0.796732	-0.537217	0.276797	-0.188156	0.214747	0.958374
07230		-0.586351	-0.807108	0.069063	0.789548	-0.550361	0.271510	-0.181128	0.213729	0.959955
07231		-0.598616	-0.798179	0.067594	0.781609	-0.563545	0.267403	-0.175344	0.212904	0.961211
07232		-0.610658	-0.789161	0.065733	0.772971	-0.575971	0.266034	-0.172083	0.213265	0.961720
07233		-0.622287	-0.780222	0.063343	0.763862	-0.587561	0.266996	-0.171098	0.214534	0.961614
07234		-0.633589	-0.771308	0.060409	0.754320	-0.598503	0.269807	-0.171949	0.216515	0.961018
07235		-0.644876	-0.762169	0.056868	0.744260	-0.609315	0.273517	-0.173816	0.218709	0.960185
07236		-0.656298	-0.752635	0.053052	0.733750	-0.620289	0.277224	-0.175741	0.220868	0.959340
07237		-0.667980	-0.742554	0.049150	0.722826	-0.631690	0.280160	-0.176986	0.222668	0.958694
07238		-0.679655	-0.732134	0.045267	0.711735	-0.643270	0.282200	-0.177490	0.224017	0.958287
07239		-0.691288	-0.721395	0.041349	0.700445	-0.654959	0.283557	-0.177475	0.224983	0.958063
07240		-0.702668	-0.710551	0.037083	0.688858	-0.666317	0.285476	-0.178136	0.226140	0.957668
07241		-0.713856	-0.699538	0.032502	0.676768	-0.677204	0.288757	-0.179986	0.228127	0.956851
07242		-0.724685	-0.688531	0.027531	0.664290	-0.687435	0.293518	-0.183170	0.230997	0.955557
07243		-0.735225	-0.677463	0.022096	0.651478	-0.697274	0.298973	-0.187136	0.234207	0.954006
07244		-0.745372	-0.666444	0.016493	0.638499	-0.706567	0.305095	-0.191675	0.237940	0.952179
07245		-0.755150	-0.655457	0.011213	0.625502	-0.715308	0.311579	-0.196206	0.242302	0.950154
07246		-0.764379	-0.644734	0.006547	0.612668	-0.723124	0.318951	-0.200904	0.247811	0.947749
07247		-0.773006	-0.634395	0.001991	0.599927	-0.729980	0.327439	-0.206272	0.254307	0.944870
07248		-0.781079	-0.624427	-0.002535	0.587169	-0.735842	0.337297	-0.212483	0.261966	0.941395
07249		-0.788614	-0.614844	-0.007453	0.574669	-0.741288	0.346766	-0.218732	0.269182	0.937922
07250		-0.795626	-0.605651	-0.012920	0.562877	-0.746983	0.353815	-0.223939	0.274232	0.935226
07251		-0.802302	-0.596641	-0.018206	0.551991	-0.753179	0.357809	-0.227196	0.277021	0.933617
07252		-0.808638	-0.587871	-0.022642	0.541940	-0.759330	0.360165	-0.228923	0.278972	0.932614
07253		-0.814264	-0.579915	-0.025939	0.532901	-0.764477	0.362755	-0.230197	0.281555	0.931523
07254		-0.819110	-0.572934	-0.028392	0.524602	-0.768196	0.366970	-0.232060	0.285694	0.929799
07255		-0.823041	-0.567174	-0.030273	0.517047	-0.770229	0.373376	-0.235087	0.291652	0.927186
07256		-0.826010	-0.562734	-0.032232	0.510369	-0.770966	0.380966	-0.239232	0.298232	0.924027
07257		-0.828272	-0.559288	-0.034092	0.504697	-0.771088	0.388207	-0.243407	0.304335	0.920941
07258		-0.830051	-0.556539	-0.035774	0.500135	-0.771239	0.393771	-0.246739	0.308958	0.918512
07259		-0.831325	-0.554556	-0.036958	0.496993	-0.771506	0.397211	-0.248789	0.311844	0.916983
07260		-0.831997	-0.553489	-0.037823	0.495259	-0.771730	0.398937	-0.249997	0.313182	0.916198
07261		-0.832137	-0.553243	-0.038344	0.494639	-0.771698	0.399768	-0.250759	0.313695	0.915814
07262		-0.831553	-0.554081	-0.038897	0.494955	-0.770956	0.400807	-0.252068	0.314040	0.915336
07263		-0.830414	-0.555765	-0.039208	0.496028	-0.769532	0.402214	-0.253708	0.314556	0.914706
07264		-0.828723	-0.558260	-0.039544	0.497671	-0.767413	0.404229	-0.256011	0.315314	0.913803
07265		-0.826472	-0.561566	-0.039845	0.499950	-0.764642	0.406660	-0.258833	0.316173	0.912710
07266		-0.823805	-0.565454	-0.040082	0.502900	-0.761638	0.408656	-0.261604	0.316495	0.911808
07267		-0.820721	-0.569905	-0.040316	0.506716	-0.758686	0.409431	-0.263924	0.315600	0.911450
07268		-0.817329	-0.574741	-0.040573	0.511268	-0.755930	0.408870	-0.265664	0.313438	0.911690
07269		-0.813655	-0.579917	-0.040766	0.516481	-0.753276	0.407213	-0.266858	0.310276	0.912423
07270		-0.809822	-0.585255	-0.040815	0.522204	-0.750787	0.404502	-0.267381	0.306261	0.913626
07271		-0.805740	-0.590878	-0.040580	0.528531	-0.748258	0.400955	-0.267280	0.301618	0.915198
07272		-0.801485	-0.596654	-0.040333	0.535098	-0.745640	0.397104	-0.267008	0.296691	0.916887
07273		-0.796987	-0.602686	-0.039775	0.542002	-0.742691	0.393247	-0.266545	0.291855	0.918572
07274		-0.792127	-0.609120	-0.038834	0.549276	-0.739154	0.389803	-0.266141	0.287443	0.920079
07275		-0.786885	-0.615969	-0.037351	0.556810	-0.734798	0.387344	-0.266037	0.283998	0.921178
07276		-0.781271	-0.623169	-0.035724	0.564347	-0.729663	0.386140	-0.266697	0.281520	0.921748
07277		-0.775330	-0.630644	-0.033935	0.572148	-0.724135	0.385065	-0.267413	0.279136	0.922265
07278		-0.769280	-0.638104	-0.032106	0.580186	-0.718734	0.383152	-0.267567	0.276124	0.923127
07279		-0.763032	-0.645653	-0.030229	0.588730	-0.713543	0.379806	-0.266792	0.272008	0.924572
07280		-0.756551	-0.653302	-0.028762	0.597805	-0.708771	0.374529	-0.265067	0.266156	0.926769
07281		-0.749634	-0.661276	-0.027637	0.607503	-0.704047	0.367774	-0.262658	0.258906	0.929504
07282		-0.742283	-0.669563	-0.026465	0.617652	-0.698981	0.360460	-0.259850	0.251218	0.932399
07283		-0.734282	-0.678396	-0.024660	0.628420	-0.693030	0.353267	-0.256745	0.243901	0.935197
07284		-0.725478	-0.687883	-0.022316	0.639798	-0.686005	0.346490	-0.253653	0.237093	0.937788
07285		-0.715940	-0.697893	-0.019351	0.651672	-0.677955	0.340148	-0.250506	0.230915	0.940173
07286		-0.705853	-0.708174	-0.016145	0.663763	-0.669203	0.334045	-0.247366	0.225071	0.942419
07287		-0.695318	-0.718588	-0.012823	0.676017	-0.659975	0.327772	-0.243996	0.219237	0.944670
07288		-0.684339	-0.729098	-0.009866	0.688401	-0.650483	0.320899	-0.240384	0.212811	0.947062
07289		-0.672787	-0.739805	-0.006843	0.701096	-0.640484	0.313439	-0.236266	0.206080	0.949584
07290		-0.660520	-0.750799	-0.003868	0.713781	-0.629534	0.306925	-0.232874	0.199969	0.951726
07291		-0.647460	-0.762100	0.000015	0.726142	-0.616905	0.303557	-0.231332	0.196552	0.952813
07292		-0.633866	-0.773428	0.004744	0.737737	-0.602751	0.304033	-0.232288	0.196216	0.952650
07293		-0.619523	-0.784915	0.009958	0.748754	-0.587077	0.307746	-0.235709	0.198112	0.951416
07295		-0.589136	-0.807794	0.019689	0.770125	-0.553954	0.316295	-0.244594	0.201504	0.948457
07296		-0.573318	-0.819004	0.023232	0.780661	-0.537429	0.318966	-0.248748	0.201005	0.947482
07297		-0.557531	-0.829747	0.026063	0.791077	-0.521505	0.319734	-0.251706	0.198880	0.947149
07298		-0.541941	-0.839910	0.029183	0.801392	-0.506005	0.318952	-0.253125	0.196240	0.947321
07299		-0.526682	-0.849442	0.032471	0.811585	-0.491113	0.316445	-0.252855	0.193019	0.948055
07300		-0.511515	-0.858529	0.035786	0.821808	-0.476623	0.312189	-0.250967	0.189098	0.949346
07301		-0.496683	-0.867063	0.038838	0.831569	-0.462580	0.307430	-0.248595	0.184991	0.950778
07302		-0.482208	-0.875058	0.041824	0.840580	-0.448705	0.303462	-0.246780	0.181488	0.951925
07303		-0.468262	-0.882487	0.044133	0.848393	-0.435091	0.301538	-0.246901	0.178641	0.952432
07304		-0.454674	-0.889480	0.045801	0.855128	-0.421579	0.301708	-0.249054	0.176344	0.952300
07305		-0.441563	-0.896007	0.046842	0.860751	-0.408298	0.303975	-0.253238	0.174543	0.951528
07306		-0.428587	-0.902255	0.047421	0.865663	-0.395043	0.307520	-0.258728	0.172850	0.950359
07307		-0.416232	-0.908024	0.047372	0.869940	-0.382537	0.311240	-0.264492	0.170759	0.949150
07308		-0.404722	-0.913226	0.047102	0.873823	-0.371051	0.314251	-0.269505	0.168343	0.948171
07309		-0.394191	-0.917876	0.046020	0.877499	-0.361023	0.315686	-0.273146	0.164823	0.947747
07310		-0.384660	-0.921974	0.044730	0.881219	-0.352369	0.315103	-0.274755	0.160625	0.948003
07311		-0.376320	-0.925496	0.042904	0.884619	-0.345164	0.313547	-0.275378	0.155948	0.948603
07312		-0.368782	-0.928625	0.040674	0.887564	-0.338803	0.312157	-0.276096	0.151219	0.949160
07313		-0.362114	-0.931346	0.038320	0.889802	-0.333129	0.311894	-0.277716	0.147038	0.949344
07314		-0.356554	-0.933569	0.036301	0.891161	-0.328177	0.313260	-0.280537	0.144044	0.948973
07315		-0.352223	-0.935306	0.033794	0.891271	-0.324184	0.317080	-0.285611	0.141803	0.947796
07316		-0.348986	-0.936597	0.031537	0.890283	-0.320846	0.323193	-0.292583	0.140867	0.945807
07317		-0.346574	-0.937586	0.028605	0.888151	-0.318184	0.331583	-0.301786	0.140324	0.942992
07318		-0.344820	-0.938331	0.025167	0.885068	-0.316082	0.341683	-0.312657	0.140094	0.939478
07319		-0.343963	-0.938762	0.020388	0.880777	-0.315040	0.353527	-0.325454	0.139557	0.935202
07320		-0.343707	-0.938966	0.014456	0.875082	-0.314661	0.367721	-0.340729	0.139039	0.929824
07321		-0.343954	-0.938963	0.006682	0.867967	-0.315216	0.383761	-0.358231	0.137795	0.923408
07322		-0.344481	-0.938791	-0.002308	0.859759	-0.316466	0.400828	-0.377024	0.136094	0.916150
07323		-0.345248	-0.938425	-0.012695	0.850674	-0.318621	0.418132	-0.396431	0.133560	0.908297
07324		-0.346388	-0.937788	-0.023835	0.841542	-0.321864	0.433833	-0.414515	0.130217	0.900678
07325		-0.348657	-0.936568	-0.035759	0.832028	-0.326853	0.448215	-0.431472	0.126521	0.893210
07326		-0.352104	-0.934733	-0.047921	0.821918	-0.333288	0.461919	-0.447742	0.123257	0.885627
07327		-0.356840	-0.932192	-0.060687	0.810710	-0.341304	0.475668	-0.464127	0.120538	0.877529
07328		-0.363068	-0.928900	-0.072990	0.797915	-0.350410	0.490454	-0.481158	0.119828	0.868405
07329		-0.370834	-0.924793	-0.085091	0.782864	-0.360577	0.507059	-0.499606	0.121420	0.857701
07330		-0.380066	-0.919867	-0.096921	0.765748	-0.371689	0.524858	-0.518825	0.125264	0.845654
07331		-0.390218	-0.914201	-0.109390	0.745848	-0.383527	0.544627	-0.539852	0.130935	0.831514
07332		-0.400830	-0.907935	-0.122428	0.723427	-0.395665	0.565776	-0.562128	0.138212	0.815420
07333		-0.411564	-0.901124	-0.136348	0.698412	-0.407957	0.588041	-0.585522	0.146790	0.797256
07334		-0.422628	-0.893704	-0.150594	0.670889	-0.420218	0.611003	-0.609339	0.157195	0.777172
07335		-0.434127	-0.885584	-0.165149	0.641054	-0.432493	0.634034	-0.632917	0.169382	0.755464
07336		-0.446086	-0.876790	-0.179571	0.610153	-0.444719	0.655697	-0.654768	0.182932	0.733359
07337		-0.458718	-0.867074	-0.194322	0.578689	-0.457463	0.675164	-0.674312	0.197258	0.711612
07338		-0.472201	-0.856290	-0.209269	0.546866	-0.470767	0.692326	-0.691349	0.212475	0.690573
07339		-0.486552	-0.844200	-0.224932	0.514048	-0.484809	0.707613	-0.706415	0.228664	0.669843
07340		-0.501491	-0.830912	-0.241024	0.480222	-0.499071	0.721328	-0.719649	0.245994	0.649302
07341		-0.516873	-0.816247	-0.258038	0.444709	-0.513580	0.733805	-0.731489	0.264532	0.628448
07342		-0.532931	-0.800132	-0.275269	0.407251	-0.527703	0.745437	-0.741708	0.285163	0.607084
07343		-0.549501	-0.782536	-0.292721	0.367629	-0.541081	0.756360	-0.750265	0.308007	0.585007
07344		-0.566457	-0.763576	-0.309964	0.326713	-0.553389	0.766172	-0.756561	0.332734	0.562941
07345		-0.583595	-0.743158	-0.327311	0.284772	-0.564769	0.774558	-0.760475	0.358819	0.541227
07346		-0.600781	-0.721397	-0.344453	0.242263	-0.574919	0.781522	-0.761821	0.386075	0.520168
07347		-0.617513	-0.698274	-0.362064	0.198985	-0.584025	0.786969	-0.760974	0.413918	0.499589
07348		-0.633585	-0.673901	-0.380037	0.155136	-0.591896	0.790944	-0.757960	0.442172	0.479563
07349		-0.648777	-0.648209	-0.398640	0.110656	-0.598644	0.793335	-0.752890	0.470586	0.460114
07350		-0.663143	-0.621336	-0.417352	0.066357	-0.604197	0.794067	-0.745545	0.498886	0.441899
07351		-0.676541	-0.593284	-0.436241	0.022010	-0.608419	0.793311	-0.736076	0.527106	0.424678
07352		-0.689228	-0.564170	-0.454617	-0.021814	-0.611010	0.791322	-0.724216	0.555319	0.408819
07353		-0.701010	-0.533829	-0.472875	-0.065534	-0.612052	0.788097	-0.710134	0.583454	0.394071
07354		-0.712006	-0.502483	-0.490466	-0.108538	-0.611344	0.783887	-0.693734	0.611367	0.380742
07355		-0.721984	-0.470260	-0.507538	-0.151056	-0.608709	0.778881	-0.675219	0.639007	0.368442
07356		-0.731032	-0.437336	-0.523765	-0.192360	-0.604378	0.773127	-0.654668	0.665932	0.357693
07357		-0.738823	-0.403633	-0.539650	-0.232997	-0.598402	0.766568	-0.632340	0.692095	0.348068
07358		-0.745490	-0.369102	-0.554985	-0.272523	-0.591083	0.759179	-0.608257	0.717206	0.340057
07359		-0.750753	-0.333662	-0.570122	-0.311427	-0.582354	0.750918	-0.582566	0.741305	0.333293
07360		-0.754833	-0.297493	-0.584573	-0.349647	-0.571548	0.742348	-0.554955	0.764742	0.327406
07361		-0.757484	-0.261014	-0.598406	-0.387227	-0.558335	0.733701	-0.525617	0.787486	0.321858
07362		-0.759106	-0.224368	-0.611079	-0.423656	-0.542440	0.725448	-0.494241	0.809579	0.316714
07363		-0.759363	-0.187823	-0.622969	-0.459025	-0.523933	0.717489	-0.461155	0.830793	0.311640
07364		-0.758360	-0.151598	-0.633963	-0.492930	-0.503003	0.709935	-0.426509	0.850886	0.306730
07365		-0.755777	-0.115469	-0.644568	-0.525650	-0.480020	0.702334	-0.390503	0.869625	0.302092
07366		-0.751811	-0.079638	-0.654552	-0.556896	-0.454826	0.694982	-0.353054	0.887012	0.297593
07367		-0.746255	-0.044396	-0.664179	-0.586844	-0.427075	0.687911	-0.314194	0.903126	0.292653
07368		-0.739489	-0.009854	-0.673096	-0.614922	-0.396965	0.681388	-0.273910	0.917781	0.287492
07369		-0.731320	0.023781	-0.681619	-0.641129	-0.364868	0.675148	-0.232645	0.930756	0.282082
07370		-0.722018	0.056295	-0.689580	-0.664908	-0.332004	0.669082	-0.191278	0.941596	0.277144
07371		-0.711260	0.087533	-0.697458	-0.686672	-0.298679	0.662776	-0.150301	0.950331	0.272545
07372		-0.699359	0.118013	-0.704961	-0.706300	-0.265487	0.656245	-0.109712	0.956864	0.269023
07373		-0.685845	0.147712	-0.712599	-0.724377	-0.232702	0.648944	-0.069967	0.961265	0.266597
07374		-0.670858	0.176668	-0.720234	-0.740951	-0.199838	0.641136	-0.030662	0.963770	0.264966
07375		-0.654159	0.204392	-0.728217	-0.756312	-0.166283	0.632726	0.008234	0.964663	0.263359
07376		-0.636043	0.230535	-0.736412	-0.770239	-0.131924	0.623961	0.046695	0.964080	0.261477
07377		-0.616334	0.254888	-0.745093	-0.782914	-0.096536	0.614595	0.084725	0.962140	0.259054
07378		-0.595365	0.277543	-0.753997	-0.794037	-0.059981	0.604903	0.122660	0.958839	0.256090
07379		-0.572999	0.298212	-0.763375	-0.803709	-0.022180	0.594609	0.160388	0.954242	0.252385
07380		-0.549645	0.317076	-0.772886	-0.811603	0.016563	0.583974	0.197965	0.948255	0.248236
07381		-0.525237	0.334088	-0.782631	-0.817939	0.055496	0.572622	0.234739	0.940907	0.244115
07382		-0.499914	0.349755	-0.792311	-0.822797	0.093774	0.560545	0.270352	0.932136	0.240898
07383		-0.473379	0.364009	-0.802128	-0.826660	0.130906	0.547262	0.304212	0.922150	0.238943
07384		-0.445976	0.376998	-0.811775	-0.829425	0.166798	0.533135	0.336393	0.911071	0.238304
07385		-0.417682	0.388383	-0.821402	-0.831285	0.201565	0.518013	0.366753	0.899183	0.238667
07386		-0.388911	0.398079	-0.830832	-0.831938	0.235656	0.502339	0.395761	0.886566	0.239528
07387		-0.359711	0.405923	-0.840140	-0.831274	0.269535	0.486143	0.423784	0.873257	0.240478
07388		-0.330599	0.411941	-0.849122	-0.828892	0.303464	0.469945	0.451268	0.859194	0.241130
07389		-0.301677	0.416045	-0.857845	-0.824708	0.337590	0.453751	0.478381	0.844357	0.241273
07390		-0.273321	0.418744	-0.865996	-0.818577	0.371572	0.438025	0.505200	0.828606	0.241215
07391		-0.245544	0.419899	-0.873724	-0.810905	0.404900	0.422479	0.531169	0.812244	0.241078
07392		-0.218421	0.420063	-0.880818	-0.801806	0.437237	0.407347	0.556237	0.795218	0.241307
07393		-0.191692	0.418971	-0.887534	-0.791759	0.468371	0.392106	0.579976	0.777877	0.241941
07394		-0.165342	0.416896	-0.893790	-0.780878	0.498217	0.376841	0.602404	0.760249	0.243169
07395		-0.139405	0.413238	-0.899889	-0.769656	0.526575	0.361039	0.623054	0.742935	0.244644
07396		-0.114294	0.408310	-0.905660	-0.757795	0.553669	0.345251	0.642405	0.725764	0.246134
07397		-0.089968	0.402261	-0.911094	-0.745307	0.579608	0.329503	0.660624	0.708689	0.247662
07398		-0.067108	0.395217	-0.916133	-0.732079	0.604357	0.314344	0.677906	0.691777	0.248773
07399		-0.046049	0.386996	-0.920931	-0.718088	0.628055	0.299829	0.694428	0.675116	0.248976
07400		-0.026728	0.378090	-0.925383	-0.703574	0.650487	0.286095	0.710119	0.658722	0.248628
07401		-0.008655	0.368521	-0.929579	-0.689066	0.671469	0.272612	0.724647	0.642901	0.248124
07402		0.008502	0.358702	-0.933414	-0.674992	0.690758	0.259303	0.737776	0.627843	0.247993
07403		0.024802	0.348215	-0.937087	-0.661802	0.708280	0.245676	0.749268	0.614073	0.248016
07404		0.040368	0.337249	-0.940550	-0.649369	0.724275	0.231830	0.759401	0.601405	0.248237
07405		0.055157	0.325629	-0.943887	-0.637565	0.739001	0.217690	0.768420	0.589783	0.248371
07406		0.069155	0.313637	-0.947021	-0.626206	0.752623	0.203528	0.776584	0.578956	0.248449
07407		0.082300	0.301140	-0.950022	-0.615326	0.765217	0.189254	0.783965	0.568998	0.248276
07408		0.094609	0.288625	-0.952757	-0.604931	0.776756	0.175238	0.790637	0.559773	0.248086
07409		0.106122	0.275788	-0.955342	-0.595154	0.787285	0.161162	0.796574	0.551473	0.247685
07410		0.116963	0.262954	-0.957693	-0.585227	0.797350	0.147455	0.802390	0.543221	0.247148
07411		0.127193	0.250156	-0.959814	-0.574680	0.807292	0.134248	0.808433	0.534511	0.246442
07412		0.136514	0.237323	-0.961791	-0.563644	0.817019	0.121598	0.814659	0.525507	0.245300
07413		0.145195	0.224481	-0.963601	-0.552293	0.826452	0.109312	0.820909	0.516318	0.243976
07414		0.153416	0.211872	-0.965181	-0.541157	0.835269	0.097337	0.826809	0.507381	0.242800
07415		0.161287	0.199482	-0.966537	-0.530601	0.843298	0.085505	0.832135	0.499055	0.241858
07416		0.168809	0.187654	-0.967621	-0.521022	0.850328	0.074011	0.836684	0.491658	0.241315
07417		0.175959	0.176327	-0.968477	-0.512812	0.856207	0.062716	0.840275	0.485611	0.241080
07418		0.182713	0.165531	-0.969131	-0.505822	0.861086	0.051712	0.843066	0.480760	0.241061
07419		0.189002	0.155265	-0.969624	-0.499588	0.865284	0.041176	0.845393	0.476630	0.241109
07420		0.194754	0.145789	-0.969957	-0.493575	0.869131	0.031532	0.847617	0.472606	0.241224
07421		0.199765	0.137002	-0.970219	-0.487509	0.872818	0.022872	0.849958	0.468421	0.241148
07422		0.204185	0.129131	-0.970378	-0.481327	0.876407	0.015346	0.852427	0.463936	0.241104
07423		0.208226	0.122222	-0.970414	-0.475237	0.879814	0.008837	0.854864	0.459336	0.241285
07424		0.211846	0.116166	-0.970374	-0.469588	0.882880	0.003174	0.857093	0.455004	0.241585
07425		0.214977	0.110919	-0.970300	-0.464708	0.885463	-0.001739	0.858971	0.451279	0.241899
07426		0.218027	0.106532	-0.970111	-0.460845	0.887460	-0.006116	0.860283	0.448404	0.242585
07427		0.220951	0.102959	-0.969835	-0.458164	0.888811	-0.010023	0.860968	0.446558	0.243556
07428		0.223640	0.100055	-0.969523	-0.456800	0.889466	-0.013577	0.860999	0.445915	0.244625
07429		0.226106	0.097971	-0.969164	-0.456502	0.889568	-0.016577	0.860513	0.446173	0.245860
07430		0.228423	0.096692	-0.968749	-0.457293	0.889111	-0.019082	0.859480	0.447361	0.247310
07431		0.230399	0.096312	-0.968318	-0.458881	0.888253	-0.020837	0.858105	0.449144	0.248849
07432		0.232170	0.096796	-0.967847	-0.461192	0.887030	-0.021919	0.856387	0.451452	0.250583
07433		0.233600	0.098105	-0.967371	-0.463813	0.885655	-0.022183	0.854581	0.453861	0.252392
07434		0.234599	0.099966	-0.966939	-0.466479	0.884265	-0.021758	0.852855	0.456161	0.254079
07435		0.235038	0.102442	-0.966573	-0.469094	0.882911	-0.020493	0.851298	0.458230	0.255572
07436		0.235218	0.105401	-0.966211	-0.471664	0.881581	-0.018655	0.849827	0.460115	0.257078
07437		0.235092	0.108996	-0.965842	-0.474191	0.880275	-0.016081	0.848454	0.461774	0.258630
07438		0.234760	0.113062	-0.965456	-0.476774	0.878929	-0.013004	0.847097	0.463357	0.260243
07439		0.234205	0.117995	-0.965000	-0.479460	0.877517	-0.009066	0.845734	0.464802	0.262093
07440		0.233490	0.123478	-0.964487	-0.482297	0.875996	-0.004609	0.844318	0.466245	0.264089
07441		0.232388	0.129828	-0.963919	-0.485019	0.874503	0.000853	0.843061	0.467321	0.266193
07442		0.230805	0.136870	-0.963325	-0.487705	0.872979	0.007184	0.841946	0.468160	0.268240
07443		0.228531	0.144781	-0.962711	-0.490235	0.871466	0.014685	0.841096	0.468599	0.270134
07444		0.225384	0.153168	-0.962155	-0.492584	0.869958	0.023103	0.840573	0.468735	0.271522
07445		0.221304	0.162218	-0.961618	-0.494661	0.868472	0.032665	0.840438	0.468446	0.272439
07446		0.216425	0.171510	-0.961116	-0.496810	0.866803	0.042808	0.840440	0.468227	0.272806
07447		0.210777	0.181126	-0.960607	-0.498783	0.865064	0.053668	0.840707	0.467823	0.272678
07448		0.204600	0.190774	-0.960075	-0.500941	0.863057	0.064741	0.840950	0.467695	0.272148
07449		0.197773	0.200543	-0.959515	-0.503322	0.860737	0.076155	0.841162	0.467883	0.271168
07450		0.190241	0.209926	-0.959031	-0.506207	0.857973	0.087390	0.841168	0.468843	0.269487
07451		0.182119	0.219279	-0.958514	-0.509564	0.854750	0.098723	0.840938	0.470445	0.267403
07452		0.173600	0.228334	-0.957981	-0.513559	0.851004	0.109772	0.840310	0.472923	0.264997
07453		0.164465	0.237209	-0.957436	-0.518135	0.846728	0.120778	0.839337	0.476218	0.262164
07454		0.154797	0.245485	-0.956961	-0.523007	0.842134	0.131428	0.838154	0.480152	0.258751
07455		0.144383	0.253343	-0.956541	-0.527990	0.837284	0.142061	0.836887	0.484533	0.254652
07456		0.133334	0.260261	-0.956288	-0.533341	0.832113	0.152103	0.835326	0.489747	0.249757
07457		0.121653	0.266456	-0.956139	-0.538569	0.826879	0.161910	0.833753	0.495250	0.244097
07458		0.109366	0.271473	-0.956212	-0.544042	0.821451	0.170989	0.831900	0.501519	0.237531
07459		0.096246	0.275610	-0.956439	-0.549567	0.815872	0.179802	0.829888	0.508322	0.229990
07460		0.082494	0.278527	-0.956879	-0.555408	0.810069	0.187911	0.827476	0.515956	0.221522
07461		0.068050	0.280835	-0.957341	-0.561585	0.803894	0.195902	0.824616	0.524297	0.212418
07462		0.053198	0.282156	-0.957893	-0.568476	0.797198	0.203250	0.820978	0.533727	0.202808
07463		0.037514	0.282908	-0.958413	-0.575750	0.790020	0.210665	0.816765	0.543904	0.192521
07464		0.021458	0.282892	-0.958912	-0.583480	0.782389	0.217758	0.811844	0.554834	0.181850
07465		0.004971	0.282447	-0.959270	-0.591636	0.774204	0.224891	0.806190	0.566420	0.170955
07466		-0.011532	0.280998	-0.959639	-0.600346	0.765539	0.231376	0.799657	0.578784	0.159868
07467		-0.028569	0.278945	-0.959882	-0.608723	0.756826	0.238054	0.792868	0.591104	0.148178
07468		-0.046457	0.276005	-0.960033	-0.616391	0.748363	0.244979	0.786068	0.603137	0.135361
07469		-0.065700	0.272533	-0.959901	-0.623107	0.740158	0.252792	0.779372	0.614729	0.121189
07470		-0.086004	0.268187	-0.959520	-0.629060	0.732217	0.261040	0.772585	0.626046	0.105732
07471		-0.107742	0.263302	-0.958678	-0.634390	0.724248	0.270212	0.765468	0.637289	0.089005
07472		-0.130247	0.257433	-0.957478	-0.640343	0.715444	0.279465	0.756966	0.649513	0.071661
07473		-0.153530	0.250772	-0.955794	-0.647489	0.705144	0.289015	0.746449	0.663238	0.054111
07474		-0.176786	0.242956	-0.953792	-0.656062	0.693295	0.298202	0.733709	0.678465	0.036829
07475		-0.200058	0.234666	-0.951267	-0.665830	0.679698	0.307702	0.718782	0.694940	0.020269
07476		-0.222414	0.225936	-0.948412	-0.677074	0.664141	0.316998	0.701500	0.712650	0.005261
07477		-0.244714	0.217004	-0.945000	-0.688904	0.646926	0.326953	0.682295	0.731024	-0.008816
07478		-0.267170	0.207451	-0.941055	-0.700079	0.629284	0.337479	0.662201	0.748977	-0.022894
07479		-0.290708	0.197428	-0.936222	-0.709104	0.612479	0.349344	0.642386	0.765436	-0.038056
07480		-0.315174	0.186431	-0.930542	-0.715616	0.597337	0.362053	0.623345	0.780021	-0.054852
07481		-0.341340	0.174482	-0.923603	-0.719299	0.584043	0.376168	0.605059	0.792748	-0.073852
07482		-0.368360	0.161154	-0.915609	-0.721105	0.572087	0.390800	0.586787	0.804205	-0.094525
07483		-0.396201	0.146926	-0.906332	-0.721707	0.560382	0.406337	0.567594	0.815098	-0.115986
07484		-0.423588	0.131368	-0.896279	-0.722765	0.547428	0.421821	0.546062	0.826478	-0.136935
07485		-0.450949	0.114506	-0.885174	-0.724435	0.532366	0.437928	0.521382	0.838734	-0.157118
07486		-0.477542	0.096143	-0.873333	-0.726675	0.515498	0.454099	0.493859	0.851480	-0.176307
07487		-0.504133	0.076664	-0.860217	-0.728637	0.496947	0.471309	0.463614	0.864388	-0.194667
07488		-0.530185	0.055886	-0.846038	-0.729778	0.477915	0.488898	0.431657	0.876626	-0.212599
07489		-0.556352	0.034023	-0.830250	-0.729184	0.459122	0.507442	0.398451	0.887721	-0.230624
07490		-0.581894	0.010940	-0.813191	-0.726946	0.441306	0.526116	0.364622	0.897290	-0.248841
07491		-0.607530	-0.013165	-0.794188	-0.722163	0.425490	0.545380	0.330739	0.904867	-0.268005
07492		-0.632588	-0.038194	-0.773546	-0.715198	0.412071	0.564526	0.297195	0.910351	-0.287987
07493		-0.657665	-0.063922	-0.750594	-0.705748	0.400722	0.584245	0.263434	0.913967	-0.308654
07494		-0.681830	-0.090348	-0.725909	-0.694662	0.390954	0.603821	0.229243	0.915965	-0.329326
07495		-0.705474	-0.117356	-0.698952	-0.681765	0.381842	0.624014	0.193658	0.916746	-0.349389
07496		-0.727575	-0.144848	-0.670562	-0.667889	0.372843	0.644137	0.156713	0.916519	-0.368014
07497		-0.748775	-0.172823	-0.639897	-0.652197	0.364283	0.664783	0.118214	0.915112	-0.385480
07498		-0.768476	-0.201024	-0.607482	-0.634995	0.356655	0.685258	0.078908	0.912352	-0.401729
07499		-0.787406	-0.229695	-0.572042	-0.615239	0.350617	0.706080	0.038385	0.907914	-0.417396
07500		-0.804681	-0.258744	-0.534360	-0.593701	0.346484	0.726270	-0.002771	0.901666	-0.432425
07501		-0.820434	-0.288015	-0.493898	-0.569969	0.344046	0.746169	-0.044984	0.893689	-0.446427
07502		-0.833773	-0.317313	-0.451812	-0.545037	0.342514	0.765258	-0.088074	0.884306	-0.458526
07503		-0.844839	-0.346499	-0.407658	-0.518393	0.341669	0.783920	-0.132344	0.873614	-0.468278
07504		-0.853083	-0.375359	-0.362429	-0.490795	0.341481	0.801568	-0.177113	0.861682	-0.475536
07505		-0.858872	-0.403860	-0.315017	-0.461354	0.342866	0.818288	-0.222465	0.848139	-0.480800
07506		-0.861875	-0.431449	-0.266501	-0.430877	0.345899	0.833486	-0.267424	0.833190	-0.484023
07507		-0.862257	-0.458153	-0.215892	-0.398772	0.351339	0.847078	-0.312240	0.816491	-0.485643
07508		-0.859743	-0.483508	-0.164506	-0.366284	0.359262	0.858352	-0.355919	0.798217	-0.485974
07509		-0.854400	-0.507460	-0.111734	-0.333169	0.370000	0.867236	-0.398746	0.778193	-0.485198
07510		-0.846081	-0.529811	-0.058708	-0.300582	0.383237	0.873373	-0.440223	0.756591	-0.483501
07511		-0.834827	-0.550491	-0.004792	-0.267811	0.398504	0.877195	-0.480979	0.733590	-0.480110
07512		-0.820844	-0.569094	0.048446	-0.235435	0.414422	0.879105	-0.520370	0.710202	-0.474160
07513		-0.804335	-0.585415	0.101660	-0.202427	0.430843	0.879430	-0.558631	0.686777	-0.465046
07514		-0.785588	-0.599341	0.153755	-0.169128	0.447026	0.878387	-0.595186	0.664046	-0.452544
07515		-0.764513	-0.610920	0.205660	-0.135401	0.464123	0.875361	-0.630227	0.641378	-0.437547
07516		-0.741334	-0.620165	0.256551	-0.102518	0.482419	0.869920	-0.663260	0.618600	-0.421212
07517		-0.715986	-0.626951	0.307078	-0.070529	0.502579	0.861650	-0.694543	0.595271	-0.404058
07518		-0.688811	-0.631515	0.355988	-0.039982	0.523404	0.851146	-0.723837	0.572046	-0.385776
07519		-0.659810	-0.633958	0.403420	-0.010434	0.544545	0.838666	-0.751360	0.549151	-0.365911
07520		-0.629159	-0.634787	0.448558	0.017385	0.565452	0.824598	-0.777082	0.526601	-0.344724
07521		-0.596901	-0.633801	0.491940	0.044064	0.586329	0.808874	-0.801104	0.504495	-0.322052
07522		-0.563521	-0.631144	0.533011	0.069670	0.606605	0.791945	-0.823159	0.483412	-0.297863
07523		-0.529197	-0.626631	0.572088	0.094733	0.626386	0.773735	-0.843194	0.463653	-0.272119
07524		-0.494358	-0.620540	0.608720	0.118839	0.645452	0.754499	-0.861097	0.445332	-0.245340
07525		-0.458829	-0.612722	0.643466	0.141899	0.664370	0.733810	-0.877121	0.428000	-0.217888
07526		-0.422686	-0.603749	0.675888	0.163369	0.682808	0.712098	-0.891430	0.411413	-0.189979
07527		-0.385968	-0.593610	0.706156	0.183190	0.700908	0.689325	-0.904141	0.395418	-0.161785
07528		-0.349168	-0.582682	0.733869	0.201273	0.718246	0.666042	-0.915189	0.380268	-0.133510
07529		-0.312687	-0.570672	0.759315	0.218118	0.734899	0.642143	-0.924474	0.366410	-0.105319
07530		-0.277061	-0.557908	0.782289	0.233932	0.750497	0.618086	-0.931941	0.354250	-0.077421
07531		-0.242841	-0.544243	0.803012	0.248542	0.765253	0.593814	-0.937686	0.343784	-0.050568
07532		-0.210322	-0.530199	0.821373	0.262235	0.778781	0.569854	-0.941805	0.335246	-0.024758
07533		-0.179243	-0.515982	0.837636	0.274581	0.791353	0.546228	-0.944710	0.327907	-0.000166
07534		-0.149407	-0.501927	0.851908	0.285085	0.803124	0.523182	-0.946786	0.321033	0.023100
07535		-0.120935	-0.488118	0.864358	0.293518	0.814230	0.500877	-0.948273	0.314278	0.044802
07536		-0.093726	-0.474969	0.874997	0.299539	0.824693	0.479748	-0.949469	0.307060	0.064977
07537		-0.068403	-0.462334	0.884063	0.303573	0.834473	0.459889	-0.950350	0.299836	0.083272
07538		-0.045454	-0.450427	0.891655	0.306772	0.843155	0.441565	-0.950697	0.293606	0.099854
07539		-0.025594	-0.439293	0.897979	0.309837	0.850553	0.424924	-0.950445	0.289103	0.114340
07540		-0.008823	-0.429072	0.903227	0.313499	0.856537	0.409954	-0.949547	0.286778	0.126956
07541		0.004958	-0.419584	0.907703	0.317716	0.861342	0.396418	-0.948173	0.286427	0.137579
07542		0.016440	-0.411005	0.911485	0.322289	0.865130	0.384291	-0.946499	0.287444	0.146685
07543		0.026046	-0.403193	0.914744	0.326224	0.868388	0.373471	-0.944934	0.288684	0.154150
07544		0.034160	-0.396358	0.917460	0.328809	0.871348	0.364194	-0.943778	0.289229	0.160091
07545		0.040797	-0.390788	0.919576	0.329971	0.873976	0.356771	-0.943109	0.288878	0.164605
07546		0.046369	-0.386756	0.921016	0.329406	0.876355	0.351418	-0.943049	0.287093	0.168035
07547		0.050278	-0.384254	0.921857	0.327606	0.878299	0.348230	-0.943476	0.284498	0.170043
07548		0.052466	-0.383436	0.922076	0.325472	0.879496	0.347210	-0.944095	0.281893	0.170942
07549		0.053342	-0.383989	0.921796	0.323036	0.880109	0.347930	-0.944882	0.279213	0.170989
07550		0.053452	-0.385638	0.921101	0.320589	0.880217	0.349917	-0.945709	0.276591	0.170680
07551		0.052588	-0.388208	0.920070	0.318502	0.879747	0.352990	-0.946462	0.274481	0.169909
07552		0.051269	-0.392010	0.918531	0.317672	0.878371	0.357140	-0.946814	0.273482	0.169564
07553		0.049748	-0.397328	0.916327	0.318888	0.875762	0.362425	-0.946486	0.274176	0.170271
07554		0.048109	-0.404098	0.913450	0.322765	0.871736	0.368645	-0.945256	0.277095	0.172367
07555		0.046902	-0.412161	0.909903	0.328804	0.866513	0.375557	-0.943233	0.281566	0.176161
07556		0.046119	-0.421205	0.905792	0.336192	0.860406	0.382983	-0.940664	0.286857	0.181286
07557		0.045644	-0.430950	0.901221	0.344268	0.853680	0.390781	-0.937761	0.292425	0.187328
07558		0.045715	-0.441187	0.896250	0.352782	0.846509	0.398707	-0.934588	0.297953	0.194341
07559		0.045953	-0.451898	0.890885	0.361937	0.838763	0.406790	-0.931069	0.303751	0.202103
07560		0.046521	-0.463032	0.885120	0.371927	0.830399	0.414858	-0.927095	0.309901	0.210845
07561		0.047140	-0.474774	0.878844	0.382647	0.821291	0.423158	-0.922691	0.316339	0.220386
07562		0.047781	-0.486895	0.872152	0.393914	0.811570	0.431493	-0.917904	0.322936	0.230573
07563		0.048406	-0.499357	0.865043	0.405006	0.801479	0.440001	-0.913032	0.329049	0.241039
07564		0.048760	-0.511547	0.857871	0.415046	0.791604	0.448442	-0.908493	0.334190	0.250915
07565		0.048395	-0.523319	0.850762	0.423588	0.782126	0.457004	-0.904561	0.338256	0.259522
07566		0.047315	-0.534284	0.843980	0.430699	0.773260	0.465368	-0.901254	0.341483	0.266702
07567		0.045364	-0.544498	0.837534	0.436873	0.764788	0.473541	-0.898379	0.344414	0.272570
07568		0.042445	-0.553916	0.831490	0.443070	0.756363	0.481252	-0.895482	0.347982	0.277528
07569		0.038538	-0.562917	0.825614	0.449910	0.747518	0.488669	-0.892242	0.352620	0.282070
07570		0.034051	-0.571630	0.819805	0.457961	0.738018	0.495581	-0.888320	0.358563	0.286915
07571		0.028923	-0.580356	0.813849	0.467385	0.727555	0.502209	-0.883581	0.365856	0.292292
07572		0.023453	-0.589314	0.807564	0.478378	0.715918	0.508543	-0.877841	0.374394	0.298705
07573		0.017606	-0.598739	0.800750	0.490708	0.702961	0.514831	-0.871146	0.383870	0.306182
07574		0.011112	-0.607914	0.793925	0.504008	0.689146	0.520629	-0.863628	0.394360	0.314051
07575		0.004058	-0.616555	0.787302	0.517238	0.675103	0.526023	-0.855832	0.405088	0.321645
07576		-0.003843	-0.624420	0.781079	0.530352	0.660912	0.530964	-0.847769	0.416287	0.328622
07577		-0.012518	-0.631900	0.774949	0.543798	0.646076	0.535601	-0.839123	0.428121	0.335538
07578		-0.021663	-0.638957	0.768937	0.556862	0.631054	0.540070	-0.830322	0.439891	0.342141
07579		-0.031127	-0.645911	0.762777	0.569769	0.615545	0.544488	-0.821215	0.451555	0.348860
07580		-0.040585	-0.652671	0.756554	0.583275	0.599299	0.548299	-0.811260	0.463531	0.356364
07581		-0.049961	-0.659943	0.749652	0.597247	0.581857	0.552031	-0.800500	0.475308	0.365079
07582		-0.059478	-0.667576	0.742162	0.611158	0.563494	0.555843	-0.789271	0.486639	0.374479
07583		-0.069408	-0.675700	0.733902	0.624464	0.544284	0.560178	-0.777963	0.497176	0.384173
07584		-0.079884	-0.683853	0.725233	0.636589	0.524867	0.565039	-0.767055	0.506813	0.393404
07585		-0.090489	-0.692221	0.715990	0.646747	0.505863	0.570807	-0.757318	0.514716	0.401917
07586		-0.101454	-0.700319	0.706584	0.654879	0.487646	0.577352	-0.748893	0.521302	0.409151
07587		-0.113394	-0.708313	0.696731	0.661748	0.469231	0.584733	-0.741102	0.527365	0.415517
07588		-0.125828	-0.716122	0.686540	0.667819	0.450612	0.592425	-0.733611	0.533028	0.421540
07589		-0.138822	-0.723954	0.675736	0.672432	0.432022	0.600993	-0.727024	0.537817	0.426836
07590		-0.152373	-0.731541	0.664552	0.676063	0.413325	0.610001	-0.720917	0.542227	0.431588
07591		-0.166299	-0.739420	0.652383	0.678629	0.394173	0.619750	-0.715407	0.545790	0.436241
07592		-0.180576	-0.747280	0.639504	0.680694	0.374378	0.629680	-0.709963	0.549012	0.441065
07593		-0.195026	-0.755313	0.625673	0.682912	0.353306	0.639379	-0.703986	0.551975	0.446909
07594		-0.209874	-0.762941	0.611452	0.685014	0.331493	0.648744	-0.697645	0.555008	0.453053
07595		-0.225470	-0.769971	0.596915	0.686555	0.309135	0.658087	-0.691235	0.558194	0.458927
07596		-0.241780	-0.775807	0.582809	0.686850	0.287426	0.667550	-0.685404	0.561702	0.463370
07597		-0.259330	-0.780235	0.569194	0.685785	0.266214	0.677369	-0.680034	0.566007	0.466036
07598		-0.277460	-0.783372	0.556188	0.682847	0.246436	0.687742	-0.675822	0.570612	0.466547
07599		-0.296375	-0.785208	0.543701	0.677540	0.228365	0.699134	-0.673128	0.575585	0.464328
07600		-0.316018	-0.785555	0.532010	0.671035	0.211344	0.710666	-0.670705	0.581581	0.460346
07601		-0.335898	-0.785217	0.520198	0.664363	0.193984	0.721798	-0.667678	0.588051	0.456511
07602		-0.355378	-0.784646	0.507973	0.658431	0.175594	0.731871	-0.663457	0.594556	0.454233
07603		-0.374289	-0.783944	0.495317	0.652521	0.156867	0.741356	-0.658881	0.600686	0.452827
07604		-0.392603	-0.782768	0.482842	0.647753	0.137354	0.749367	-0.652901	0.606966	0.453115
07605		-0.410537	-0.781281	0.470170	0.644197	0.116420	0.755947	-0.645344	0.613227	0.455504
07606		-0.427589	-0.779664	0.457485	0.640743	0.095591	0.761781	-0.637664	0.618860	0.458691
07607		-0.444626	-0.777293	0.445111	0.636520	0.075437	0.767562	-0.630198	0.624600	0.461222
07608		-0.462583	-0.773090	0.433992	0.631311	0.056457	0.773472	-0.622465	0.631779	0.461944
07609		-0.481531	-0.767101	0.423891	0.625137	0.038365	0.779571	-0.614273	0.640378	0.461069
07610		-0.501267	-0.759222	0.415108	0.619479	0.020066	0.784757	-0.604134	0.650523	0.460264
07611		-0.521004	-0.750308	0.406931	0.615207	0.000380	0.788365	-0.591671	0.661088	0.461397
07612		-0.539672	-0.741222	0.399180	0.613422	-0.021462	0.789464	-0.576601	0.670917	0.466264
07613		-0.557433	-0.732074	0.391582	0.613826	-0.045839	0.788109	-0.559004	0.679681	0.474918
07614		-0.574273	-0.722979	0.384072	0.615194	-0.071574	0.785120	-0.540136	0.687152	0.485876
07615		-0.590312	-0.714091	0.376305	0.615716	-0.096904	0.781987	-0.521944	0.693313	0.496881
07616		-0.605491	-0.705347	0.368601	0.614521	-0.120061	0.779711	-0.505712	0.698621	0.506146
07617		-0.620152	-0.696640	0.360700	0.611578	-0.141369	0.778452	-0.491309	0.703354	0.513720
07618		-0.634726	-0.687086	0.353603	0.607172	-0.160401	0.778212	-0.477980	0.708650	0.518990
07619		-0.649598	-0.676362	0.347214	0.602108	-0.178825	0.778131	-0.464207	0.714532	0.523407
07620		-0.664405	-0.664867	0.341345	0.597176	-0.197653	0.777377	-0.449385	0.720337	0.528364
07621		-0.679134	-0.653012	0.335190	0.592395	-0.217978	0.775599	-0.433412	0.725300	0.534877
07622		-0.693406	-0.641309	0.328499	0.587793	-0.239757	0.772668	-0.416759	0.728862	0.543205
07623		-0.707178	-0.630272	0.320401	0.582501	-0.262517	0.769270	-0.400739	0.730645	0.552780
07624		-0.720400	-0.619805	0.311232	0.576109	-0.284915	0.766108	-0.386163	0.731208	0.562328
07625		-0.733169	-0.609739	0.301134	0.567758	-0.305086	0.764574	-0.374319	0.731533	0.569864
07626		-0.745203	-0.600091	0.290799	0.558093	-0.322572	0.764513	-0.364973	0.732010	0.575288
07627		-0.756478	-0.590862	0.280398	0.547565	-0.337734	0.765577	-0.357651	0.732678	0.579024
07628		-0.767012	-0.581892	0.270360	0.536843	-0.351218	0.767102	-0.351415	0.733517	0.581773
07629		-0.777073	-0.573069	0.260288	0.526094	-0.364361	0.768418	-0.345518	0.734053	0.584623
07630		-0.786851	-0.564183	0.250124	0.515576	-0.378193	0.768863	-0.339185	0.733939	0.588462
07631		-0.796297	-0.555185	0.240168	0.505473	-0.392619	0.768341	-0.332277	0.733226	0.593272
07632		-0.805199	-0.546095	0.231159	0.496588	-0.407883	0.766180	-0.324121	0.731718	0.599612
07633		-0.813352	-0.537356	0.222948	0.488917	-0.423655	0.762546	-0.315306	0.729222	0.607304
07634		-0.820629	-0.529244	0.215566	0.482178	-0.438804	0.758258	-0.306712	0.726190	0.615285
07635		-0.827047	-0.521827	0.209022	0.476041	-0.452407	0.754131	-0.298963	0.723205	0.622573
07636		-0.832443	-0.515510	0.203196	0.470462	-0.463799	0.750704	-0.292754	0.720514	0.628614
07637		-0.836825	-0.510457	0.197881	0.465468	-0.473105	0.748005	-0.288206	0.718057	0.633508
07638		-0.840271	-0.506613	0.193103	0.461133	-0.480498	0.745974	-0.285134	0.715867	0.637364
07639		-0.842800	-0.503808	0.189381	0.457706	-0.485753	0.744681	-0.283184	0.714298	0.639988
07640		-0.844359	-0.502123	0.186894	0.455733	-0.489681	0.743317	-0.281718	0.712801	0.642300
07641		-0.844902	-0.501691	0.185597	0.455553	-0.492984	0.741241	-0.280377	0.710826	0.645070
07642		-0.844464	-0.502522	0.185344	0.457388	-0.496517	0.737745	-0.278706	0.707773	0.649138
07643		-0.842905	-0.504860	0.186085	0.461351	-0.500165	0.732796	-0.276887	0.703528	0.654509
07644		-0.840170	-0.508841	0.187604	0.467276	-0.503637	0.726638	-0.275259	0.698162	0.660910
07645		-0.836268	-0.514351	0.189996	0.474864	-0.506121	0.719963	-0.274153	0.692304	0.667500
07646		-0.831244	-0.521367	0.192899	0.483621	-0.507111	0.713407	-0.274126	0.686305	0.673677
07647		-0.825067	-0.529754	0.196533	0.493488	-0.506192	0.707276	-0.275199	0.680536	0.679070
07648		-0.817815	-0.539394	0.200583	0.504374	-0.503987	0.701145	-0.277102	0.674575	0.684224
07649		-0.809381	-0.550278	0.205173	0.516540	-0.500793	0.694545	-0.279444	0.668132	0.689573
07650		-0.799724	-0.562450	0.209979	0.529965	-0.497019	0.687102	-0.282098	0.660774	0.695557
07651		-0.788786	-0.575788	0.215139	0.544807	-0.492851	0.678442	-0.284607	0.652354	0.702447
07652		-0.776613	-0.590259	0.220151	0.560734	-0.488391	0.668619	-0.287139	0.642705	0.710269
07653		-0.763309	-0.605426	0.225427	0.577824	-0.483749	0.657348	-0.288925	0.632017	0.719080
07654		-0.749115	-0.621054	0.230475	0.595470	-0.478874	0.645055	-0.290245	0.620461	0.728550
07655		-0.733786	-0.637255	0.235508	0.613882	-0.473425	0.631679	-0.291045	0.608091	0.738592
07656		-0.717379	-0.653993	0.240126	0.632785	-0.467462	0.617302	-0.291461	0.594787	0.749185
07657		-0.699864	-0.671005	0.244832	0.652223	-0.460608	0.602034	-0.291196	0.581027	0.760008
07658		-0.681213	-0.688358	0.249223	0.671616	-0.452138	0.586944	-0.291345	0.567216	0.770314
07659		-0.661208	-0.706071	0.253511	0.691245	-0.442091	0.571609	-0.291522	0.553191	0.780382
07660		-0.640200	-0.723872	0.257201	0.710867	-0.431301	0.555560	-0.291224	0.538506	0.790696
07661		-0.618304	-0.741597	0.260258	0.730567	-0.420222	0.538224	-0.289779	0.522922	0.801611
07662		-0.595830	-0.759089	0.262242	0.749835	-0.408863	0.520172	-0.287636	0.506572	0.812804
07663		-0.572981	-0.776020	0.263602	0.768866	-0.397598	0.500760	-0.283792	0.489600	0.824472
07664		-0.549766	-0.792590	0.263738	0.787329	-0.386200	0.480586	-0.279052	0.471859	0.836349
07665		-0.526236	-0.808542	0.263316	0.805149	-0.374174	0.460141	-0.273517	0.454151	0.847900
07666		-0.502700	-0.823778	0.262074	0.821620	-0.361047	0.441119	-0.268762	0.437076	0.858331
07667		-0.479266	-0.838122	0.260492	0.836292	-0.346035	0.425295	-0.266310	0.421677	0.866757
07668		-0.456162	-0.851592	0.258278	0.848893	-0.329328	0.413430	-0.267015	0.407841	0.873137
07669		-0.433707	-0.863995	0.255755	0.859989	-0.312205	0.403668	-0.268919	0.395020	0.878431
07670		-0.412600	-0.875428	0.251767	0.869941	-0.296734	0.393892	-0.270117	0.381543	0.884003
07671		-0.393471	-0.885805	0.246027	0.879644	-0.284964	0.380818	-0.267222	0.366257	0.891318
07672		-0.376853	-0.894940	0.238880	0.889406	-0.277578	0.363191	-0.258727	0.349331	0.900571
07673		-0.362633	-0.902724	0.231486	0.899318	-0.273837	0.340941	-0.244386	0.331816	0.911139
07674		-0.350619	-0.909410	0.223695	0.908471	-0.272255	0.317108	-0.227479	0.314404	0.921631
07675		-0.340298	-0.915033	0.216593	0.915946	-0.270462	0.296469	-0.212699	0.299275	0.930158
07676		-0.331747	-0.919564	0.210582	0.921165	-0.267620	0.282550	-0.203466	0.287716	0.935853
07677		-0.325218	-0.922976	0.205787	0.924257	-0.264231	0.275556	-0.199957	0.279815	0.939000
07678		-0.321464	-0.925270	0.201336	0.925546	-0.262101	0.273253	-0.200063	0.274187	0.940636
07679		-0.321143	-0.926142	0.197810	0.925626	-0.262803	0.272308	-0.200211	0.270548	0.941658
07680		-0.324287	-0.925739	0.194537	0.925036	-0.267324	0.269899	-0.197852	0.267479	0.943032
07681		-0.331076	-0.923843	0.192099	0.924286	-0.276523	0.263117	-0.189959	0.264666	0.945446
07682		-0.341012	-0.920828	0.189175	0.922902	-0.289668	0.253663	-0.178782	0.261092	0.948614
07683		-0.353355	-0.916724	0.186434	0.920616	-0.305366	0.243349	-0.166153	0.257622	0.951853
07684		-0.367694	-0.911726	0.183184	0.916844	-0.322461	0.235407	-0.155557	0.254509	0.954477
07685		-0.383620	-0.905824	0.179775	0.911117	-0.339477	0.233713	-0.150674	0.253453	0.955541
07686		-0.400958	-0.899108	0.175606	0.903248	-0.356011	0.239582	-0.152892	0.254679	0.954863
07687		-0.419982	-0.891309	0.170833	0.893281	-0.372768	0.251184	-0.160201	0.258094	0.952745
07688		-0.441181	-0.882141	0.164886	0.881124	-0.390943	0.266055	-0.170237	0.262663	0.949751
07689		-0.464670	-0.871221	0.158290	0.867310	-0.411769	0.279678	-0.178483	0.267244	0.946955
07690		-0.490270	-0.858438	0.150729	0.852151	-0.435820	0.289656	-0.182961	0.270453	0.945188
07691		-0.516965	-0.844160	0.141918	0.836017	-0.462286	0.295581	-0.183911	0.271451	0.944717
07692		-0.543894	-0.828846	0.131120	0.819104	-0.490426	0.297576	-0.182340	0.269251	0.945651
07693		-0.570430	-0.812583	0.119663	0.801168	-0.518383	0.299015	-0.180943	0.266437	0.946716
07694		-0.596148	-0.795691	0.107164	0.781898	-0.545066	0.302553	-0.182327	0.264157	0.947089
07695		-0.620656	-0.778421	0.094058	0.761214	-0.569440	0.310309	-0.187991	0.264194	0.945971
07696		-0.643713	-0.761040	0.080319	0.739263	-0.591276	0.322309	-0.197799	0.266851	0.943221
07697		-0.665269	-0.743677	0.066050	0.716350	-0.610878	0.337151	-0.210383	0.271611	0.939131
07698		-0.685083	-0.726712	0.050503	0.692921	-0.628696	0.352989	-0.224771	0.276822	0.934263
07699		-0.702982	-0.710392	0.034051	0.669904	-0.645317	0.367144	-0.238842	0.280907	0.929541
07700		-0.718970	-0.694798	0.018403	0.648394	-0.660945	0.377807	-0.250336	0.283564	0.925702
07701		-0.732774	-0.680452	0.005141	0.629865	-0.675400	0.383543	-0.257511	0.284288	0.923509
07702		-0.743794	-0.668385	-0.005693	0.615019	-0.687693	0.385786	-0.261769	0.283444	0.922571
07703		-0.752150	-0.658836	-0.014317	0.603271	-0.697134	0.387387	-0.265205	0.282736	0.921806
07704		-0.758265	-0.651599	-0.021289	0.593835	-0.703784	0.389933	-0.269063	0.283030	0.920597
07705		-0.762322	-0.646601	-0.027811	0.586343	-0.708194	0.393272	-0.273986	0.283493	0.919001
07706		-0.764685	-0.643531	-0.033531	0.580902	-0.710921	0.396415	-0.278943	0.283654	0.917459
07707		-0.765679	-0.642113	-0.037770	0.577247	-0.711862	0.400048	-0.283764	0.284505	0.915715
07708		-0.765509	-0.642151	-0.040481	0.574994	-0.710972	0.404846	-0.288753	0.286637	0.913488
07709		-0.764604	-0.643139	-0.041854	0.574213	-0.709272	0.408917	-0.292677	0.288626	0.911611
07710		-0.763340	-0.644609	-0.042319	0.575114	-0.707956	0.409929	-0.294204	0.288577	0.911135
07711		-0.761879	-0.646344	-0.042182	0.577556	-0.707388	0.407469	-0.293204	0.286080	0.912244
07712		-0.760071	-0.648529	-0.041268	0.581143	-0.706766	0.403429	-0.290802	0.282652	0.914080
07713		-0.757811	-0.651268	-0.039663	0.585156	-0.705259	0.400254	-0.288645	0.280107	0.915546
07714		-0.755053	-0.654618	-0.037012	0.589411	-0.702402	0.399033	-0.287211	0.279476	0.916189
07715		-0.751600	-0.658748	-0.033884	0.594113	-0.698384	0.399110	-0.286577	0.279840	0.916277
07716		-0.747623	-0.663422	-0.030509	0.599353	-0.693785	0.399297	-0.286069	0.280238	0.916314
07717		-0.743395	-0.668309	-0.026971	0.605204	-0.689274	0.398283	-0.284767	0.279758	0.916866
07718		-0.738853	-0.673485	-0.022675	0.612000	-0.684724	0.395737	-0.282050	0.278514	0.918084
07719		-0.734027	-0.678893	-0.017602	0.619608	-0.680088	0.391875	-0.278012	0.276741	0.919850
07720		-0.729007	-0.684408	-0.011608	0.627381	-0.674853	0.388543	-0.273756	0.275968	0.921357
07721		-0.723649	-0.690149	-0.005191	0.634870	-0.668600	0.387187	-0.270688	0.276892	0.921986
07722		-0.717776	-0.696272	0.001583	0.641978	-0.660922	0.388646	-0.269557	0.279977	0.921386
07723		-0.711260	-0.702877	0.008569	0.648693	-0.651636	0.393151	-0.270753	0.285191	0.919434
07724		-0.704018	-0.709997	0.016187	0.655365	-0.640728	0.399955	-0.273596	0.292184	0.916392
07725		-0.696031	-0.717608	0.024087	0.662305	-0.628712	0.407521	-0.277296	0.299600	0.912878
07726		-0.687355	-0.725606	0.032238	0.669942	-0.616229	0.414052	-0.280573	0.306198	0.909682
07727		-0.678152	-0.733812	0.040364	0.678645	-0.604200	0.417593	-0.282047	0.310584	0.907737
07728		-0.668505	-0.742106	0.048793	0.688463	-0.592699	0.418002	-0.281283	0.313029	0.907135
07729		-0.658527	-0.750369	0.057343	0.699050	-0.581709	0.415865	-0.278695	0.313944	0.907617
07730		-0.648293	-0.758505	0.066235	0.709924	-0.570738	0.412632	-0.275180	0.314528	0.908486
07731		-0.637754	-0.766561	0.075194	0.720569	-0.559288	0.409849	-0.272119	0.315565	0.909049
07732		-0.626942	-0.774459	0.084604	0.730550	-0.546698	0.409167	-0.270630	0.318331	0.908529
07733		-0.615780	-0.782285	0.094046	0.739606	-0.532737	0.411308	-0.271658	0.322832	0.906632
07734		-0.604267	-0.790084	0.103092	0.747682	-0.517547	0.416073	-0.275378	0.328500	0.903468
07735		-0.592526	-0.797763	0.111743	0.754773	-0.501338	0.423059	-0.281480	0.335014	0.899186
07736		-0.580990	-0.804950	0.120441	0.760871	-0.484605	0.431548	-0.289008	0.342365	0.894014
07737		-0.570054	-0.811411	0.129042	0.766137	-0.468238	0.440212	-0.296771	0.349808	0.888573
07738		-0.560135	-0.816742	0.138498	0.770705	-0.452487	0.448631	-0.303747	0.358035	0.882921
07739		-0.551572	-0.820800	0.148511	0.774520	-0.437877	0.456489	-0.309657	0.366811	0.877247
07740		-0.544089	-0.823866	0.158785	0.777998	-0.424539	0.463126	-0.314143	0.375516	0.871953
07741		-0.537487	-0.826196	0.168845	0.781239	-0.412489	0.468529	-0.317450	0.383736	0.867163
07742		-0.531509	-0.828024	0.178537	0.784174	-0.401307	0.473311	-0.320264	0.391573	0.862613
07743		-0.526197	-0.829400	0.187650	0.786293	-0.390525	0.478783	-0.323820	0.399482	0.857645
07744		-0.521751	-0.830071	0.196871	0.787391	-0.379753	0.485596	-0.328317	0.408374	0.851727
07745		-0.518515	-0.829862	0.206083	0.786777	-0.368656	0.495050	-0.334850	0.418833	0.844070
07746		-0.516670	-0.828512	0.215917	0.784056	-0.356540	0.508070	-0.343959	0.431796	0.833813
07747		-0.516160	-0.826198	0.225779	0.779202	-0.343539	0.524238	-0.355560	0.446518	0.821096
07748		-0.516726	-0.823147	0.235424	0.772725	-0.329998	0.542215	-0.368633	0.462094	0.806585
07749		-0.518321	-0.819641	0.243991	0.764905	-0.316742	0.560888	-0.382445	0.477350	0.791121
07750		-0.520366	-0.816158	0.251208	0.756612	-0.304263	0.578759	-0.395925	0.491233	0.775844
07751		-0.523066	-0.812807	0.256412	0.747931	-0.293502	0.595361	-0.408656	0.503192	0.761445
07752		-0.526469	-0.809487	0.259924	0.738940	-0.284470	0.610774	-0.420473	0.513622	0.747927
07753		-0.530909	-0.806036	0.261612	0.729158	-0.277194	0.625693	-0.431814	0.522942	0.734893
07754		-0.536488	-0.802144	0.262194	0.718581	-0.271292	0.640345	-0.442518	0.531945	0.721950
07755		-0.543755	-0.797155	0.262438	0.706809	-0.266380	0.655335	-0.452495	0.541835	0.708282
07756		-0.553312	-0.790447	0.262753	0.694135	-0.263174	0.670012	-0.460459	0.553112	0.694295
07757		-0.565019	-0.782363	0.262035	0.681082	-0.263004	0.683341	-0.465704	0.564568	0.681456
07758		-0.578683	-0.773039	0.259877	0.668337	-0.266887	0.694332	-0.467388	0.575484	0.671094
07759		-0.593714	-0.762954	0.255742	0.656299	-0.275237	0.702507	-0.465591	0.584932	0.664138
07760		-0.609848	-0.752119	0.249805	0.644793	-0.287612	0.708181	-0.460790	0.592955	0.660361
07761		-0.626339	-0.741004	0.242101	0.633062	-0.302264	0.712649	-0.454897	0.599624	0.658422
07762		-0.642836	-0.729615	0.233290	0.619956	-0.316677	0.717893	-0.449908	0.606117	0.655901
07763		-0.658891	-0.718406	0.223058	0.604434	-0.329099	0.725502	-0.447797	0.612851	0.651070
07764		-0.674736	-0.706870	0.212289	0.586330	-0.338676	0.735877	-0.448272	0.620994	0.642976
07765		-0.690989	-0.694327	0.201106	0.565724	-0.346242	0.748381	-0.449990	0.630893	0.632046
07766		-0.708031	-0.680318	0.189365	0.543423	-0.353645	0.761332	-0.450981	0.641952	0.620092
07767		-0.725586	-0.665427	0.175303	0.520482	-0.364060	0.772372	-0.450137	0.651665	0.610499
07768		-0.743301	-0.649747	0.159158	0.497858	-0.378391	0.780357	-0.446811	0.659279	0.604741
07769		-0.760960	-0.633093	0.141889	0.476665	-0.397172	0.784248	-0.440148	0.664415	0.604005
07770		-0.778450	-0.615245	0.124456	0.456831	-0.419314	0.784526	-0.430489	0.667569	0.607478
07771		-0.795204	-0.596789	0.107213	0.436522	-0.440746	0.784341	-0.420832	0.670512	0.610995
07772		-0.810765	-0.578313	0.090629	0.414692	-0.458168	0.786202	-0.413147	0.675008	0.611288
07773		-0.824491	-0.560962	0.074402	0.391290	-0.470187	0.791085	-0.408786	0.681356	0.607164
07774		-0.836391	-0.544983	0.058675	0.367135	-0.477503	0.798250	-0.407015	0.689191	0.599461
07775		-0.846939	-0.529928	0.043250	0.342765	-0.482003	0.806341	-0.406456	0.697746	0.589868
07776		-0.856412	-0.515519	0.028268	0.319044	-0.485380	0.814013	-0.405918	0.706149	0.580159
07777		-0.864989	-0.501603	0.013687	0.296381	-0.488704	0.820565	-0.404909	0.713836	0.571390
07778		-0.872799	-0.488080	0.000142	0.275516	-0.492446	0.825583	-0.402881	0.720607	0.564280
07779		-0.879954	-0.474896	-0.012441	0.256394	-0.496804	0.829124	-0.399928	0.726402	0.558926
07780		-0.886415	-0.462275	-0.023869	0.238929	-0.501093	0.831757	-0.396461	0.731579	0.554627
07781		-0.892126	-0.450510	-0.033948	0.222917	-0.504298	0.834261	-0.392963	0.736698	0.550324
07782		-0.897088	-0.439848	-0.042027	0.208780	-0.505791	0.837010	-0.389415	0.742097	0.545571
07783		-0.901366	-0.430379	-0.048089	0.196558	-0.505533	0.840120	-0.385880	0.747803	0.540265
07784		-0.904973	-0.422293	-0.051893	0.186643	-0.503631	0.843517	-0.382346	0.753674	0.534590
07785		-0.908035	-0.415504	-0.053187	0.179419	-0.500511	0.846934	-0.378525	0.759503	0.529031
07786		-0.910641	-0.409929	-0.051886	0.174974	-0.496326	0.850320	-0.374323	0.765258	0.523702
07787		-0.912795	-0.405593	-0.047958	0.173222	-0.490802	0.853878	-0.369865	0.771108	0.518259
07788		-0.914448	-0.402562	-0.041577	0.174144	-0.484142	0.857485	-0.365320	0.776885	0.512826
07789		-0.915544	-0.400898	-0.032547	0.178142	-0.476714	0.860819	-0.360616	0.782320	0.507870
07790		-0.915854	-0.400966	-0.020917	0.185788	-0.469392	0.863223	-0.355942	0.786700	0.504389
07791		-0.915222	-0.402897	-0.006592	0.197512	-0.462807	0.864175	-0.351224	0.789610	0.503148
07792		-0.913570	-0.406560	0.009929	0.212783	-0.457048	0.863615	-0.346574	0.791085	0.504055
07793		-0.910715	-0.412040	0.028664	0.231378	-0.451455	0.861773	-0.342144	0.791462	0.506483
07794		-0.906523	-0.419260	0.049371	0.252895	-0.445686	0.858725	-0.338025	0.790939	0.510054
07795		-0.900983	-0.427834	0.072031	0.276525	-0.438354	0.855208	-0.334312	0.790446	0.513256
07796		-0.893940	-0.437782	0.096010	0.301541	-0.429000	0.851488	-0.331577	0.790130	0.515510
07797		-0.884990	-0.449566	0.121173	0.328065	-0.417397	0.847439	-0.330403	0.789728	0.516879
07798		-0.874110	-0.463084	0.146575	0.355568	-0.404466	0.842602	-0.330911	0.788645	0.518206
07799		-0.861269	-0.478083	0.172200	0.383817	-0.389960	0.837028	-0.333018	0.786999	0.519357
07800		-0.846330	-0.494573	0.197798	0.412848	-0.374420	0.830281	-0.336575	0.784352	0.521066
07801		-0.829357	-0.512334	0.222892	0.442801	-0.359436	0.821421	-0.340727	0.779948	0.524963
07802		-0.810505	-0.531236	0.246718	0.473182	-0.345588	0.810350	-0.345224	0.773535	0.531473
07803		-0.789662	-0.551209	0.269447	0.504321	-0.333034	0.796711	-0.349419	0.765021	0.540971
07804		-0.767011	-0.572141	0.290427	0.535869	-0.322252	0.780383	-0.352899	0.754194	0.553764
07805		-0.742590	-0.593634	0.310093	0.567494	-0.311825	0.762047	-0.355683	0.741865	0.568442
07806		-0.716494	-0.615468	0.328383	0.598581	-0.300679	0.742491	-0.358242	0.728554	0.583842
07807		-0.688735	-0.637498	0.345312	0.628921	-0.288381	0.722007	-0.360696	0.714446	0.599554
07808		-0.659310	-0.659882	0.360370	0.658248	-0.274969	0.700786	-0.363345	0.699248	0.615656
07809		-0.628399	-0.682278	0.373645	0.686634	-0.260765	0.678628	-0.365579	0.683007	0.632340
07810		-0.596464	-0.704322	0.384917	0.713626	-0.245851	0.655969	-0.367382	0.665949	0.649264
07811		-0.563643	-0.725789	0.394382	0.739593	-0.230814	0.632240	-0.367844	0.648039	0.666885
07812		-0.530144	-0.746830	0.401487	0.764572	-0.216345	0.607145	-0.366575	0.628840	0.685699
07813		-0.496323	-0.766971	0.406717	0.788635	-0.202474	0.580568	-0.362929	0.608901	0.705353
07814		-0.462971	-0.785798	0.410097	0.811093	-0.188987	0.553544	-0.357471	0.588902	0.724851
07815		-0.430232	-0.803237	0.411959	0.831371	-0.174745	0.527529	-0.351744	0.569450	0.742969
07816		-0.398011	-0.819616	0.412088	0.849004	-0.158920	0.503921	-0.347533	0.550430	0.759110
07817		-0.366222	-0.834952	0.410775	0.864282	-0.141632	0.482656	-0.344816	0.531785	0.773503
07818		-0.335070	-0.849504	0.407519	0.877082	-0.123233	0.464264	-0.344175	0.512988	0.786376
07819		-0.304930	-0.862986	0.402832	0.887879	-0.104590	0.448032	-0.344513	0.494284	0.798119
07820		-0.276501	-0.875342	0.396640	0.897263	-0.087325	0.432773	-0.344188	0.475552	0.809558
07821		-0.250131	-0.886651	0.388954	0.906422	-0.073229	0.415976	-0.340343	0.456605	0.821997
07822		-0.226377	-0.896972	0.379729	0.915715	-0.063107	0.396841	-0.331992	0.437559	0.835657
07823		-0.205375	-0.906231	0.369550	0.925246	-0.056721	0.375103	-0.318968	0.418962	0.850135
07824		-0.187381	-0.914509	0.358556	0.934538	-0.053548	0.351812	-0.302535	0.401007	0.864677
07825		-0.172273	-0.921775	0.347352	0.943386	-0.052919	0.327450	-0.283453	0.384098	0.878705
07826		-0.160046	-0.928211	0.335871	0.951159	-0.054024	0.303937	-0.263973	0.368111	0.891523
07827		-0.150552	-0.933888	0.324325	0.957681	-0.056363	0.282261	-0.245320	0.353094	0.902852
07828		-0.144115	-0.938956	0.312399	0.962693	-0.059967	0.263867	-0.229026	0.338772	0.912568
07829		-0.140977	-0.943320	0.300454	0.966272	-0.065043	0.249175	-0.215509	0.325448	0.920673
07830		-0.141549	-0.946932	0.288589	0.968581	-0.072262	0.237968	-0.204485	0.313206	0.927409
07831		-0.146173	-0.949520	0.277570	0.969763	-0.082106	0.229824	-0.195433	0.302772	0.932811
07832		-0.155395	-0.951044	0.267147	0.969830	-0.095454	0.224316	-0.187834	0.293945	0.937184
07833		-0.169333	-0.951431	0.257111	0.968841	-0.112849	0.220482	-0.180759	0.286435	0.940894
07834		-0.188103	-0.950866	0.245909	0.966548	-0.134768	0.218227	-0.174364	0.278732	0.944408
07835		-0.211745	-0.948822	0.234311	0.962937	-0.161555	0.215993	-0.167085	0.271362	0.947864
07836		-0.239742	-0.945007	0.222451	0.957815	-0.192831	0.213089	-0.158475	0.264154	0.951372
07837		-0.271449	-0.939104	0.210711	0.951028	-0.228088	0.208617	-0.147852	0.257021	0.955029
07838		-0.306671	-0.930879	0.198537	0.942113	-0.267160	0.202606	-0.135561	0.249177	0.958923
07839		-0.344793	-0.920045	0.186105	0.930541	-0.308968	0.196553	-0.123337	0.240948	0.962669
07840		-0.385542	-0.906318	0.173047	0.915955	-0.353318	0.190243	-0.111280	0.231850	0.966366
07841		-0.428457	-0.889283	0.160003	0.898062	-0.399610	0.183835	-0.099543	0.222458	0.969847
07842		-0.472550	-0.869032	0.146559	0.876775	-0.446739	0.178015	-0.089227	0.212620	0.973052
07843		-0.517040	-0.845478	0.133554	0.852240	-0.493953	0.172331	-0.079732	0.202922	0.975943
07844		-0.561299	-0.818650	0.121472	0.824428	-0.540218	0.168772	-0.072544	0.194876	0.978141
07845		-0.604306	-0.788897	0.111608	0.793808	-0.584104	0.169384	-0.068435	0.190955	0.979210
07846		-0.644388	-0.757624	0.103779	0.761651	-0.623777	0.175472	-0.068207	0.192116	0.978999
07847		-0.680227	-0.726576	0.096842	0.729587	-0.658386	0.185018	-0.070670	0.196508	0.977952
07848		-0.711216	-0.696997	0.091472	0.699064	-0.687545	0.196447	-0.074032	0.203662	0.976238
07849		-0.736723	-0.670447	0.087980	0.671448	-0.709944	0.212455	-0.079979	0.215595	0.973202
07850		-0.756389	-0.648474	0.085771	0.647916	-0.724726	0.234472	-0.089888	0.232924	0.968332
07851		-0.770267	-0.632259	0.083289	0.629025	-0.731760	0.262402	-0.104958	0.254510	0.961357
07852		-0.778571	-0.622481	0.079652	0.615033	-0.731634	0.294016	-0.124743	0.277901	0.952476
07853		-0.782046	-0.618682	0.075074	0.605787	-0.726343	0.324727	-0.146373	0.299431	0.942823
07854		-0.781098	-0.620477	0.069954	0.601320	-0.717297	0.351992	-0.168225	0.317005	0.933385
07855		-0.776319	-0.626976	0.065036	0.601251	-0.705559	0.375079	-0.189279	0.330283	0.924709
07856		-0.768273	-0.637206	0.061031	0.605068	-0.691775	0.394132	-0.208924	0.339729	0.917025
07857		-0.757303	-0.650550	0.057237	0.612231	-0.676718	0.408933	-0.227298	0.344728	0.910768
07858		-0.743669	-0.666379	0.053805	0.622799	-0.661274	0.418136	-0.243058	0.344464	0.906790
07859		-0.727588	-0.684140	0.050671	0.636743	-0.646000	0.421001	-0.255291	0.338580	0.905644
07860		-0.709186	-0.703396	0.047843	0.653701	-0.630629	0.418308	-0.264065	0.327933	0.907044
07861		-0.688362	-0.723931	0.045635	0.673070	-0.614012	0.412269	-0.270434	0.314505	0.909919
07862		-0.665170	-0.745346	0.044819	0.694419	-0.595426	0.404042	-0.274465	0.299880	0.913642
07863		-0.639370	-0.767622	0.044293	0.717153	-0.574576	0.394403	-0.277303	0.283934	0.917869
07864		-0.611143	-0.790315	0.043670	0.740681	-0.551563	0.383627	-0.279100	0.266796	0.922455
07865		-0.581172	-0.812615	0.043528	0.764129	-0.526534	0.372652	-0.279903	0.249836	0.926950
07866		-0.549846	-0.834113	0.043862	0.786609	-0.499440	0.363050	-0.280918	0.234124	0.930737
07867		-0.517327	-0.854653	0.044049	0.807795	-0.470673	0.354871	-0.282559	0.219167	0.933877
07868		-0.484307	-0.873727	0.045258	0.827070	-0.440349	0.349354	-0.285310	0.206626	0.935897
07869		-0.451407	-0.891071	0.047158	0.843809	-0.409082	0.347331	-0.290206	0.196580	0.936556
07870		-0.419700	-0.906254	0.050560	0.857892	-0.377878	0.348180	-0.296434	0.189506	0.936063
07871		-0.389785	-0.919272	0.054832	0.869355	-0.347670	0.351209	-0.303793	0.184565	0.934690
07872		-0.361967	-0.930279	0.059670	0.878795	-0.319181	0.354742	-0.310963	0.180843	0.933058
07873		-0.336559	-0.939451	0.064504	0.886249	-0.292858	0.358882	-0.318261	0.177952	0.931151
07874		-0.313443	-0.947115	0.068755	0.891850	-0.268741	0.363844	-0.326125	0.175363	0.928919
07875		-0.292735	-0.953529	0.071340	0.895952	-0.247465	0.368823	-0.334029	0.171885	0.926758
07876		-0.274412	-0.958856	0.072760	0.898428	-0.228671	0.374883	-0.342821	0.168242	0.924212
07877		-0.258447	-0.963308	0.072408	0.898873	-0.212347	0.383323	-0.353882	0.164154	0.920772
07878		-0.244763	-0.967010	0.070586	0.897370	-0.198363	0.394181	-0.367175	0.159823	0.916318
07879		-0.233512	-0.970026	0.067237	0.894280	-0.187101	0.406517	-0.381752	0.155055	0.911166
07880		-0.226093	-0.971940	0.064916	0.889827	-0.178957	0.419742	-0.396347	0.152665	0.905319
07881		-0.223092	-0.972700	0.063915	0.883389	-0.174016	0.435135	-0.412134	0.153537	0.898094
07882		-0.224406	-0.972328	0.064969	0.875167	-0.171760	0.452306	-0.428630	0.158359	0.889493
07883		-0.229683	-0.970953	0.067054	0.865081	-0.172098	0.471187	-0.445961	0.166231	0.879481
07884		-0.238953	-0.968557	0.069268	0.853871	-0.175618	0.489963	-0.462392	0.176224	0.868987
07885		-0.251795	-0.965237	0.070123	0.841741	-0.182672	0.508038	-0.477567	0.186946	0.858476
07886		-0.267568	-0.960988	0.070073	0.828486	-0.192324	0.525950	-0.491955	0.198782	0.847624
07887		-0.285252	-0.955967	0.068975	0.813091	-0.203260	0.545497	-0.507458	0.211688	0.835269
07888		-0.303930	-0.950323	0.067175	0.794665	-0.213993	0.568080	-0.525484	0.226038	0.820228
07889		-0.323594	-0.943973	0.064825	0.772451	-0.223987	0.594264	-0.546449	0.242374	0.801653
07890		-0.345480	-0.936248	0.063900	0.746318	-0.232838	0.623534	-0.568904	0.263108	0.779180
07891		-0.370887	-0.926452	0.064268	0.718074	-0.242205	0.652461	-0.588908	0.288139	0.755092
07892		-0.399423	-0.914430	0.065407	0.690436	-0.253111	0.677667	-0.603124	0.315836	0.732454
07893		-0.430371	-0.900178	0.066795	0.665373	-0.266365	0.697372	-0.609967	0.344572	0.713590
07894		-0.462672	-0.883889	0.068382	0.643051	-0.281505	0.712208	-0.610263	0.373491	0.698630
07895		-0.495321	-0.865923	0.069539	0.621573	-0.297349	0.724728	-0.606881	0.402196	0.685517
07896		-0.527414	-0.846677	0.070516	0.599089	-0.311764	0.737493	-0.602434	0.431209	0.671664
07897		-0.558234	-0.826658	0.070792	0.574262	-0.323387	0.752093	-0.598830	0.460496	0.655244
07898		-0.587364	-0.806249	0.070472	0.546967	-0.331273	0.768821	-0.596516	0.490123	0.635569
07899		-0.614988	-0.785481	0.069345	0.517093	-0.335331	0.787508	-0.595319	0.520166	0.612391
07900		-0.641211	-0.764379	0.067630	0.485015	-0.335405	0.807629	-0.594651	0.550662	0.585800
07901		-0.666114	-0.743007	0.065064	0.451273	-0.332037	0.828314	-0.593839	0.581113	0.556473
07902		-0.690199	-0.720925	0.062390	0.416724	-0.325510	0.848755	-0.591580	0.611809	0.525093
07903		-0.714127	-0.697422	0.060207	0.381877	-0.316050	0.868494	-0.586678	0.643207	0.492030
07904		-0.738097	-0.672098	0.059136	0.348483	-0.304711	0.886403	-0.577730	0.674859	0.459121
07905		-0.761965	-0.644955	0.058682	0.318409	-0.294183	0.901150	-0.563938	0.705330	0.429516
07906		-0.785185	-0.616504	0.058371	0.292493	-0.286130	0.912457	-0.545831	0.733521	0.404988
07907		-0.807461	-0.587081	0.057823	0.270219	-0.280953	0.920895	-0.524394	0.759211	0.385499
07908		-0.828386	-0.557199	0.057507	0.250328	-0.276399	0.927868	-0.501112	0.783028	0.368447
07909		-0.847908	-0.527014	0.057515	0.231109	-0.269814	0.934767	-0.477116	0.805889	0.350575
07910		-0.865697	-0.497157	0.058337	0.211931	-0.258441	0.942493	-0.453491	0.828277	0.329095
07911		-0.881638	-0.468143	0.059637	0.192596	-0.241551	0.951083	-0.430838	0.849997	0.303123
07912		-0.895960	-0.439882	0.061312	0.173946	-0.220525	0.959746	-0.408654	0.870559	0.274097
07913		-0.909210	-0.411586	0.062730	0.156551	-0.198363	0.967545	-0.385785	0.889522	0.244788
07914		-0.921485	-0.383179	0.063559	0.141219	-0.178076	0.973831	-0.361833	0.906346	0.218206
07915		-0.932905	-0.354512	0.063320	0.127742	-0.161367	0.978592	-0.336705	0.921022	0.195826
07916		-0.943545	-0.325336	0.062288	0.116401	-0.149602	0.981871	-0.310119	0.933689	0.179025
07917		-0.953436	-0.295484	0.060402	0.106630	-0.142923	0.983973	-0.282116	0.944596	0.167775
07918		-0.962531	-0.264936	0.057813	0.097589	-0.139520	0.985399	-0.253001	0.954119	0.160148
07919		-0.970745	-0.233813	0.054644	0.088388	-0.136368	0.986707	-0.223253	0.962671	0.153045
07920		-0.977809	-0.203153	0.051176	0.079160	-0.132110	0.988069	-0.193969	0.970194	0.145260
07921		-0.983635	-0.173865	0.047252	0.069769	-0.125770	0.989603	-0.166115	0.976705	0.135842
07923		-0.991785	-0.121918	0.038703	0.051976	-0.107644	0.992830	-0.116878	0.986686	0.113096
07924		-0.994441	-0.099490	0.034483	0.044172	-0.096891	0.994314	-0.095583	0.990310	0.100747
07925		-0.996439	-0.078572	0.030582	0.037435	-0.087274	0.995481	-0.075547	0.993081	0.089904
07926		-0.997894	-0.058925	0.027135	0.031858	-0.080748	0.996225	-0.056512	0.994991	0.082455
07927		-0.998876	-0.040661	0.024361	0.027522	-0.079084	0.996488	-0.038592	0.996038	0.080114
07928		-0.999463	-0.023732	0.022573	0.024479	-0.083361	0.996219	-0.021761	0.996237	0.083897
07929		-0.999710	-0.008703	0.022433	0.023142	-0.092475	0.995446	-0.006589	0.995677	0.092650
07930		-0.999693	0.003680	0.024506	0.023989	-0.104344	0.994252	0.006216	0.994534	0.104223
07931		-0.999496	0.013317	0.028824	0.027073	-0.116835	0.992782	0.016589	0.993062	0.116415
07932		-0.999161	0.020266	0.035588	0.032719	-0.127604	0.991285	0.024631	0.991618	0.126834
07933		-0.998694	0.024756	0.044699	0.040924	-0.136291	0.989823	0.030596	0.990360	0.135099
07934		-0.998059	0.026536	0.056338	0.051940	-0.144364	0.988160	0.034355	0.989169	0.142706
07935		-0.997205	0.025631	0.070180	0.065403	-0.154648	0.985802	0.036120	0.987637	0.152540
07936		-0.996024	0.022205	0.086270	0.081313	-0.168933	0.982268	0.036385	0.985377	0.166456
07937		-0.994429	0.016888	0.104046	0.099094	-0.186703	0.977406	0.035932	0.982271	0.183989
07938		-0.992318	0.009674	0.123337	0.118692	-0.206769	0.971164	0.034897	0.978342	0.204032
07939		-0.989623	0.001182	0.143684	0.139639	-0.227829	0.963636	0.033875	0.973700	0.225300
07940		-0.986193	-0.008560	0.165380	0.162246	-0.249946	0.954569	0.033165	0.968222	0.247884
07941		-0.982006	-0.019617	0.187829	0.185966	-0.273615	0.943690	0.032881	0.961639	0.272340
07942		-0.976947	-0.031895	0.211084	0.210877	-0.298113	0.930946	0.033235	0.953998	0.297966
07943		-0.971059	-0.045078	0.234548	0.236331	-0.323326	0.916301	0.034531	0.945213	0.324622
07944		-0.964217	-0.059670	0.258311	0.262624	-0.348191	0.899884	0.036246	0.935523	0.351402
07945		-0.956529	-0.075475	0.281702	0.289136	-0.371663	0.882194	0.038114	0.925294	0.377329
07946		-0.947798	-0.092305	0.305221	0.316270	-0.394169	0.862904	0.040659	0.914391	0.402786
07947		-0.938118	-0.109977	0.328391	0.343500	-0.416184	0.841902	0.044082	0.902605	0.428207
07948		-0.927312	-0.128757	0.351445	0.371149	-0.437681	0.818953	0.048375	0.889863	0.453655
07949		-0.915583	-0.148109	0.373860	0.398514	-0.458565	0.794295	0.053797	0.876231	0.478878
07950		-0.902728	-0.167709	0.396176	0.425869	-0.478874	0.767669	0.060974	0.861715	0.503715
07951		-0.888970	-0.187110	0.417997	0.452542	-0.498943	0.739095	0.070265	0.846195	0.528220
07952		-0.874421	-0.205793	0.439359	0.478150	-0.519007	0.708523	0.082222	0.829627	0.552231
07953		-0.859442	-0.223885	0.459603	0.502189	-0.538074	0.676966	0.095737	0.812620	0.574876
07954		-0.843782	-0.241705	0.479176	0.525169	-0.555826	0.644403	0.110583	0.795384	0.595932
07955		-0.827663	-0.259034	0.497871	0.546766	-0.572242	0.611217	0.126577	0.778101	0.615254
07956		-0.810992	-0.276223	0.515745	0.567046	-0.588157	0.576654	0.144054	0.760113	0.633622
07957		-0.794043	-0.292811	0.532688	0.585633	-0.603323	0.541327	0.162877	0.741797	0.650545
07958		-0.776638	-0.308220	0.549394	0.602896	-0.616505	0.506398	0.182622	0.724515	0.664626
07959		-0.759092	-0.322310	0.565593	0.618768	-0.627172	0.473056	0.202253	0.709064	0.675516
07960		-0.741562	-0.335185	0.581151	0.633335	-0.635500	0.441618	0.221298	0.695551	0.683547
07961		-0.725249	-0.346791	0.594769	0.645543	-0.642846	0.412339	0.239349	0.682997	0.690092
07962		-0.710478	-0.357023	0.606429	0.655069	-0.650379	0.384566	0.257110	0.670479	0.695955
07963		-0.696982	-0.365092	0.617191	0.661873	-0.658725	0.357779	0.275936	0.657867	0.700764
07964		-0.684339	-0.370785	0.627852	0.666313	-0.667720	0.331930	0.296154	0.645499	0.704006
07965		-0.672787	-0.374042	0.638318	0.668880	-0.676221	0.308748	0.316159	0.634680	0.705142
07966		-0.661995	-0.375214	0.648828	0.670250	-0.683801	0.288412	0.335453	0.625804	0.704160
07967		-0.652273	-0.374521	0.658994	0.670395	-0.690750	0.270990	0.353709	0.618546	0.701634
07968		-0.643931	-0.372004	0.668555	0.669426	-0.697039	0.256917	0.370435	0.612984	0.697874
07969		-0.637733	-0.367363	0.677009	0.666526	-0.703725	0.245998	0.386058	0.608125	0.693645
07970		-0.633832	-0.360091	0.684538	0.661361	-0.711225	0.238243	0.401072	0.603733	0.688947
07971		-0.632501	-0.350681	0.690627	0.653877	-0.719701	0.233401	0.415195	0.599211	0.684514
07972		-0.632344	-0.340230	0.695978	0.646126	-0.727268	0.231523	0.427391	0.596092	0.679715
07973		-0.632958	-0.328816	0.700888	0.638290	-0.733976	0.232088	0.438121	0.594272	0.674456
07974		-0.634125	-0.316463	0.705505	0.630609	-0.739659	0.235023	0.447457	0.593932	0.668601
07975		-0.635643	-0.303611	0.709774	0.623763	-0.743696	0.240493	0.454839	0.595598	0.662106
07976		-0.637352	-0.290575	0.713686	0.617271	-0.746926	0.247140	0.461258	0.598053	0.655418
07977		-0.639401	-0.277028	0.717232	0.610223	-0.750344	0.254188	0.467753	0.600200	0.648820
07978		-0.641510	-0.262315	0.720872	0.602220	-0.754308	0.261439	0.475180	0.601839	0.641868
07979		-0.643731	-0.246582	0.724436	0.593073	-0.759005	0.268654	0.483606	0.602585	0.634836
07980		-0.646385	-0.229969	0.727530	0.582581	-0.764494	0.275950	0.492733	0.602215	0.628133
07981		-0.649199	-0.212755	0.730257	0.571108	-0.770458	0.283248	0.502370	0.600940	0.621687
07982		-0.651977	-0.195391	0.732631	0.558908	-0.776788	0.290211	0.512394	0.598684	0.615654
07983		-0.654529	-0.177907	0.734807	0.546625	-0.782794	0.297380	0.522297	0.596307	0.609610
07984		-0.656776	-0.160141	0.736885	0.534962	-0.787659	0.305629	0.531470	0.594936	0.602985
07985		-0.658867	-0.141977	0.738740	0.523756	-0.791483	0.315013	0.539975	0.594471	0.595844
07986		-0.660794	-0.122918	0.740434	0.512945	-0.794134	0.325942	0.547940	0.595182	0.587810
07987		-0.662583	-0.103123	0.741855	0.502791	-0.795372	0.338503	0.555143	0.597284	0.578850
07988		-0.664370	-0.082107	0.742880	0.492527	-0.795701	0.352530	0.562165	0.600099	0.569080
07989		-0.666304	-0.060369	0.743232	0.481836	-0.795545	0.367346	0.569098	0.602880	0.559163
07990		-0.668638	-0.038058	0.742613	0.470293	-0.795218	0.382691	0.575975	0.605127	0.549612
07991		-0.671115	-0.015030	0.741201	0.457365	-0.795248	0.397992	0.583456	0.606098	0.540578
07992		-0.673830	0.009307	0.738827	0.442821	-0.795367	0.413884	0.591491	0.606056	0.531821
07993		-0.676489	0.034630	0.735638	0.427134	-0.795274	0.430227	0.599933	0.605260	0.523203
07994		-0.679073	0.060728	0.731555	0.410739	-0.794531	0.447228	0.608402	0.604179	0.514601
07996		-0.683411	0.113574	0.721145	0.376823	-0.791176	0.481710	0.625263	0.600950	0.497901
07997		-0.684816	0.139764	0.715188	0.360553	-0.787899	0.499215	0.633268	0.599734	0.489174
07998		-0.685408	0.164984	0.709222	0.345426	-0.783754	0.516150	0.641012	0.598757	0.480202
07999		-0.685084	0.190060	0.703233	0.330994	-0.778742	0.532920	0.648924	0.597861	0.470595
08000		-0.683846	0.214885	0.697266	0.317324	-0.772942	0.549423	0.657009	0.596980	0.460385
08001		-0.681955	0.239610	0.691031	0.303770	-0.766679	0.565621	0.665328	0.595643	0.450054
08002		-0.679312	0.264098	0.684680	0.289469	-0.760914	0.580704	0.674346	0.592673	0.440450
08003		-0.676105	0.288152	0.678122	0.274663	-0.755451	0.594857	0.683697	0.588441	0.431619
08004		-0.672258	0.310905	0.671869	0.260624	-0.750055	0.607859	0.692925	0.583743	0.423201
08005		-0.667617	0.332052	0.666355	0.248653	-0.744190	0.619962	0.701755	0.579588	0.414268
08006		-0.662137	0.351525	0.661819	0.238994	-0.737979	0.631086	0.710251	0.576036	0.404631
08007		-0.656688	0.369196	0.657614	0.231484	-0.731211	0.641674	0.717758	0.573606	0.394714
08008		-0.651528	0.384843	0.653764	0.225875	-0.724282	0.651457	0.724218	0.572111	0.384964
08009		-0.646249	0.398024	0.651106	0.222035	-0.718225	0.659434	0.730111	0.570727	0.375777
08010		-0.640889	0.407509	0.650536	0.220949	-0.713666	0.664727	0.735148	0.569752	0.367342
08011		-0.635801	0.414141	0.651341	0.221035	-0.710832	0.667729	0.739528	0.568511	0.360408
08012		-0.630442	0.418830	0.653547	0.223707	-0.708188	0.669646	0.743302	0.568376	0.352776
08013		-0.624768	0.423023	0.656291	0.226130	-0.706476	0.670639	0.747349	0.567400	0.345725
08014		-0.619177	0.427061	0.658968	0.226943	-0.706050	0.670813	0.751742	0.564900	0.340252
08015		-0.613732	0.431527	0.661149	0.225343	-0.706834	0.670526	0.756673	0.560509	0.336565
08016		-0.608846	0.435938	0.662770	0.222251	-0.708276	0.670037	0.761519	0.555251	0.334343
08017		-0.604447	0.440331	0.663892	0.218817	-0.709539	0.669831	0.766005	0.550148	0.332527
08018		-0.599955	0.445098	0.664788	0.216206	-0.709827	0.670374	0.770266	0.545925	0.329631
08019		-0.595544	0.449839	0.665561	0.215127	-0.708942	0.671656	0.773981	0.543181	0.325434
08020		-0.591442	0.454438	0.666095	0.214908	-0.707348	0.673404	0.777182	0.541429	0.320693
08021		-0.588017	0.458292	0.666487	0.215788	-0.705246	0.675325	0.779533	0.540922	0.315802
08022		-0.584880	0.461720	0.666881	0.217198	-0.702996	0.677216	0.781499	0.540935	0.310884
08023		-0.582126	0.464700	0.667221	0.219098	-0.700590	0.679095	0.783024	0.541506	0.306016
08024		-0.579833	0.467181	0.667485	0.221317	-0.698143	0.680893	0.784100	0.542530	0.301411
08025		-0.577790	0.469399	0.667701	0.223255	-0.695981	0.682472	0.785058	0.543392	0.297335
08026		-0.575837	0.471647	0.667803	0.224875	-0.693942	0.684015	0.786030	0.544053	0.293536
08027		-0.573811	0.473955	0.667913	0.226421	-0.691943	0.685528	0.787067	0.544593	0.289731
08028		-0.572034	0.476023	0.667967	0.227935	-0.690034	0.686949	0.787923	0.545211	0.286220
08029		-0.570627	0.477710	0.667965	0.229471	-0.688237	0.688239	0.788497	0.546007	0.283106
08030		-0.569615	0.479050	0.667870	0.230638	-0.686770	0.689313	0.788889	0.546679	0.280707
08031		-0.568889	0.480142	0.667704	0.231471	-0.685583	0.690215	0.789168	0.547210	0.278882
08032		-0.568562	0.480759	0.667539	0.231889	-0.684890	0.690762	0.789281	0.547536	0.277920
08033		-0.568390	0.481048	0.667477	0.232048	-0.684605	0.690992	0.789359	0.547639	0.277497
08034		-0.568393	0.481114	0.667427	0.231847	-0.684673	0.690992	0.789415	0.547495	0.277618
08035		-0.568706	0.480754	0.667420	0.231569	-0.685014	0.690747	0.789271	0.547386	0.278243
08036		-0.569424	0.479931	0.667399	0.231339	-0.685509	0.690333	0.788821	0.547488	0.279319
08037		-0.570615	0.478508	0.667404	0.231179	-0.686237	0.689663	0.788007	0.547822	0.280956
08038		-0.571873	0.477056	0.667368	0.230694	-0.687171	0.688895	0.787237	0.547918	0.282920
08039		-0.573251	0.475216	0.667498	0.230957	-0.687894	0.688084	0.786157	0.548608	0.284581
08040		-0.574763	0.472925	0.667825	0.231977	-0.688452	0.687183	0.784751	0.549887	0.285989
08041		-0.576625	0.469919	0.668341	0.233717	-0.688974	0.686070	0.782867	0.551807	0.287451
08042		-0.578536	0.466487	0.669094	0.236041	-0.689462	0.684782	0.780757	0.554105	0.288768
08043		-0.580426	0.462844	0.669986	0.238623	-0.689970	0.683375	0.778566	0.556522	0.290031
08044		-0.582300	0.459247	0.670834	0.240826	-0.690683	0.681879	0.776485	0.558613	0.291586
08045		-0.584171	0.455754	0.671589	0.242034	-0.691988	0.680127	0.774702	0.559858	0.293931
08046		-0.586215	0.452531	0.671988	0.241652	-0.694029	0.678180	0.773277	0.559946	0.297495
08047		-0.588354	0.449599	0.672086	0.240575	-0.696202	0.676334	0.771986	0.559611	0.301451
08048		-0.590560	0.446916	0.671941	0.239315	-0.698204	0.674715	0.770692	0.559265	0.305378
08049		-0.592713	0.444210	0.671840	0.238930	-0.699629	0.673373	0.769158	0.559640	0.308545
08050		-0.594841	0.441339	0.671852	0.239727	-0.700370	0.672320	0.767265	0.560984	0.310808
08051		-0.596983	0.438101	0.672070	0.241769	-0.700536	0.671415	0.764957	0.563309	0.312289
08052		-0.599265	0.434284	0.672517	0.244296	-0.700793	0.670230	0.762366	0.565938	0.313867
08053		-0.601707	0.429644	0.673317	0.247077	-0.701525	0.668443	0.759541	0.568568	0.315957
08054		-0.603934	0.424629	0.674503	0.249645	-0.702905	0.666035	0.756929	0.570627	0.318502
08055		-0.606152	0.418965	0.676053	0.252377	-0.704760	0.663038	0.754245	0.572522	0.321455
08056		-0.608239	0.412825	0.677953	0.255110	-0.707124	0.659465	0.751641	0.574065	0.324785
08057		-0.610162	0.406359	0.680128	0.257537	-0.710100	0.655311	0.749251	0.575004	0.328624
08058		-0.611980	0.399587	0.682503	0.259364	-0.713847	0.650502	0.747136	0.575110	0.333221
08059		-0.613777	0.392377	0.685068	0.260804	-0.718257	0.645049	0.745157	0.574585	0.338516
08060		-0.615355	0.384746	0.687975	0.262261	-0.723131	0.638984	0.743342	0.573631	0.344078
08061		-0.616782	0.376527	0.691236	0.264397	-0.728042	0.632494	0.741400	0.572872	0.349491
08062		-0.618043	0.367581	0.694916	0.267742	-0.732689	0.625685	0.739147	0.572758	0.354416
08063		-0.618905	0.357791	0.699245	0.272559	-0.737086	0.618397	0.736660	0.573314	0.358667
08064		-0.619307	0.347222	0.704198	0.278869	-0.741142	0.610689	0.733956	0.574583	0.362165
08065		-0.619476	0.335278	0.709816	0.286898	-0.744962	0.602263	0.730712	0.576732	0.365295
08066		-0.619263	0.322684	0.715813	0.295343	-0.748972	0.593138	0.727521	0.578719	0.368508
08067		-0.619112	0.309139	0.721895	0.303549	-0.753601	0.583047	0.724264	0.580102	0.372725
08068		-0.619110	0.295389	0.727632	0.310310	-0.759136	0.572207	0.721395	0.580050	0.378327
08069		-0.618995	0.281572	0.733186	0.315840	-0.765473	0.560621	0.719090	0.578591	0.384893
08070		-0.618435	0.267840	0.738783	0.320549	-0.772374	0.548349	0.717487	0.575934	0.391808
08071		-0.617257	0.253827	0.744691	0.325775	-0.779113	0.535587	0.716145	0.573197	0.398223
08072		-0.615221	0.239689	0.751034	0.331961	-0.785321	0.522563	0.715056	0.570806	0.403579
08073		-0.612663	0.225075	0.757618	0.339494	-0.790703	0.509443	0.713714	0.569324	0.408023
08074		-0.610182	0.209766	0.763987	0.348242	-0.795147	0.496456	0.711621	0.568981	0.412135
08075		-0.607803	0.193601	0.770126	0.357502	-0.799268	0.483076	0.709061	0.568937	0.416584
08076		-0.605635	0.177065	0.775793	0.366876	-0.802995	0.469681	0.706122	0.569075	0.421361
08077		-0.603555	0.160191	0.781064	0.376860	-0.805962	0.456510	0.702637	0.569880	0.426072
08078		-0.601666	0.143265	0.785795	0.387738	-0.807710	0.444143	0.698325	0.571908	0.430422
08079		-0.599958	0.125932	0.790058	0.400171	-0.807881	0.432656	0.692759	0.575733	0.434300
08080		-0.598135	0.108877	0.793965	0.413320	-0.806884	0.422024	0.686587	0.580589	0.437625
08081		-0.596419	0.091490	0.797442	0.426741	-0.805302	0.411558	0.679835	0.585762	0.441255
08082		-0.594770	0.074341	0.800451	0.439443	-0.803712	0.401169	0.673156	0.590356	0.445356
08083		-0.592954	0.057175	0.803204	0.451833	-0.802022	0.390650	0.666523	0.594552	0.449729
08084		-0.590940	0.040570	0.805695	0.463562	-0.800301	0.380300	0.660227	0.598224	0.454124
08085		-0.588882	0.024197	0.807857	0.475187	-0.798174	0.370291	0.653770	0.601941	0.458532
08086		-0.587388	0.008780	0.809258	0.485372	-0.796327	0.360940	0.647603	0.604803	0.463491
08087		-0.586630	-0.006803	0.809827	0.495121	-0.794330	0.351987	0.640875	0.607448	0.469346
08088		-0.586873	-0.022070	0.809378	0.503827	-0.792477	0.343712	0.633828	0.609502	0.476203
08089		-0.587767	-0.037438	0.808163	0.511925	-0.790725	0.335687	0.626468	0.611025	0.483928
08090		-0.589229	-0.052530	0.806257	0.519705	-0.788697	0.328425	0.618640	0.612534	0.492023
08091		-0.590876	-0.067677	0.803919	0.528185	-0.785678	0.322072	0.609824	0.614922	0.499985
08092		-0.592822	-0.081902	0.801158	0.536791	-0.781785	0.317280	0.600348	0.618146	0.507424
08093		-0.594996	-0.095556	0.798028	0.545481	-0.777228	0.313636	0.590280	0.621921	0.514571
08094		-0.597781	-0.108622	0.794266	0.553762	-0.772357	0.311147	0.579660	0.625833	0.521851
08095		-0.601688	-0.121865	0.789379	0.561608	-0.767288	0.309620	0.567950	0.629617	0.530109
08096		-0.606997	-0.135156	0.783127	0.568323	-0.762626	0.308886	0.555485	0.632562	0.539724
08097		-0.613694	-0.149053	0.775347	0.574004	-0.758511	0.308513	0.542124	0.634385	0.551051
08098		-0.621515	-0.162447	0.766374	0.578300	-0.755066	0.308940	0.528477	0.635205	0.563228
08099		-0.629978	-0.175490	0.756526	0.582226	-0.751385	0.310537	0.513946	0.636101	0.575530
08100		-0.638799	-0.187630	0.746144	0.585911	-0.747184	0.313726	0.498643	0.637582	0.587235
08101		-0.647766	-0.198524	0.735518	0.589216	-0.742553	0.318497	0.482932	0.639691	0.597974
08102		-0.657009	-0.207695	0.724708	0.591671	-0.737786	0.324958	0.467187	0.642289	0.607619
08103		-0.667013	-0.215864	0.713089	0.593535	-0.732479	0.333451	0.450343	0.645660	0.616696
08104		-0.678159	-0.223856	0.699992	0.594538	-0.727003	0.343500	0.432002	0.649119	0.626114
08105		-0.690730	-0.232370	0.684761	0.594548	-0.721501	0.354893	0.411589	0.652258	0.636517
08106		-0.704434	-0.241389	0.667461	0.593689	-0.715763	0.367718	0.388981	0.655298	0.647517
08107		-0.719033	-0.251043	0.648050	0.591998	-0.709704	0.381914	0.364047	0.658254	0.658917
08108		-0.734292	-0.260749	0.626758	0.589180	-0.703385	0.397639	0.337168	0.661256	0.670118
08109		-0.749948	-0.269486	0.604115	0.584955	-0.696603	0.415418	0.308879	0.664922	0.680053
08110		-0.766012	-0.276234	0.580449	0.578601	-0.689707	0.435345	0.280083	0.669327	0.688153
08111		-0.782323	-0.280773	0.556002	0.569900	-0.682889	0.457029	0.251366	0.674410	0.694252
08112		-0.798839	-0.283683	0.530453	0.558825	-0.676353	0.479855	0.222647	0.679757	0.698826
08113		-0.815689	-0.285610	0.503069	0.545476	-0.669312	0.504457	0.192633	0.685892	0.701744
08114		-0.832762	-0.287500	0.473129	0.530026	-0.660894	0.531311	0.159936	0.693226	0.702750
08115		-0.849945	-0.289766	0.440033	0.512041	-0.651052	0.560308	0.124127	0.701546	0.701730
08116		-0.866782	-0.292825	0.403661	0.491231	-0.640806	0.589967	0.085911	0.709663	0.699284
08117		-0.882911	-0.295336	0.365027	0.467173	-0.630500	0.619854	0.047085	0.717807	0.694649
08118		-0.898080	-0.296068	0.325263	0.439734	-0.620024	0.649772	0.009294	0.726577	0.687022
08119		-0.912269	-0.294859	0.284294	0.408678	-0.608940	0.679834	-0.027337	0.736376	0.676020
08120		-0.925069	-0.292210	0.242610	0.374635	-0.597090	0.709318	-0.062410	0.747059	0.661822
