// Start Time: Unknown
// Update Rate: 100.0Hz
// Filter Profile: human (46.1)
// Option Flags: AHS Disabled ICC Disabled 
// Firmware Version: 4.0.2
PacketCounter	SampleTimeFine	Mat[1][1]	Mat[2][1]	Mat[3][1]	Mat[1][2]	Mat[2][2]	Mat[3][2]	Mat[1][3]	Mat[2][3]	Mat[3][3]
06814		0.019105	0.118784	-0.992736	-0.978994	-0.199367	-0.042696	-0.202991	0.972699	0.112480
06815		0.019323	0.118786	-0.992732	-0.979037	-0.199118	-0.042882	-0.202764	0.972750	0.112448
06816		0.019514	0.118750	-0.992732	-0.979091	-0.198820	-0.043028	-0.202485	0.972815	0.112387
06817		0.019718	0.118666	-0.992738	-0.979131	-0.198587	-0.043186	-0.202270	0.972873	0.112274
06818		0.019896	0.118604	-0.992742	-0.979171	-0.198362	-0.043323	-0.202061	0.972926	0.112187
06819		0.020111	0.118544	-0.992745	-0.979204	-0.198162	-0.043499	-0.201881	0.972974	0.112093
06820		0.020303	0.118516	-0.992745	-0.979250	-0.197900	-0.043653	-0.201638	0.973031	0.112039
06821		0.020534	0.118469	-0.992745	-0.979310	-0.197564	-0.043832	-0.201323	0.973105	0.111961
06822		0.020793	0.118436	-0.992744	-0.979381	-0.197162	-0.044035	-0.200947	0.973191	0.111895
06823		0.021117	0.118445	-0.992736	-0.979460	-0.196710	-0.044305	-0.200529	0.973281	0.111858
06824		0.021433	0.118416	-0.992733	-0.979554	-0.196186	-0.044550	-0.200036	0.973390	0.111790
06825		0.021743	0.118372	-0.992731	-0.979649	-0.195660	-0.044786	-0.199539	0.973501	0.111709
06826		0.022103	0.118364	-0.992724	-0.979741	-0.195131	-0.045080	-0.199047	0.973609	0.111653
06827		0.022414	0.118306	-0.992724	-0.979821	-0.194671	-0.045323	-0.198616	0.973708	0.111555
06828		0.022728	0.118251	-0.992724	-0.979895	-0.194237	-0.045571	-0.198213	0.973801	0.111459
06829		0.023035	0.118138	-0.992730	-0.979949	-0.193909	-0.045814	-0.197911	0.973880	0.111302
06830		0.023353	0.118079	-0.992730	-0.979993	-0.193622	-0.046083	-0.197656	0.973945	0.111195
06831		0.023621	0.118018	-0.992730	-0.980049	-0.193288	-0.046298	-0.197347	0.974018	0.111098
06832		0.023945	0.118028	-0.992722	-0.980114	-0.192891	-0.046574	-0.196984	0.974096	0.111062
06833		0.024254	0.118022	-0.992715	-0.980197	-0.192407	-0.046823	-0.196531	0.974192	0.111018
06834		0.024563	0.118066	-0.992702	-0.980304	-0.191804	-0.047069	-0.195961	0.974306	0.111029
06835		0.024933	0.118058	-0.992694	-0.980389	-0.191293	-0.047374	-0.195488	0.974407	0.110974
06836		0.025418	0.118178	-0.992667	-0.980476	-0.190736	-0.047813	-0.194988	0.974502	0.111022
06837		0.026125	0.118473	-0.992614	-0.980631	-0.189777	-0.048460	-0.194117	0.974653	0.111220
06838		0.026999	0.119000	-0.992527	-0.980897	-0.188192	-0.049246	-0.192646	0.974896	0.111646
06839		0.027923	0.119648	-0.992424	-0.981228	-0.186241	-0.050062	-0.190819	0.975192	0.112202
06840		0.028950	0.120440	-0.992298	-0.981583	-0.184108	-0.050983	-0.188831	0.975499	0.112892
06841		0.030069	0.121455	-0.992141	-0.981950	-0.181847	-0.052021	-0.186736	0.975797	0.113795
06842		0.031331	0.122645	-0.991956	-0.982343	-0.179363	-0.053203	-0.184445	0.976108	0.114860
06843		0.032665	0.123987	-0.991746	-0.982729	-0.176851	-0.054478	-0.182146	0.976397	0.116069
06844		0.034203	0.125445	-0.991511	-0.983069	-0.174475	-0.055986	-0.180017	0.976638	0.117354
06845		0.035993	0.127050	-0.991243	-0.983359	-0.172236	-0.057783	-0.178070	0.976828	0.118737
06846		0.037982	0.128807	-0.990942	-0.983634	-0.169966	-0.059795	-0.176128	0.976996	0.120244
06847		0.040042	0.130722	-0.990610	-0.983919	-0.167554	-0.061882	-0.174070	0.977158	0.121911
06848		0.042164	0.132767	-0.990250	-0.984220	-0.164958	-0.064024	-0.171850	0.977324	0.123717
06849		0.044374	0.134908	-0.989864	-0.984532	-0.162202	-0.066242	-0.169495	0.977492	0.125623
06850		0.046723	0.137079	-0.989458	-0.984861	-0.159213	-0.068563	-0.166933	0.977681	0.127565
06851		0.049129	0.139254	-0.989037	-0.985133	-0.156449	-0.070963	-0.164616	0.977820	0.129497
06852		0.051688	0.141551	-0.988581	-0.985391	-0.153624	-0.073518	-0.162276	0.977938	0.131543
06853		0.054277	0.143879	-0.988106	-0.985663	-0.150602	-0.076072	-0.159756	0.978069	0.133642
06854		0.056895	0.146248	-0.987610	-0.985916	-0.147589	-0.078653	-0.157263	0.978176	0.135791
06855		0.059528	0.148636	-0.987099	-0.986166	-0.144494	-0.081230	-0.154704	0.978278	0.137978
06856		0.062157	0.151067	-0.986567	-0.986423	-0.141250	-0.083776	-0.152009	0.978380	0.140237
06857		0.064777	0.153662	-0.985998	-0.986712	-0.137675	-0.086280	-0.149005	0.978485	0.142702
06858		0.067408	0.156363	-0.985397	-0.987041	-0.133704	-0.088736	-0.145626	0.978608	0.145324
06859		0.070057	0.159098	-0.984774	-0.987356	-0.129664	-0.091189	-0.142198	0.978711	0.148003
06860		0.072841	0.162015	-0.984096	-0.987660	-0.125448	-0.093758	-0.138643	0.978782	0.150878
06861		0.075633	0.165157	-0.983363	-0.987992	-0.120839	-0.096284	-0.134730	0.978837	0.154034
06862		0.078416	0.168540	-0.982571	-0.988350	-0.115818	-0.098744	-0.130442	0.978867	0.157495
06863		0.081118	0.172045	-0.981743	-0.988688	-0.110785	-0.101106	-0.126158	0.978840	0.161113
06864		0.083754	0.175623	-0.980888	-0.988977	-0.105966	-0.103417	-0.122104	0.978738	0.164812
06865		0.086398	0.179289	-0.979995	-0.989186	-0.101585	-0.105794	-0.118521	0.978538	0.168573
06866		0.089044	0.182991	-0.979074	-0.989361	-0.097287	-0.108163	-0.115044	0.978289	0.172382
06867		0.091645	0.186759	-0.978122	-0.989511	-0.093065	-0.110481	-0.111662	0.977988	0.176271
06868		0.094321	0.190536	-0.977138	-0.989611	-0.089028	-0.112885	-0.108502	0.977635	0.180159
06869		0.096994	0.194224	-0.976150	-0.989682	-0.085099	-0.115271	-0.105457	0.977259	0.183966
06870		0.099600	0.197778	-0.975174	-0.989710	-0.081492	-0.117612	-0.102730	0.976854	0.187627
06871		0.102223	0.201145	-0.974213	-0.989715	-0.077958	-0.119946	-0.100075	0.976454	0.191107
06872		0.104857	0.204420	-0.973251	-0.989746	-0.073999	-0.122177	-0.096995	0.976082	0.194565
06873		0.107501	0.207602	-0.972289	-0.989801	-0.069601	-0.124298	-0.093477	0.975734	0.198003
06874		0.110092	0.210600	-0.971353	-0.989875	-0.064865	-0.126255	-0.089596	0.975418	0.201327
06875		0.112516	0.213334	-0.970479	-0.989943	-0.060215	-0.128009	-0.085746	0.975122	0.204413
06876		0.114863	0.215888	-0.969638	-0.989981	-0.055818	-0.129701	-0.082124	0.974821	0.207314
06877		0.117191	0.218361	-0.968806	-0.990013	-0.051288	-0.131316	-0.078362	0.974519	0.210169
06878		0.119579	0.220841	-0.967951	-0.990043	-0.046409	-0.132897	-0.074271	0.974205	0.213093
06879		0.121954	0.223250	-0.967102	-0.990069	-0.041287	-0.134381	-0.069930	0.973887	0.215998
06880		0.124294	0.225495	-0.966283	-0.990085	-0.036050	-0.135768	-0.065449	0.973577	0.218778
06881		0.126616	0.227576	-0.965493	-0.990068	-0.030965	-0.137138	-0.061106	0.973268	0.221395
06882		0.129073	0.229536	-0.964704	-0.990001	-0.025997	-0.138643	-0.056903	0.972953	0.223885
06883		0.131660	0.231363	-0.963917	-0.989882	-0.021215	-0.140299	-0.052910	0.972636	0.226229
06884		0.134287	0.233033	-0.963152	-0.989729	-0.016541	-0.141994	-0.049021	0.972328	0.228419
06885		0.137045	0.234503	-0.962407	-0.989526	-0.012078	-0.143850	-0.045357	0.972040	0.230391
06886		0.140046	0.235722	-0.961677	-0.989265	-0.007634	-0.145935	-0.041742	0.971790	0.232123
06887		0.143232	0.236824	-0.960936	-0.988966	-0.002853	-0.148114	-0.037818	0.971548	0.233802
06888		0.146686	0.237867	-0.960157	-0.988616	0.002385	-0.150443	-0.033495	0.971295	0.235509
06889		0.150368	0.238975	-0.959312	-0.988217	0.008289	-0.152834	-0.028572	0.970990	0.237406
06890		0.154275	0.240108	-0.958409	-0.987757	0.014756	-0.155302	-0.023147	0.970634	0.239445
06891		0.158368	0.241346	-0.957430	-0.987230	0.021776	-0.157809	-0.017238	0.970195	0.241713
06892		0.162701	0.242720	-0.956355	-0.986618	0.029582	-0.160342	-0.010627	0.969645	0.244285
06893		0.167182	0.244184	-0.955209	-0.985920	0.038033	-0.162834	-0.003432	0.968983	0.247104
06894		0.171860	0.245695	-0.953991	-0.985113	0.046878	-0.165393	0.004085	0.968213	0.250093
06895		0.176611	0.247225	-0.952727	-0.984211	0.055887	-0.167946	0.011725	0.967345	0.253191
06896		0.181369	0.248815	-0.951418	-0.983220	0.065167	-0.170389	0.019606	0.966356	0.256459
06897		0.186104	0.250354	-0.950099	-0.982147	0.074414	-0.172774	0.027446	0.965290	0.259733
06898		0.190804	0.251767	-0.948793	-0.980997	0.083550	-0.175110	0.035185	0.964175	0.262924
06899		0.195267	0.253004	-0.947555	-0.979820	0.092387	-0.177248	0.042697	0.963044	0.265939
06900		0.199660	0.254096	-0.946346	-0.978600	0.100764	-0.179410	0.049770	0.961916	0.268777
06901		0.203867	0.255227	-0.945144	-0.977365	0.108811	-0.181434	0.056535	0.960739	0.271633
06902		0.208042	0.256369	-0.943924	-0.976080	0.116700	-0.183434	0.063130	0.959508	0.274516
06903		0.212150	0.257442	-0.942717	-0.974747	0.124567	-0.185341	0.069716	0.958231	0.277368
06904		0.216275	0.258456	-0.941502	-0.973360	0.132273	-0.187283	0.076131	0.956924	0.280178
06905		0.220411	0.259322	-0.940304	-0.971923	0.139792	-0.189270	0.082365	0.955620	0.282853
06906		0.224638	0.260134	-0.939078	-0.970415	0.147244	-0.191346	0.088498	0.954280	0.285514
06907		0.228788	0.260905	-0.937862	-0.968871	0.154630	-0.193336	0.094579	0.952900	0.288161
06908		0.232818	0.261663	-0.936658	-0.967286	0.162097	-0.195148	0.100767	0.951450	0.290842
06909		0.236623	0.262234	-0.935544	-0.965694	0.169492	-0.196740	0.106975	0.950003	0.293343
06910		0.240429	0.262540	-0.934487	-0.964084	0.176520	-0.198451	0.112855	0.948638	0.295551
06911		0.244229	0.262556	-0.933497	-0.962467	0.183127	-0.200302	0.118358	0.947380	0.297426
06912		0.248105	0.262353	-0.932531	-0.960817	0.189458	-0.202329	0.123594	0.946190	0.299079
06913		0.251885	0.262034	-0.931607	-0.959143	0.195753	-0.204270	0.128839	0.944997	0.300635
06914		0.255645	0.261665	-0.930686	-0.957430	0.202018	-0.206194	0.134061	0.943780	0.302171
06915		0.259112	0.261177	-0.929864	-0.955745	0.208218	-0.207840	0.139331	0.942567	0.303570
06916		0.262382	0.260740	-0.929070	-0.954114	0.214077	-0.209375	0.144300	0.941374	0.304946
06917		0.265298	0.260125	-0.928414	-0.952560	0.219674	-0.210648	0.149154	0.940254	0.306064
06918		0.268150	0.259467	-0.927778	-0.951034	0.224961	-0.211958	0.153717	0.939186	0.307086
06919		0.270765	0.258712	-0.927229	-0.949589	0.229883	-0.213153	0.158009	0.938201	0.307914
06920		0.273459	0.257796	-0.926694	-0.948156	0.234427	-0.214577	0.161924	0.937329	0.308537
06921		0.276066	0.256703	-0.926224	-0.946762	0.238682	-0.216037	0.165616	0.936555	0.308928
06922		0.278743	0.255498	-0.925755	-0.945368	0.242694	-0.217667	0.169062	0.935853	0.309189
06923		0.281364	0.254179	-0.925326	-0.943961	0.246701	-0.219264	0.172547	0.935164	0.309348
06924		0.283996	0.252802	-0.924899	-0.942514	0.250771	-0.220862	0.176104	0.934454	0.309487
06925		0.286527	0.251387	-0.924503	-0.941073	0.254815	-0.222375	0.179676	0.933742	0.309585
06926		0.289219	0.250030	-0.924033	-0.939581	0.258819	-0.224053	0.183137	0.933005	0.309779
06927		0.291813	0.248657	-0.923588	-0.938061	0.262969	-0.225586	0.186781	0.932211	0.309993
06928		0.294514	0.247312	-0.923092	-0.936455	0.267299	-0.227163	0.190562	0.931337	0.310320
06929		0.297055	0.245977	-0.922634	-0.934837	0.271759	-0.228532	0.194521	0.930399	0.310676
06930		0.299673	0.244760	-0.922111	-0.933176	0.276239	-0.229945	0.198442	0.929400	0.311185
06931		0.302181	0.243622	-0.921594	-0.931486	0.280878	-0.231174	0.202536	0.928308	0.311807
06932		0.304691	0.242455	-0.921075	-0.929758	0.285555	-0.232396	0.206672	0.927186	0.312430
06933		0.306982	0.241239	-0.920633	-0.928069	0.290173	-0.233425	0.210832	0.926069	0.312964
06934		0.309343	0.239948	-0.920180	-0.926394	0.294521	-0.234632	0.214713	0.925031	0.313395
06935		0.311644	0.238584	-0.919758	-0.924751	0.298673	-0.235861	0.218435	0.924052	0.313710
06936		0.314128	0.237279	-0.919251	-0.923027	0.302886	-0.237237	0.222137	0.923016	0.314160
06937		0.316539	0.235951	-0.918766	-0.921266	0.307223	-0.238502	0.225992	0.921922	0.314622
06938		0.319022	0.234643	-0.918242	-0.919382	0.311883	-0.239721	0.230135	0.920691	0.315224
06939		0.321415	0.233366	-0.917732	-0.917427	0.316810	-0.240748	0.234564	0.919332	0.315923
06940		0.323967	0.232206	-0.917129	-0.915312	0.322103	-0.241773	0.239269	0.917785	0.316892
06941		0.326352	0.231036	-0.916579	-0.913119	0.327722	-0.242514	0.244354	0.916090	0.317915
06942		0.328979	0.229909	-0.915923	-0.910852	0.333244	-0.243509	0.249241	0.914380	0.319044
06943		0.331636	0.228800	-0.915242	-0.908517	0.338852	-0.244490	0.254192	0.912595	0.320244
06944		0.334507	0.227704	-0.914470	-0.906032	0.344652	-0.245602	0.259249	0.910695	0.321596
06945		0.337338	0.226579	-0.913710	-0.903444	0.350694	-0.246584	0.264562	0.908667	0.323004
06946		0.340326	0.225480	-0.912873	-0.900779	0.356703	-0.247711	0.269771	0.906599	0.324503
06947		0.343221	0.224293	-0.912081	-0.898113	0.362625	-0.248790	0.274941	0.904542	0.325901
06948		0.346304	0.223219	-0.911179	-0.895269	0.368841	-0.249899	0.280298	0.902292	0.327572
06949		0.349350	0.222081	-0.910294	-0.892382	0.375054	-0.250976	0.285672	0.900008	0.329206
06950		0.352565	0.220937	-0.909332	-0.889361	0.381382	-0.252159	0.291092	0.897627	0.330955
06951		0.355780	0.219833	-0.908347	-0.886331	0.387593	-0.253354	0.296373	0.895235	0.332743
06952		0.359227	0.218846	-0.907228	-0.883134	0.393993	-0.254646	0.301713	0.892679	0.334803
06953		0.362538	0.217855	-0.906149	-0.879887	0.400491	-0.255746	0.307188	0.890026	0.336881
06954		0.365993	0.216948	-0.904977	-0.876523	0.407077	-0.256898	0.312662	0.887255	0.339147
06955		0.369332	0.215987	-0.903849	-0.873173	0.413543	-0.257975	0.318061	0.884495	0.341329
06956		0.372800	0.215051	-0.902648	-0.869770	0.419913	-0.259179	0.323297	0.881717	0.343589
06957		0.376260	0.213948	-0.901474	-0.866443	0.425893	-0.260560	0.328185	0.879114	0.345620
06958		0.379873	0.212794	-0.900231	-0.863097	0.431661	-0.262168	0.332807	0.876577	0.347639
06959		0.383482	0.211624	-0.898976	-0.859877	0.436977	-0.263937	0.336976	0.874223	0.349543
06960		0.387254	0.210450	-0.897633	-0.856569	0.442285	-0.265845	0.341063	0.871834	0.351542
06961		0.390948	0.209348	-0.896288	-0.853213	0.447685	-0.267592	0.345235	0.869340	0.353640
06962		0.394693	0.208384	-0.894871	-0.849754	0.453236	-0.269251	0.349480	0.866691	0.355964
06963		0.398368	0.207573	-0.893429	-0.846245	0.458893	-0.270714	0.353796	0.863904	0.358466
06964		0.402185	0.206824	-0.891892	-0.842550	0.464805	-0.272150	0.358269	0.860918	0.361198
06965		0.405907	0.206243	-0.890339	-0.838890	0.470637	-0.273431	0.362634	0.857884	0.364050
06966		0.409768	0.205707	-0.888693	-0.835186	0.476375	-0.274829	0.366817	0.854840	0.367007
06967		0.413517	0.205282	-0.887053	-0.831589	0.481875	-0.276146	0.370761	0.851854	0.369974
06968		0.417413	0.205036	-0.885283	-0.827951	0.487321	-0.277515	0.374516	0.848810	0.373174
06969		0.421158	0.204785	-0.883566	-0.824476	0.492417	-0.278865	0.377976	0.845925	0.376225
06970		0.425047	0.204566	-0.881753	-0.821027	0.497281	-0.280405	0.381118	0.843128	0.379322
06971		0.428683	0.204323	-0.880047	-0.817830	0.501685	-0.281899	0.383908	0.840574	0.382166
06972		0.432521	0.204013	-0.878239	-0.814619	0.505891	-0.283672	0.386420	0.838125	0.385001
06973		0.436150	0.203633	-0.876531	-0.811489	0.509985	-0.285308	0.388920	0.835732	0.387676
06974		0.440128	0.203205	-0.874640	-0.808275	0.513940	-0.287328	0.391126	0.833411	0.390445
06975		0.444124	0.202522	-0.872776	-0.805015	0.517834	-0.289482	0.393326	0.831164	0.393016
06976		0.448454	0.201731	-0.870743	-0.801469	0.521991	-0.291843	0.395646	0.828752	0.395770
06977		0.453000	0.200881	-0.868584	-0.797767	0.526229	-0.294363	0.397942	0.826274	0.398638
06978		0.458009	0.200037	-0.866148	-0.793722	0.530771	-0.297130	0.400290	0.823570	0.401872
06979		0.463318	0.199355	-0.863478	-0.789429	0.535576	-0.299934	0.402665	0.820619	0.405518
06980		0.468860	0.198715	-0.860629	-0.784828	0.540751	-0.302708	0.405234	0.817374	0.409494
06981		0.474473	0.198251	-0.857655	-0.779865	0.546558	-0.305099	0.408272	0.813616	0.413936
06982		0.480105	0.197821	-0.854614	-0.774581	0.552877	-0.307168	0.411732	0.809441	0.418667
06983		0.485503	0.197435	-0.851649	-0.769260	0.559320	-0.308870	0.415362	0.805097	0.423430
06984		0.490892	0.196939	-0.848670	-0.763868	0.565738	-0.310557	0.418964	0.800722	0.428151
06985		0.496205	0.196250	-0.845735	-0.758471	0.572021	-0.312271	0.422495	0.796416	0.432689
06986		0.501607	0.195358	-0.842749	-0.753022	0.578142	-0.314181	0.425851	0.792204	0.437109
06987		0.506997	0.194377	-0.839745	-0.747530	0.584191	-0.316099	0.429130	0.787996	0.441486
06988		0.512393	0.193204	-0.836735	-0.741869	0.590352	-0.317986	0.432532	0.783682	0.445824
06989		0.517492	0.191925	-0.833886	-0.736308	0.596369	-0.319678	0.435950	0.779428	0.449933
06990		0.522485	0.190611	-0.831070	-0.730803	0.602227	-0.321324	0.439245	0.775236	0.453953
06991		0.527410	0.189354	-0.828241	-0.725241	0.608139	-0.322787	0.442565	0.770916	0.458066
06992		0.532391	0.187996	-0.825359	-0.719471	0.614219	-0.324185	0.446005	0.766416	0.462262
06993		0.537451	0.186556	-0.822401	-0.713450	0.620520	-0.325490	0.449594	0.761677	0.466598
06994		0.542620	0.185040	-0.819343	-0.707044	0.627237	-0.326593	0.453489	0.756528	0.471183
06995		0.547797	0.183457	-0.816249	-0.700405	0.634163	-0.327520	0.457549	0.751119	0.475887
06996		0.552976	0.181815	-0.813118	-0.693561	0.641251	-0.328284	0.461726	0.745480	0.480696
06997		0.557997	0.180152	-0.810052	-0.686823	0.648113	-0.328974	0.465740	0.739929	0.485378
06998		0.563008	0.178474	-0.806950	-0.680039	0.654904	-0.329616	0.469647	0.734335	0.490086
06999		0.567900	0.176765	-0.803893	-0.673319	0.661522	-0.330197	0.473426	0.728795	0.494697
07000		0.572771	0.174936	-0.800831	-0.666546	0.668050	-0.330795	0.477128	0.723261	0.499243
07001		0.577546	0.173054	-0.797805	-0.659846	0.674374	-0.331394	0.480670	0.717824	0.503671
07002		0.582228	0.171126	-0.794812	-0.653156	0.680598	-0.331925	0.484146	0.712392	0.508035
07003		0.586857	0.169091	-0.791838	-0.646480	0.686667	-0.332495	0.487507	0.707034	0.512289
07004		0.591412	0.167023	-0.788882	-0.639817	0.692629	-0.333016	0.490782	0.701690	0.516493
07005		0.595934	0.164852	-0.785931	-0.633096	0.698533	-0.333527	0.494016	0.696330	0.520647
07006		0.600379	0.162614	-0.783008	-0.626273	0.704483	-0.333895	0.497320	0.690840	0.524797
07007		0.604710	0.160294	-0.780149	-0.619502	0.710277	-0.334252	0.500543	0.685429	0.528814
07008		0.608955	0.157791	-0.777352	-0.612713	0.715954	-0.334653	0.503743	0.680082	0.532664
07009		0.613199	0.155222	-0.774528	-0.605790	0.721670	-0.334979	0.506957	0.674610	0.536559
07010		0.617388	0.152510	-0.771734	-0.598683	0.727483	-0.335182	0.510305	0.668961	0.540444
07011		0.621591	0.149696	-0.768905	-0.591461	0.733274	-0.335385	0.513612	0.663250	0.544336
07012		0.625782	0.146733	-0.766072	-0.584052	0.739125	-0.335524	0.516991	0.657391	0.548231
07013		0.629883	0.143702	-0.763280	-0.576636	0.744882	-0.335620	0.520325	0.651537	0.552053
07014		0.633924	0.140496	-0.760527	-0.569093	0.750630	-0.335690	0.523711	0.645612	0.555798
07015		0.637875	0.137241	-0.757813	-0.561593	0.756228	-0.335757	0.526999	0.639753	0.559453
07016		0.641751	0.133824	-0.755147	-0.554070	0.761702	-0.335882	0.530248	0.633957	0.562971
07017		0.645513	0.130335	-0.752546	-0.546625	0.766991	-0.336043	0.533399	0.628281	0.566347
07018		0.649143	0.126846	-0.750016	-0.539210	0.772202	-0.336091	0.536532	0.622586	0.569666
07019		0.652724	0.123404	-0.747477	-0.531871	0.777259	-0.336128	0.539504	0.616960	0.572971
07020		0.656196	0.119993	-0.744989	-0.524594	0.782209	-0.336081	0.542410	0.611352	0.576230
07021		0.659540	0.116638	-0.742565	-0.517505	0.786936	-0.336036	0.545157	0.605910	0.579376
07022		0.662795	0.113379	-0.740167	-0.510520	0.791540	-0.335906	0.547788	0.600507	0.582511
07023		0.665908	0.110199	-0.737850	-0.503640	0.796047	-0.335644	0.550376	0.595118	0.585594
07024		0.668881	0.107112	-0.735612	-0.496838	0.800492	-0.335209	0.552947	0.589695	0.588651
07025		0.671734	0.104105	-0.733441	-0.490250	0.804721	-0.334782	0.555363	0.584454	0.591596
07026		0.674516	0.101122	-0.731302	-0.483746	0.808830	-0.334342	0.557689	0.579283	0.594486
07027		0.677183	0.098252	-0.729225	-0.477428	0.812779	-0.333846	0.559898	0.574227	0.597308
07028		0.679735	0.095479	-0.727216	-0.471221	0.816642	-0.333235	0.562059	0.569192	0.600092
07029		0.682262	0.092806	-0.725193	-0.465182	0.820330	-0.332662	0.564025	0.564310	0.602852
07030		0.684650	0.090225	-0.723266	-0.459512	0.823696	-0.332224	0.565777	0.559807	0.605403
07031		0.686998	0.087646	-0.721354	-0.454249	0.826629	-0.332177	0.567179	0.555879	0.607706
07032		0.689374	0.085039	-0.719397	-0.449007	0.829471	-0.332219	0.568467	0.552038	0.609999
07033		0.691718	0.082520	-0.717438	-0.443775	0.832317	-0.332132	0.569728	0.548123	0.612349
07034		0.694053	0.080085	-0.715455	-0.438403	0.835295	-0.331789	0.571045	0.543937	0.614849
07035		0.696447	0.077872	-0.713371	-0.433043	0.838296	-0.331260	0.572220	0.539625	0.617551
07036		0.698855	0.075896	-0.711225	-0.427845	0.841206	-0.330637	0.573193	0.535362	0.620353
07037		0.701226	0.074105	-0.709078	-0.422957	0.843893	-0.330079	0.573925	0.531369	0.623102
07038		0.703453	0.072365	-0.707048	-0.418543	0.846196	-0.329808	0.574435	0.527935	0.625547
07039		0.705607	0.070538	-0.705084	-0.414606	0.848029	-0.330074	0.574649	0.525235	0.627620
07040		0.707833	0.069044	-0.702997	-0.411040	0.849628	-0.330423	0.574472	0.522844	0.629774
07041		0.710078	0.067619	-0.700868	-0.407684	0.851045	-0.330933	0.574092	0.520721	0.631876
07042		0.712274	0.066256	-0.698768	-0.404307	0.852516	-0.331288	0.573761	0.518485	0.634012
07043		0.714372	0.065044	-0.696736	-0.401084	0.853949	-0.331515	0.573414	0.516275	0.636126
07044		0.716420	0.063995	-0.694728	-0.398070	0.855281	-0.331716	0.572959	0.514198	0.638215
07045		0.718355	0.063062	-0.692812	-0.395344	0.856449	-0.331962	0.572424	0.512366	0.640165
07046		0.720319	0.062166	-0.690852	-0.392659	0.857576	-0.332239	0.571804	0.510588	0.642138
07047		0.722167	0.061311	-0.688996	-0.390213	0.858551	-0.332600	0.571146	0.509049	0.643942
07048		0.723986	0.060419	-0.687163	-0.387853	0.859438	-0.333071	0.570451	0.507657	0.645655
07049		0.725741	0.059478	-0.685392	-0.385581	0.860244	-0.333629	0.569761	0.506402	0.647247
07050		0.727473	0.058417	-0.683645	-0.383270	0.861028	-0.334268	0.569110	0.505192	0.648764
07051		0.729222	0.057223	-0.681881	-0.380883	0.861800	-0.335005	0.568475	0.504010	0.650239
07052		0.731035	0.055912	-0.680046	-0.378286	0.862664	-0.335723	0.567880	0.502677	0.651788
07053		0.732971	0.054436	-0.678078	-0.375448	0.863596	-0.336512	0.567267	0.501237	0.653430
07054		0.735008	0.052873	-0.675994	-0.372313	0.864691	-0.337184	0.566698	0.499514	0.655239
07055		0.737162	0.051148	-0.673778	-0.368773	0.865995	-0.337726	0.566214	0.497430	0.657241
07056		0.739409	0.049187	-0.671458	-0.364797	0.867506	-0.338166	0.565860	0.494989	0.659385
07057		0.741773	0.047112	-0.668994	-0.360495	0.869171	-0.338504	0.565523	0.492262	0.661712
07058		0.744319	0.044876	-0.666315	-0.355725	0.871057	-0.338703	0.565198	0.489128	0.664307
07059		0.746946	0.042665	-0.663515	-0.350683	0.873125	-0.338635	0.564883	0.485625	0.667139
07060		0.749637	0.040391	-0.660616	-0.345262	0.875427	-0.338263	0.564658	0.481660	0.670197
07061		0.752348	0.038074	-0.657664	-0.339743	0.877746	-0.337840	0.564399	0.477611	0.673306
07062		0.755180	0.035579	-0.654551	-0.333927	0.880135	-0.337424	0.564089	0.473388	0.676541
07063		0.758094	0.032971	-0.651311	-0.328055	0.882438	-0.337169	0.563625	0.469272	0.679787
07064		0.761095	0.030260	-0.647934	-0.321905	0.884840	-0.336802	0.563126	0.464912	0.683188
07065		0.764188	0.027509	-0.644406	-0.315579	0.887283	-0.336361	0.562518	0.460404	0.686732
07066		0.767281	0.024563	-0.640841	-0.309090	0.889711	-0.335973	0.561911	0.455863	0.690250
07067		0.770400	0.021616	-0.637194	-0.302697	0.892003	-0.335717	0.561122	0.451513	0.693742
07068		0.773428	0.018706	-0.633608	-0.296498	0.894153	-0.335529	0.560266	0.447371	0.697109
07069		0.776454	0.015680	-0.629979	-0.290313	0.896188	-0.335508	0.559319	0.443397	0.700401
07070		0.779500	0.012429	-0.626279	-0.283997	0.898155	-0.335654	0.558324	0.439504	0.703641
07071		0.782528	0.008981	-0.622551	-0.277589	0.900051	-0.335936	0.557310	0.435693	0.706808
07072		0.785554	0.005382	-0.618770	-0.271018	0.901944	-0.336224	0.556286	0.431820	0.709984
07073		0.788567	0.001775	-0.614946	-0.264386	0.903836	-0.336423	0.555213	0.427876	0.713205
07074		0.791521	-0.001828	-0.611140	-0.257714	0.905737	-0.336488	0.554147	0.423836	0.716439
07075		0.794369	-0.005333	-0.607413	-0.251176	0.907584	-0.336454	0.553072	0.419836	0.719617
07076		0.797120	-0.008770	-0.603757	-0.244797	0.909343	-0.336406	0.551973	0.415954	0.722709
07077		0.799783	-0.012158	-0.600166	-0.238712	0.910902	-0.336562	0.550784	0.412443	0.725622
07078		0.802422	-0.015668	-0.596551	-0.232538	0.912428	-0.336750	0.549586	0.408937	0.728509
07079		0.805081	-0.019035	-0.592860	-0.226397	0.913959	-0.336784	0.548260	0.405360	0.731501
07080		0.807657	-0.022486	-0.589224	-0.220144	0.915519	-0.336692	0.547016	0.401646	0.734475
07081		0.810116	-0.025892	-0.585698	-0.214086	0.916970	-0.336651	0.545784	0.398116	0.737309
07082		0.812476	-0.029343	-0.582256	-0.208197	0.918272	-0.336794	0.544552	0.394861	0.739965
07083		0.814727	-0.032650	-0.578925	-0.202590	0.919464	-0.336962	0.543303	0.391817	0.742497
07084		0.816853	-0.035905	-0.575727	-0.197160	0.920576	-0.337146	0.542106	0.388909	0.744897
07085		0.818915	-0.039035	-0.572586	-0.191938	0.921608	-0.337339	0.540868	0.386153	0.747226
07086		0.820894	-0.042001	-0.569534	-0.187093	0.922474	-0.337694	0.539564	0.383767	0.749396
07087		0.822748	-0.044887	-0.566632	-0.182484	0.923247	-0.338104	0.538317	0.381576	0.751408
07088		0.824477	-0.047702	-0.563881	-0.178037	0.923977	-0.338481	0.537159	0.379461	0.753305
07089		0.826086	-0.050361	-0.561290	-0.173849	0.924647	-0.338827	0.536059	0.377480	0.755083
07090		0.827622	-0.053007	-0.558777	-0.169779	0.925253	-0.339238	0.534992	0.375629	0.756760
07091		0.829115	-0.055522	-0.556314	-0.165931	0.925783	-0.339695	0.533887	0.373956	0.758368
07092		0.830529	-0.057870	-0.553960	-0.162269	0.926302	-0.340049	0.532813	0.372311	0.759930
07093		0.831851	-0.060176	-0.551726	-0.158789	0.926744	-0.340488	0.531798	0.370843	0.761358
07094		0.833027	-0.062357	-0.549707	-0.155531	0.927158	-0.340865	0.530921	0.369446	0.762649
07095		0.834111	-0.064415	-0.547823	-0.152445	0.927555	-0.341177	0.530113	0.368092	0.763864
07096		0.835098	-0.066311	-0.546090	-0.149473	0.928006	-0.341265	0.529404	0.366616	0.765065
07097		0.835954	-0.068029	-0.544567	-0.146830	0.928389	-0.341372	0.528793	0.365330	0.766102
07098		0.836726	-0.069536	-0.543189	-0.144482	0.928729	-0.341449	0.528218	0.364181	0.767045
07099		0.837390	-0.070805	-0.542001	-0.142508	0.929002	-0.341536	0.527702	0.363238	0.767846
07100		0.837902	-0.071955	-0.541057	-0.140887	0.929169	-0.341753	0.527324	0.362584	0.768416
07101		0.838280	-0.072963	-0.540335	-0.139596	0.929255	-0.342050	0.527066	0.362162	0.768791
07102		0.838506	-0.073913	-0.539856	-0.138543	0.929278	-0.342415	0.526985	0.361911	0.768965
07103		0.838648	-0.074730	-0.539523	-0.137645	0.929314	-0.342679	0.526995	0.361650	0.769081
07104		0.838739	-0.075350	-0.539295	-0.136914	0.929381	-0.342789	0.527040	0.361348	0.769192
07105		0.838778	-0.075776	-0.539174	-0.136421	0.929432	-0.342849	0.527106	0.361129	0.769250
07106		0.838766	-0.076116	-0.539146	-0.136140	0.929413	-0.343012	0.527198	0.361106	0.769197
07107		0.838659	-0.076283	-0.539288	-0.136146	0.929350	-0.343181	0.527366	0.361234	0.769022
07108		0.838540	-0.076201	-0.539484	-0.136405	0.929276	-0.343278	0.527488	0.361441	0.768841
07109		0.838429	-0.075946	-0.539693	-0.136820	0.929202	-0.343312	0.527557	0.361684	0.768680
07110		0.838358	-0.075457	-0.539873	-0.137341	0.929187	-0.343145	0.527536	0.361824	0.768628
07111		0.838361	-0.074668	-0.539977	-0.137996	0.929237	-0.342746	0.527359	0.361860	0.768733
07112		0.838385	-0.073572	-0.540090	-0.138890	0.929308	-0.342192	0.527086	0.361902	0.768900
07113		0.838487	-0.072114	-0.540129	-0.140033	0.929402	-0.341471	0.526622	0.361955	0.769193
07114		0.838708	-0.070359	-0.540017	-0.141350	0.929509	-0.340637	0.525918	0.362027	0.769641
07115		0.838955	-0.068387	-0.539887	-0.142940	0.929548	-0.339867	0.525093	0.362304	0.770073
07116		0.839162	-0.066200	-0.539838	-0.144766	0.929572	-0.339027	0.524262	0.362649	0.770477
07117		0.839394	-0.063890	-0.539755	-0.146625	0.929632	-0.338061	0.523372	0.362908	0.770960
07118		0.839542	-0.061359	-0.539819	-0.148546	0.929817	-0.336711	0.522594	0.362871	0.771505
07119		0.839867	-0.058298	-0.539652	-0.150768	0.930037	-0.335112	0.521433	0.362812	0.772318
07120		0.840061	-0.054741	-0.539723	-0.153543	0.930223	-0.333332	0.520310	0.362890	0.773039
07121		0.840599	-0.050281	-0.539318	-0.157146	0.930220	-0.331656	0.518361	0.363542	0.774041
07122		0.841123	-0.045710	-0.538909	-0.160876	0.930175	-0.329990	0.516363	0.364259	0.775038
07123		0.841537	-0.040795	-0.538657	-0.164936	0.930125	-0.328121	0.514404	0.364970	0.776006
07124		0.841879	-0.035479	-0.538500	-0.169415	0.930019	-0.326135	0.512386	0.365796	0.776952
07125		0.842211	-0.029711	-0.538328	-0.174367	0.929810	-0.324114	0.510173	0.366840	0.777916
07126		0.842500	-0.023534	-0.538182	-0.179616	0.929603	-0.321831	0.507870	0.367809	0.778964
07127		0.842753	-0.017103	-0.538028	-0.185079	0.929355	-0.319445	0.505483	0.368791	0.780051
07128		0.842877	-0.010378	-0.538006	-0.190899	0.929017	-0.316994	0.503106	0.369892	0.781066
07129		0.842908	-0.003077	-0.538050	-0.197341	0.928531	-0.314464	0.500563	0.371243	0.782058
07130		0.842900	0.004660	-0.538050	-0.204161	0.927955	-0.311797	0.497834	0.372662	0.783125
07131		0.842710	0.013028	-0.538211	-0.211546	0.927308	-0.308784	0.495065	0.374071	0.784208
07132		0.842259	0.021919	-0.538628	-0.219613	0.926451	-0.305710	0.492311	0.375776	0.785125
07133		0.841617	0.031074	-0.539180	-0.228113	0.925373	-0.302735	0.489536	0.377781	0.785899
07134		0.840699	0.040411	-0.539992	-0.237132	0.923984	-0.300037	0.486820	0.380290	0.786375
07135		0.839529	0.050208	-0.540989	-0.246741	0.922351	-0.297300	0.484055	0.383076	0.786729
07136		0.838045	0.060524	-0.542234	-0.256799	0.920619	-0.294133	0.481389	0.385742	0.787063
07137		0.836198	0.071447	-0.543753	-0.267517	0.918660	-0.290686	0.478756	0.388534	0.787295
07138		0.834111	0.083024	-0.545312	-0.278691	0.916577	-0.286737	0.476014	0.391145	0.787665
07139		0.831651	0.095001	-0.547112	-0.290409	0.914190	-0.282702	0.473308	0.393995	0.787875
07140		0.828658	0.107637	-0.549309	-0.303100	0.911303	-0.278670	0.470592	0.397417	0.787783
07141		0.825251	0.120907	-0.551672	-0.316368	0.908136	-0.274225	0.467838	0.400836	0.787692
07142		0.821339	0.134586	-0.554337	-0.330255	0.904536	-0.269716	0.465118	0.404600	0.787378
07143		0.816759	0.148542	-0.557530	-0.344868	0.900369	-0.265333	0.462570	0.408987	0.786612
07144		0.811674	0.163073	-0.560885	-0.360200	0.895663	-0.260850	0.459826	0.413757	0.785726
07145		0.806090	0.178083	-0.564362	-0.376043	0.890504	-0.256114	0.456957	0.418675	0.784794
07146		0.799917	0.193686	-0.567996	-0.392429	0.884896	-0.250915	0.454019	0.423609	0.783851
07147		0.792972	0.209829	-0.571986	-0.409287	0.878897	-0.244997	0.451309	0.428382	0.782821
07148		0.784962	0.226674	-0.576588	-0.426976	0.872282	-0.238362	0.448916	0.433294	0.781492
07149		0.775709	0.244368	-0.581858	-0.445532	0.865040	-0.230666	0.446964	0.438166	0.779894
07150		0.765215	0.263074	-0.587570	-0.465211	0.856853	-0.222222	0.445000	0.443391	0.778061
07151		0.753747	0.282273	-0.593454	-0.485730	0.847561	-0.213790	0.442641	0.449402	0.775955
07152		0.741590	0.301714	-0.599177	-0.506906	0.837051	-0.205892	0.439421	0.456414	0.773689
07153		0.728756	0.321275	-0.604729	-0.528532	0.825399	-0.198422	0.435394	0.464219	0.771318
07154		0.715289	0.340936	-0.610020	-0.550425	0.812697	-0.191199	0.430574	0.472532	0.768973
07155		0.701160	0.360552	-0.615124	-0.572063	0.799419	-0.183502	0.425580	0.480554	0.766779
07156		0.686175	0.380353	-0.620077	-0.593605	0.785483	-0.175068	0.420473	0.488208	0.764758
07157		0.670180	0.400360	-0.624957	-0.614882	0.771077	-0.165409	0.415667	0.495129	0.762934
07158		0.652919	0.420949	-0.629682	-0.636311	0.755795	-0.154537	0.410858	0.501573	0.761327
07159		0.634217	0.441906	-0.634420	-0.657838	0.739559	-0.142486	0.406225	0.507713	0.759743
07160		0.614068	0.462965	-0.639205	-0.679594	0.721988	-0.129945	0.401338	0.514195	0.757978
07161		0.593023	0.483790	-0.643639	-0.701050	0.703415	-0.117199	0.396045	0.520725	0.756303
07162		0.571251	0.504256	-0.647610	-0.722028	0.683951	-0.104342	0.390318	0.527197	0.754794
07163		0.548740	0.524115	-0.651296	-0.742279	0.663860	-0.091171	0.384585	0.533473	0.753327
07164		0.525353	0.543229	-0.654910	-0.761943	0.642941	-0.077912	0.378744	0.539935	0.751680
07165		0.500929	0.561804	-0.658367	-0.781008	0.621219	-0.064138	0.372957	0.546319	0.749960
07166		0.475272	0.579850	-0.661732	-0.799534	0.598556	-0.049753	0.367235	0.552724	0.748088
07167		0.448341	0.597295	-0.665004	-0.817290	0.575201	-0.034376	0.361978	0.558912	0.746049
07168		0.420272	0.614212	-0.667919	-0.834308	0.550996	-0.018278	0.356794	0.564932	0.744010
07169		0.391456	0.630690	-0.670069	-0.850358	0.526203	-0.001502	0.351645	0.570387	0.742297
07170		0.361901	0.646598	-0.671520	-0.865524	0.500624	0.015590	0.346259	0.575575	0.740823
07171		0.331742	0.661656	-0.672428	-0.879602	0.474563	0.033010	0.340951	0.580518	0.739426
07172		0.300636	0.675654	-0.673134	-0.892752	0.447693	0.050648	0.335578	0.585715	0.737784
07173		0.268769	0.688578	-0.673515	-0.904917	0.420063	0.068347	0.329982	0.591106	0.736007
07174		0.236142	0.700408	-0.673547	-0.916154	0.391508	0.085922	0.323880	0.596783	0.734133
07175		0.202771	0.710943	-0.673382	-0.926375	0.362134	0.103381	0.317353	0.602842	0.732030
07176		0.168646	0.719984	-0.673188	-0.935581	0.331888	0.120579	0.310237	0.609486	0.729575
07177		0.134012	0.727636	-0.672745	-0.943593	0.301109	0.137713	0.302774	0.616343	0.726945
07178		0.099047	0.733947	-0.671946	-0.950352	0.269953	0.154777	0.294992	0.623255	0.724246
07179		0.063736	0.738795	-0.670910	-0.955705	0.238752	0.172119	0.287342	0.630222	0.721287
07180		0.028081	0.742110	-0.669690	-0.959719	0.207379	0.189563	0.279556	0.637391	0.718040
07181		-0.007790	0.743963	-0.668176	-0.962288	0.176125	0.207321	0.271921	0.644593	0.714534
07182		-0.043756	0.744701	-0.665962	-0.963418	0.144970	0.225411	0.264408	0.651463	0.711115
07183		-0.079761	0.744286	-0.663081	-0.963028	0.114183	0.244008	0.257324	0.658027	0.707661
07184		-0.115965	0.742477	-0.659758	-0.961208	0.083474	0.262890	0.250263	0.664651	0.703994
07185		-0.152341	0.739157	-0.656078	-0.957930	0.052942	0.282078	0.243234	0.671449	0.699995
07186		-0.188683	0.734395	-0.651968	-0.953234	0.022648	0.301383	0.236100	0.678344	0.695777
07187		-0.225251	0.728022	-0.647492	-0.947075	-0.007602	0.320923	0.228717	0.685512	0.691203
07188		-0.261845	0.720205	-0.642450	-0.939578	-0.038127	0.340205	0.220523	0.692713	0.686672
07189		-0.298555	0.710962	-0.636708	-0.930661	-0.069030	0.359311	0.211505	0.699834	0.682274
07190		-0.335085	0.700365	-0.630243	-0.920252	-0.099781	0.378392	0.202126	0.706776	0.677948
07191		-0.371280	0.688471	-0.623023	-0.908332	-0.130148	0.397485	0.192572	0.713491	0.673682
07192		-0.406649	0.675418	-0.615180	-0.895087	-0.159736	0.416297	0.182908	0.719927	0.669515
07193		-0.441149	0.661177	-0.606822	-0.880773	-0.189292	0.434059	0.172123	0.725957	0.665853
07194		-0.474508	0.645697	-0.598262	-0.865528	-0.218462	0.450705	0.160321	0.731676	0.662531
07195		-0.506996	0.628687	-0.589668	-0.849336	-0.247776	0.466086	0.146916	0.737129	0.659588
07196		-0.538381	0.610217	-0.581190	-0.832360	-0.277355	0.479845	0.131613	0.742098	0.657243
07197		-0.568627	0.590593	-0.572593	-0.814494	-0.306783	0.492425	0.115161	0.746380	0.655480
07198		-0.597474	0.570065	-0.563960	-0.795918	-0.335923	0.503657	0.097670	0.749788	0.654430
07199		-0.625146	0.548508	-0.555277	-0.776437	-0.364469	0.514108	0.079611	0.752530	0.653728
07200		-0.651472	0.526333	-0.546404	-0.756165	-0.391962	0.524004	0.061631	0.754546	0.653347
07202		-0.699922	0.480929	-0.528031	-0.713727	-0.443525	0.542106	0.026520	0.756302	0.653685
07204		-0.742684	0.434413	-0.509613	-0.669611	-0.489045	0.558977	-0.006397	0.756386	0.654094
07205		-0.762361	0.410444	-0.500341	-0.646767	-0.509875	0.567204	-0.022306	0.756018	0.654171
07206		-0.780977	0.386130	-0.490895	-0.623399	-0.529821	0.575033	-0.038049	0.755112	0.654491
07207		-0.798832	0.361213	-0.481033	-0.599183	-0.548717	0.583000	-0.053364	0.753946	0.654766
07208		-0.815602	0.336602	-0.470629	-0.574583	-0.566992	0.590232	-0.068169	0.751810	0.655846
07209		-0.831315	0.312088	-0.459910	-0.549695	-0.583994	0.597317	-0.082169	0.749368	0.657036
07210		-0.845897	0.287869	-0.448987	-0.524693	-0.600188	0.603715	-0.095686	0.746261	0.658740
07211		-0.859581	0.263689	-0.437709	-0.499447	-0.614649	0.610540	-0.108045	0.743421	0.660039
07212		-0.872231	0.240109	-0.426100	-0.474435	-0.627065	0.617819	-0.118848	0.741038	0.660862
07213		-0.883983	0.216753	-0.414236	-0.449601	-0.637073	0.626096	-0.128190	0.739700	0.660615
07214		-0.894919	0.193894	-0.401903	-0.424968	-0.645031	0.635088	-0.136100	0.739148	0.659649
07215		-0.905169	0.171319	-0.388998	-0.400287	-0.651396	0.644556	-0.142967	0.739143	0.658200
07216		-0.914654	0.149609	-0.375532	-0.375924	-0.656358	0.654122	-0.148621	0.739467	0.656582
07217		-0.923429	0.128217	-0.361716	-0.351599	-0.660408	0.663506	-0.153807	0.739879	0.654921
07218		-0.931469	0.106737	-0.347812	-0.327258	-0.663501	0.672806	-0.158960	0.740522	0.652961
07219		-0.938866	0.084322	-0.333796	-0.302300	-0.665883	0.682066	-0.164756	0.741275	0.650666
07220		-0.945488	0.061027	-0.319887	-0.276633	-0.668811	0.690048	-0.171832	0.740923	0.649235
07221		-0.951370	0.036870	-0.305837	-0.249731	-0.673593	0.695634	-0.180362	0.738182	0.650044
07222		-0.956501	0.013218	-0.291430	-0.222264	-0.680068	0.698646	-0.188958	0.733030	0.653424
07223		-0.960836	-0.010082	-0.276936	-0.194587	-0.686985	0.700134	-0.197309	0.726602	0.658118
07224		-0.964267	-0.033115	-0.262855	-0.167385	-0.692902	0.701334	-0.205358	0.720271	0.662599
07225		-0.966879	-0.055962	-0.249026	-0.140383	-0.698236	0.701968	-0.213162	0.713677	0.667254
07226		-0.968540	-0.079214	-0.235913	-0.113996	-0.701449	0.703544	-0.221211	0.708304	0.670351
07227		-0.969383	-0.102458	-0.223155	-0.088292	-0.702572	0.706114	-0.229130	0.704198	0.672015
07228		-0.969336	-0.125635	-0.211197	-0.063353	-0.702621	0.708739	-0.237434	0.700386	0.673116
07229		-0.968427	-0.148854	-0.199978	-0.038831	-0.702311	0.710811	-0.246254	0.696134	0.674357
07230		-0.966928	-0.171348	-0.188918	-0.014823	-0.701706	0.712313	-0.254618	0.691555	0.675959
07231		-0.964726	-0.193832	-0.178139	0.009183	-0.701037	0.713066	-0.263097	0.686277	0.678088
07232		-0.961934	-0.215760	-0.167720	0.032550	-0.699818	0.713579	-0.271335	0.680957	0.680202
07233		-0.958617	-0.237265	-0.157351	0.055374	-0.697521	0.714422	-0.279263	0.676144	0.681793
07234		-0.954832	-0.258354	-0.146798	0.077913	-0.694415	0.715344	-0.286751	0.671596	0.683179
07235		-0.950747	-0.278485	-0.136113	0.099711	-0.690551	0.716378	-0.293494	0.667522	0.684307
07236		-0.946388	-0.297594	-0.125644	0.120497	-0.686103	0.717456	-0.299716	0.663852	0.685179
07237		-0.941347	-0.316923	-0.115869	0.140974	-0.681335	0.718268	-0.306582	0.659805	0.686050
07238		-0.935548	-0.336569	-0.107100	0.161289	-0.676873	0.718212	-0.314221	0.654648	0.687532
07239		-0.929255	-0.355891	-0.099132	0.181615	-0.673734	0.716309	-0.321717	0.647629	0.690706
07240		-0.922709	-0.374464	-0.091563	0.201230	-0.670463	0.714133	-0.328807	0.640512	0.693996
07241		-0.915765	-0.392810	-0.084113	0.220519	-0.666577	0.712072	-0.335777	0.633542	0.697050
07242		-0.909027	-0.409772	-0.075875	0.239777	-0.663195	0.708999	-0.340848	0.626306	0.701116
07243		-0.902574	-0.425245	-0.067287	0.258162	-0.659632	0.705859	-0.344548	0.619719	0.705149
07244		-0.896406	-0.439284	-0.059037	0.274603	-0.654969	0.703995	-0.347922	0.614854	0.707747
07245		-0.890143	-0.452741	-0.051693	0.289698	-0.649815	0.702720	-0.351741	0.610546	0.709586
07246		-0.883913	-0.465480	-0.045007	0.303062	-0.643459	0.702932	-0.356161	0.607691	0.709832
07247		-0.877764	-0.477498	-0.039057	0.314368	-0.635566	0.705144	-0.361528	0.606672	0.707987
07248		-0.871829	-0.488624	-0.034070	0.323900	-0.627302	0.708224	-0.367428	0.606415	0.705165
07249		-0.866140	-0.498914	-0.029765	0.332063	-0.618943	0.711790	-0.373545	0.606625	0.701762
07250		-0.860386	-0.508986	-0.025857	0.340332	-0.611580	0.714244	-0.379354	0.605725	0.699419
07251		-0.854467	-0.519041	-0.021972	0.349371	-0.605421	0.715126	-0.384482	0.603375	0.698650
07252		-0.849048	-0.528014	-0.017835	0.358661	-0.600859	0.714374	-0.387916	0.600141	0.699537
07253		-0.843942	-0.536261	-0.013666	0.367583	-0.596664	0.713354	-0.390698	0.597006	0.700670
07254		-0.839171	-0.543773	-0.010142	0.375704	-0.593082	0.712109	-0.393241	0.593771	0.701995
07255		-0.834750	-0.550577	-0.007590	0.382437	-0.589633	0.711389	-0.396149	0.590930	0.702757
07256		-0.830796	-0.556546	-0.005812	0.387850	-0.586398	0.711132	-0.399186	0.588552	0.703034
07257		-0.827534	-0.561400	-0.004221	0.391955	-0.583113	0.711583	-0.401944	0.587205	0.702589
07258		-0.825148	-0.564911	-0.002658	0.394557	-0.579671	0.712956	-0.404297	0.587246	0.701204
07259		-0.823213	-0.567730	-0.001530	0.396355	-0.576643	0.714413	-0.406476	0.587507	0.699723
07260		-0.821510	-0.570192	-0.001217	0.397786	-0.574641	0.715230	-0.408518	0.587084	0.698888
07261		-0.819934	-0.572455	-0.001942	0.398616	-0.573371	0.715787	-0.410870	0.586124	0.698316
07262		-0.818745	-0.574151	-0.002833	0.399014	-0.572532	0.716237	-0.412850	0.585284	0.697852
07263		-0.817999	-0.575208	-0.003583	0.399079	-0.571991	0.716633	-0.414262	0.584775	0.697442
07264		-0.817737	-0.575577	-0.004229	0.399047	-0.572200	0.716483	-0.414811	0.584207	0.697592
07265		-0.817887	-0.575356	-0.005110	0.398981	-0.573519	0.715465	-0.414578	0.583131	0.698630
07266		-0.818327	-0.574718	-0.006278	0.398976	-0.575888	0.713562	-0.413713	0.581423	0.700563
07267		-0.819018	-0.573711	-0.008041	0.398520	-0.578889	0.711386	-0.412785	0.579434	0.702756
07268		-0.819828	-0.572518	-0.010279	0.397630	-0.582127	0.709238	-0.412035	0.577366	0.704894
07269		-0.821035	-0.570736	-0.012743	0.395949	-0.585390	0.707491	-0.411250	0.575829	0.706608
07270		-0.822788	-0.568153	-0.014923	0.393331	-0.588174	0.706642	-0.410258	0.575547	0.707414
07271		-0.825133	-0.564675	-0.017287	0.389463	-0.590737	0.706646	-0.409237	0.576343	0.707357
07272		-0.827780	-0.560702	-0.019853	0.384760	-0.593074	0.707264	-0.408338	0.577821	0.706670
07273		-0.830534	-0.556504	-0.022720	0.379659	-0.595512	0.707972	-0.407519	0.579369	0.705875
07274		-0.833241	-0.552305	-0.025859	0.374754	-0.598528	0.708042	-0.406533	0.580279	0.705696
07275		-0.836024	-0.547906	-0.029365	0.369854	-0.602259	0.707455	-0.405304	0.580588	0.706148
07276		-0.838918	-0.543249	-0.033126	0.364663	-0.606232	0.706756	-0.404027	0.580830	0.706681
07277		-0.842041	-0.538124	-0.037271	0.359009	-0.610655	0.705842	-0.402590	0.580968	0.707388
07278		-0.845398	-0.532522	-0.041503	0.353282	-0.615739	0.704313	-0.400618	0.580763	0.708675
07279		-0.849135	-0.526194	-0.045700	0.347284	-0.621418	0.702306	-0.397948	0.580482	0.710407
07280		-0.853243	-0.519125	-0.049855	0.340752	-0.627317	0.700258	-0.394796	0.580502	0.712147
07281		-0.857786	-0.511153	-0.054094	0.333381	-0.633365	0.698360	-0.391230	0.581009	0.713700
07282		-0.862575	-0.502523	-0.058609	0.325226	-0.639492	0.696619	-0.387547	0.581825	0.715043
07283		-0.867649	-0.493082	-0.063676	0.316135	-0.646009	0.694788	-0.383723	0.582702	0.716390
07284		-0.873033	-0.482683	-0.069502	0.305737	-0.652790	0.693102	-0.379919	0.583851	0.717482
07285		-0.878760	-0.471151	-0.076147	0.293629	-0.659496	0.691988	-0.376249	0.585732	0.717882
07286		-0.884780	-0.458498	-0.083332	0.279748	-0.665592	0.691902	-0.372701	0.588868	0.717166
07287		-0.891171	-0.444548	-0.090504	0.264382	-0.671023	0.692698	-0.368667	0.593385	0.715527
07288		-0.897474	-0.430196	-0.097322	0.248704	-0.675812	0.693847	-0.364262	0.598506	0.713515
07289		-0.903592	-0.415576	-0.104010	0.233102	-0.680661	0.694525	-0.359423	0.603322	0.711911
07290		-0.909358	-0.400943	-0.110964	0.217676	-0.685878	0.694398	-0.354521	0.607302	0.710984
07291		-0.914765	-0.386052	-0.119030	0.201813	-0.691931	0.693183	-0.349966	0.610078	0.710865
07292		-0.919601	-0.371079	-0.128973	0.185020	-0.698704	0.691072	-0.346557	0.611648	0.711185
07293		-0.923989	-0.355602	-0.140680	0.167067	-0.706265	0.687953	-0.343995	0.612158	0.711990
07295		-0.932257	-0.321394	-0.166141	0.126800	-0.720327	0.681947	-0.338849	0.614683	0.712282
07296		-0.936095	-0.302776	-0.179034	0.104673	-0.725706	0.679996	-0.335812	0.617801	0.711022
07297		-0.939872	-0.283135	-0.190985	0.082009	-0.729949	0.678564	-0.331535	0.622100	0.709278
07298		-0.943439	-0.262498	-0.202529	0.058569	-0.733206	0.677479	-0.326333	0.627298	0.707109
07299		-0.946397	-0.241855	-0.214099	0.034996	-0.735710	0.676392	-0.321103	0.632643	0.704738
07300		-0.948637	-0.220989	-0.226390	0.010989	-0.738176	0.674519	-0.316177	0.637386	0.702689
07301		-0.950072	-0.200393	-0.239176	-0.012985	-0.740461	0.671974	-0.311759	0.641530	0.700890
07302		-0.951077	-0.178792	-0.251964	-0.037660	-0.742367	0.668934	-0.306650	0.645697	0.699315
07303		-0.951545	-0.156045	-0.264976	-0.063349	-0.743728	0.665474	-0.300914	0.650014	0.697805
07304		-0.951338	-0.132036	-0.278427	-0.090088	-0.744901	0.661065	-0.294685	0.653979	0.696758
07305		-0.950441	-0.106795	-0.291989	-0.117747	-0.745555	0.655960	-0.287747	0.657831	0.696031
07306		-0.948885	-0.080153	-0.305273	-0.146167	-0.745647	0.650112	-0.279735	0.661502	0.695818
07307		-0.946575	-0.052889	-0.318118	-0.174862	-0.744673	0.644116	-0.270960	0.665330	0.695641
07308		-0.943467	-0.024864	-0.330533	-0.203617	-0.743384	0.637119	-0.261554	0.668403	0.696295
07309		-0.939314	0.002717	-0.343048	-0.232026	-0.741595	0.629446	-0.252693	0.670843	0.697220
07310		-0.934119	0.030340	-0.355671	-0.260288	-0.739745	0.620505	-0.244280	0.672203	0.698907
07311		-0.927828	0.057550	-0.368543	-0.288355	-0.737411	0.610800	-0.236616	0.672988	0.700785
07312		-0.920398	0.085004	-0.381630	-0.316716	-0.734428	0.600255	-0.229255	0.673342	0.702889
07313		-0.911967	0.112636	-0.394500	-0.345118	-0.730553	0.589225	-0.221835	0.673502	0.705112
07314		-0.902418	0.140970	-0.407147	-0.374131	-0.725063	0.578195	-0.213699	0.674100	0.707051
07315		-0.891805	0.168388	-0.419915	-0.402700	-0.718462	0.567137	-0.206194	0.674876	0.708539
07316		-0.880108	0.195156	-0.432810	-0.430929	-0.710986	0.555697	-0.199274	0.675584	0.709843
07317		-0.867417	0.221231	-0.445695	-0.458608	-0.702965	0.543616	-0.193044	0.675942	0.711222
07318		-0.853484	0.246465	-0.459151	-0.486044	-0.694273	0.530798	-0.187953	0.676196	0.712343
07319		-0.838535	0.271285	-0.472508	-0.513249	-0.684342	0.517930	-0.182850	0.676817	0.713081
07320		-0.822605	0.296120	-0.485421	-0.540132	-0.673733	0.504323	-0.177704	0.677050	0.714160
07321		-0.806068	0.320529	-0.497509	-0.566200	-0.662337	0.490640	-0.172254	0.677179	0.715372
07322		-0.788948	0.345314	-0.508251	-0.591806	-0.649553	0.477333	-0.165306	0.677377	0.716823
07323		-0.771417	0.369959	-0.517732	-0.616465	-0.636205	0.463912	-0.157756	0.677033	0.718846
07324		-0.753182	0.394023	-0.526748	-0.640231	-0.622986	0.449436	-0.151068	0.675747	0.721487
07325		-0.734278	0.416738	-0.535878	-0.662869	-0.610427	0.433571	-0.146429	0.673579	0.724465
07326		-0.714103	0.438426	-0.545747	-0.684890	-0.598866	0.415072	-0.144851	0.670181	0.727926
07327		-0.692770	0.458753	-0.556432	-0.706053	-0.588560	0.393810	-0.146832	0.665690	0.731640
07328		-0.669830	0.478274	-0.567963	-0.726784	-0.578930	0.369627	-0.152028	0.660374	0.735387
07329		-0.645443	0.496936	-0.580049	-0.746966	-0.569264	0.343482	-0.159513	0.654975	0.738622
07330		-0.619498	0.514882	-0.592553	-0.766616	-0.559214	0.315562	-0.168886	0.649750	0.741149
07331		-0.592524	0.532026	-0.604867	-0.785424	-0.548360	0.287073	-0.178954	0.645174	0.742782
07332		-0.564563	0.548945	-0.616383	-0.803623	-0.535944	0.258755	-0.188304	0.641423	0.743719
07333		-0.535896	0.565669	-0.626764	-0.821322	-0.521240	0.231816	-0.195563	0.639005	0.743927
07334		-0.506076	0.582459	-0.636104	-0.838707	-0.504340	0.205456	-0.201143	0.637482	0.743746
07335		-0.475933	0.598476	-0.644449	-0.855282	-0.485665	0.180616	-0.204892	0.637147	0.743009
07336		-0.444884	0.613438	-0.652512	-0.871197	-0.465308	0.156539	-0.207592	0.638109	0.741433
07337		-0.412875	0.627253	-0.660370	-0.886474	-0.443165	0.133298	-0.209041	0.640436	0.739015
07338		-0.380322	0.639868	-0.667776	-0.900828	-0.419800	0.110799	-0.209435	0.643690	0.736070
07339		-0.347129	0.651259	-0.674806	-0.914178	-0.395524	0.088542	-0.209239	0.647628	0.732664
07340		-0.312947	0.661362	-0.681663	-0.926618	-0.370109	0.066318	-0.208429	0.652395	0.728655
07341		-0.278378	0.670097	-0.688096	-0.937917	-0.344000	0.044445	-0.206922	0.657749	0.724258
07342		-0.243076	0.677721	-0.693980	-0.948253	-0.316691	0.022866	-0.204280	0.663627	0.719631
07343		-0.207671	0.684389	-0.698916	-0.957524	-0.288344	0.002162	-0.200049	0.669679	0.715200
07344		-0.171345	0.689903	-0.703331	-0.965826	-0.258543	-0.018312	-0.194475	0.676158	0.710626
07345		-0.134944	0.694405	-0.706818	-0.972969	-0.227784	-0.038028	-0.187409	0.682580	0.706372
07346		-0.097774	0.697166	-0.710211	-0.979174	-0.194975	-0.056592	-0.177928	0.689887	0.701710
07347		-0.061376	0.698477	-0.712995	-0.984141	-0.161464	-0.073460	-0.166433	0.697179	0.697310
07348		-0.025776	0.698827	-0.714826	-0.987845	-0.127453	-0.088980	-0.153289	0.703844	0.693618
07349		0.008865	0.698228	-0.715821	-0.990513	-0.092038	-0.102043	-0.137132	0.709935	0.690788
07350		0.042913	0.696553	-0.716221	-0.991939	-0.055848	-0.113747	-0.119230	0.715328	0.688542
07351		0.076330	0.694001	-0.715916	-0.992171	-0.018312	-0.123536	-0.098844	0.719741	0.687170
07352		0.109468	0.690190	-0.715300	-0.990983	0.019849	-0.132506	-0.077256	0.723356	0.686139
07353		0.141650	0.684926	-0.714711	-0.988390	0.057776	-0.140523	-0.054955	0.726318	0.685158
07354		0.173272	0.678574	-0.713803	-0.984345	0.095575	-0.148087	-0.032266	0.728288	0.684511
07355		0.203998	0.671325	-0.712536	-0.978932	0.133327	-0.154651	-0.008821	0.729072	0.684380
07356		0.234193	0.663096	-0.710955	-0.972070	0.171226	-0.160506	0.015303	0.728687	0.684676
07357		0.263276	0.653930	-0.709268	-0.963884	0.208911	-0.165177	0.040159	0.727140	0.685314
07358		0.291363	0.643756	-0.707591	-0.954366	0.246278	-0.168916	0.065524	0.724517	0.686135
07359		0.318299	0.632740	-0.705922	-0.943531	0.283596	-0.171240	0.091846	0.720565	0.687278
07360		0.344577	0.620687	-0.704283	-0.931180	0.321121	-0.172583	0.119041	0.715282	0.688622
07361		0.370101	0.607682	-0.702672	-0.917275	0.358791	-0.172846	0.147077	0.708514	0.690200
07362		0.394956	0.593743	-0.701056	-0.901828	0.396143	-0.172562	0.175261	0.700386	0.691913
07363		0.418893	0.578878	-0.699592	-0.884846	0.433233	-0.171338	0.203902	0.690804	0.693696
07364		0.441951	0.563252	-0.698159	-0.866438	0.469587	-0.169628	0.232303	0.679878	0.695558
07365		0.464045	0.546951	-0.696784	-0.846580	0.505340	-0.167133	0.260699	0.667440	0.697538
07366		0.485441	0.529843	-0.695423	-0.825307	0.540179	-0.164543	0.288471	0.653814	0.699509
07367		0.506116	0.512098	-0.693976	-0.802533	0.574341	-0.161469	0.315891	0.638661	0.701659
07368		0.526214	0.493627	-0.692410	-0.778389	0.607444	-0.158502	0.342359	0.622370	0.703879
07369		0.545501	0.474509	-0.690847	-0.752920	0.639540	-0.155245	0.368159	0.604839	0.706137
07370		0.563862	0.454797	-0.689361	-0.726550	0.670037	-0.152233	0.392662	0.586694	0.708242
07371		0.581084	0.434679	-0.688037	-0.699382	0.699036	-0.149038	0.416179	0.567805	0.710206
07372		0.597344	0.414043	-0.686840	-0.671572	0.726375	-0.146190	0.438374	0.548588	0.711955
07373		0.612487	0.393061	-0.685831	-0.643036	0.752350	-0.143084	0.459744	0.528651	0.713557
07374		0.626758	0.371886	-0.684745	-0.614138	0.776619	-0.140348	0.479592	0.508492	0.715141
07375		0.640252	0.350639	-0.683469	-0.584579	0.799620	-0.137387	0.498342	0.487503	0.716935
07376		0.653180	0.329444	-0.681779	-0.554841	0.820951	-0.134873	0.515274	0.466375	0.719018
07377		0.665505	0.308374	-0.679712	-0.524953	0.840746	-0.132549	0.530591	0.445029	0.721403
07378		0.677206	0.287249	-0.677407	-0.495432	0.858687	-0.131166	0.544003	0.424435	0.723820
07379		0.688058	0.266132	-0.675092	-0.466215	0.875035	-0.130217	0.556075	0.404335	0.726150
07380		0.698091	0.245006	-0.672786	-0.437839	0.889552	-0.130362	0.566539	0.385577	0.728261
07381		0.707354	0.223905	-0.670460	-0.410101	0.902546	-0.131256	0.575732	0.367801	0.730243
07382		0.715841	0.202862	-0.668146	-0.383221	0.914022	-0.133063	0.583707	0.351300	0.732035
07383		0.723461	0.181976	-0.665949	-0.356758	0.924396	-0.134968	0.591040	0.335227	0.733686
07384		0.730408	0.161457	-0.663653	-0.330669	0.933786	-0.136754	0.597630	0.319336	0.735434
07385		0.736438	0.141311	-0.661582	-0.304509	0.942511	-0.137647	0.604097	0.302826	0.737131
07386		0.741691	0.121772	-0.659595	-0.278746	0.950401	-0.137980	0.610078	0.286199	0.738847
07387		0.746411	0.102482	-0.657547	-0.252773	0.957680	-0.137675	0.615611	0.268972	0.740727
07388		0.750659	0.083484	-0.655394	-0.227214	0.964099	-0.137433	0.620391	0.252080	0.742678
07389		0.754414	0.064916	-0.653181	-0.202440	0.969600	-0.137452	0.624402	0.235926	0.744622
07390		0.757913	0.046956	-0.650663	-0.178677	0.974207	-0.137824	0.627409	0.220717	0.746754
07391		0.761016	0.029454	-0.648064	-0.155217	0.978221	-0.137810	0.629891	0.205466	0.749013
07392		0.763563	0.012095	-0.645620	-0.131660	0.981738	-0.137319	0.632168	0.189854	0.751211
07393		0.765517	-0.004891	-0.643397	-0.108392	0.984699	-0.136451	0.634220	0.174194	0.753274
07394		0.767172	-0.021438	-0.641083	-0.085787	0.987033	-0.135667	0.635678	0.159077	0.755386
07395		0.768180	-0.037591	-0.639129	-0.063407	0.988900	-0.134373	0.637086	0.143748	0.757270
07396		0.769246	-0.052764	-0.636770	-0.042692	0.990113	-0.133617	0.637525	0.129969	0.759388
07397		0.769924	-0.068073	-0.634494	-0.022619	0.990758	-0.133742	0.637734	0.117323	0.761269
07398		0.770338	-0.082868	-0.632228	-0.004232	0.990833	-0.135029	0.637621	0.106693	0.762926
07399		0.770627	-0.097106	-0.629845	0.013270	0.990554	-0.136482	0.637149	0.096819	0.764636
07400		0.770914	-0.110388	-0.627300	0.028687	0.989885	-0.138939	0.636293	0.089115	0.766283
07401		0.770958	-0.123757	-0.624746	0.043134	0.988833	-0.142651	0.635423	0.083030	0.767687
07402		0.770643	-0.136074	-0.622570	0.055028	0.987497	-0.147720	0.634887	0.079580	0.768496
07403		0.769895	-0.148664	-0.620614	0.065738	0.985789	-0.154590	0.634776	0.078220	0.768727
07404		0.768944	-0.160211	-0.618916	0.074410	0.983940	-0.162253	0.634971	0.078710	0.768516
07405		0.767526	-0.171803	-0.617566	0.082837	0.981919	-0.170212	0.635643	0.079484	0.767880
07406		0.766202	-0.182513	-0.616136	0.090202	0.979871	-0.178088	0.636238	0.080875	0.767242
07407		0.764868	-0.193482	-0.614444	0.098016	0.977677	-0.185849	0.636686	0.081925	0.766759
07408		0.763890	-0.203891	-0.612292	0.105079	0.975414	-0.193714	0.636735	0.083637	0.766533
07409		0.762909	-0.214438	-0.609906	0.112640	0.973049	-0.201218	0.636617	0.084811	0.766502
07410		0.762015	-0.224227	-0.607499	0.119705	0.970744	-0.208150	0.636399	0.085893	0.766563
07411		0.760817	-0.233983	-0.605318	0.127651	0.968475	-0.213917	0.636288	0.085482	0.766701
07412		0.759686	-0.242880	-0.603230	0.134523	0.966263	-0.219636	0.636224	0.085706	0.766729
07413		0.758440	-0.251783	-0.601144	0.141033	0.963913	-0.225789	0.636301	0.086466	0.766580
07414		0.757413	-0.259787	-0.599029	0.146266	0.961632	-0.232101	0.636342	0.088179	0.766350
07415		0.756294	-0.267956	-0.596841	0.151444	0.959203	-0.238736	0.636463	0.090167	0.766019
07416		0.755471	-0.275348	-0.594515	0.156074	0.956913	-0.244864	0.636322	0.092200	0.765894
07417		0.754722	-0.282731	-0.591995	0.161474	0.954666	-0.250078	0.635863	0.093148	0.766161
07418		0.754320	-0.289269	-0.589343	0.166453	0.952631	-0.254535	0.635055	0.093903	0.766738
07419		0.753953	-0.295756	-0.586586	0.171810	0.950618	-0.258469	0.634063	0.094092	0.767535
07420		0.753971	-0.301170	-0.583801	0.175964	0.948828	-0.262226	0.632901	0.094983	0.768384
07421		0.753922	-0.306469	-0.581101	0.179277	0.946928	-0.266809	0.632030	0.096975	0.768852
07422		0.753965	-0.310827	-0.578725	0.181272	0.945213	-0.271502	0.631408	0.099796	0.769002
07423		0.754010	-0.314789	-0.576521	0.182698	0.943560	-0.276253	0.630944	0.102969	0.768965
07424		0.754304	-0.317481	-0.574658	0.182995	0.942284	-0.280381	0.630507	0.106333	0.768866
07425		0.754629	-0.319887	-0.572893	0.183114	0.941093	-0.284278	0.630083	0.109619	0.768752
07426		0.755278	-0.321068	-0.571376	0.182379	0.940316	-0.287303	0.629518	0.112786	0.768756
07427		0.755897	-0.321851	-0.570116	0.181343	0.939675	-0.290045	0.629075	0.115858	0.768662
07428		0.756934	-0.321554	-0.568906	0.179019	0.939292	-0.292716	0.628493	0.119722	0.768546
07429		0.758111	-0.320959	-0.567673	0.176329	0.938960	-0.295401	0.627834	0.123849	0.768430
07430		0.759598	-0.319240	-0.566653	0.172389	0.938910	-0.297875	0.627131	0.128581	0.768228
07431		0.761127	-0.317267	-0.565709	0.168110	0.938889	-0.300377	0.626438	0.133524	0.767950
07432		0.762972	-0.314252	-0.564907	0.162802	0.939128	-0.302544	0.625595	0.138865	0.767690
07433		0.764848	-0.311014	-0.564161	0.157440	0.939428	-0.304447	0.624676	0.144034	0.767485
07434		0.767043	-0.306735	-0.563523	0.151153	0.939986	-0.305908	0.623536	0.149467	0.767374
07435		0.769190	-0.302257	-0.563016	0.144669	0.940554	-0.307293	0.622429	0.154915	0.767192
07436		0.771439	-0.296742	-0.562874	0.136907	0.941287	-0.308602	0.621401	0.161006	0.766771
07437		0.773529	-0.291175	-0.562912	0.128715	0.941876	-0.310325	0.620553	0.167590	0.766047
07438		0.775783	-0.284779	-0.563082	0.119628	0.942559	-0.311884	0.619556	0.174594	0.765289
07439		0.777949	-0.278509	-0.563230	0.110908	0.943188	-0.313203	0.618461	0.181189	0.764641
07440		0.780309	-0.271462	-0.563406	0.101980	0.944054	-0.313628	0.617024	0.187271	0.764337
07441		0.782512	-0.264525	-0.563650	0.093865	0.945037	-0.313201	0.615519	0.192177	0.764332
07442		0.784868	-0.256834	-0.563932	0.085622	0.946282	-0.311801	0.613719	0.196438	0.764697
07443		0.787058	-0.249374	-0.564227	0.077799	0.947471	-0.310234	0.611954	0.200276	0.765116
07444		0.789435	-0.241214	-0.564453	0.069411	0.948735	-0.308356	0.609897	0.204248	0.765708
07445		0.791781	-0.233264	-0.564509	0.061245	0.949867	-0.306599	0.607727	0.208186	0.766373
07446		0.794349	-0.224775	-0.564346	0.052419	0.950921	-0.304962	0.605196	0.212664	0.767146
07447		0.796814	-0.216558	-0.564083	0.043535	0.951716	-0.303878	0.602654	0.217577	0.767768
07448		0.799378	-0.207663	-0.563800	0.033633	0.952366	-0.303096	0.599886	0.223326	0.768285
07449		0.801865	-0.198889	-0.563432	0.023600	0.952781	-0.302740	0.597039	0.229460	0.768696
07450		0.804496	-0.189216	-0.563012	0.012626	0.953134	-0.302286	0.593823	0.236080	0.769182
07451		0.807033	-0.179811	-0.562465	0.001833	0.953270	-0.302115	0.590504	0.242786	0.769649
07452		0.809614	-0.169802	-0.561865	-0.009431	0.953355	-0.301704	0.586886	0.249563	0.770249
07453		0.812024	-0.160093	-0.561237	-0.020254	0.953332	-0.301243	0.583272	0.255985	0.770886
07454		0.814420	-0.149666	-0.560642	-0.031656	0.953267	-0.300465	0.579411	0.262452	0.771623
07455		0.816609	-0.139687	-0.560034	-0.042954	0.952876	-0.300304	0.575591	0.269286	0.772127
07456		0.818649	-0.129047	-0.559608	-0.055555	0.952062	-0.300818	0.571601	0.277353	0.772235
07457		0.820385	-0.118618	-0.559373	-0.068838	0.950645	-0.302548	0.567653	0.286712	0.771730
07458		0.822055	-0.107577	-0.559153	-0.083331	0.948689	-0.305032	0.563277	0.297348	0.770911
07459		0.823562	-0.096891	-0.558889	-0.097920	0.946226	-0.308332	0.558710	0.308657	0.769788
07460		0.824847	-0.086050	-0.558769	-0.113111	0.943248	-0.312233	0.553925	0.320747	0.768302
07461		0.825893	-0.075017	-0.558814	-0.129126	0.939602	-0.316976	0.548842	0.333946	0.766324
07462		0.826604	-0.063832	-0.559153	-0.145533	0.935508	-0.321939	0.543642	0.347491	0.764005
07463		0.826873	-0.052340	-0.559948	-0.162865	0.930710	-0.327497	0.538290	0.361994	0.761055
07464		0.826713	-0.040690	-0.561151	-0.180980	0.925139	-0.333712	0.532721	0.377441	0.757460
07465		0.826108	-0.028992	-0.562766	-0.200176	0.918444	-0.341162	0.526760	0.394488	0.752930
07466		0.825034	-0.017477	-0.564812	-0.220033	0.910700	-0.349587	0.520484	0.412698	0.747513
07467		0.823595	-0.006425	-0.567142	-0.240108	0.901964	-0.358899	0.513848	0.431763	0.741310
07468		0.821791	0.004162	-0.569774	-0.259899	0.892627	-0.368335	0.507063	0.450778	0.734634
07469		0.819855	0.014825	-0.572379	-0.279491	0.882839	-0.377467	0.499722	0.469443	0.727943
07470		0.818049	0.026141	-0.574554	-0.298587	0.873103	-0.385404	0.491570	0.486834	0.722047
07471		0.816049	0.037855	-0.576742	-0.316859	0.863842	-0.391635	0.483388	0.502339	0.716932
07472		0.813606	0.050505	-0.579218	-0.335604	0.854298	-0.396919	0.474779	0.517324	0.712012
07473		0.810381	0.063806	-0.582418	-0.355408	0.843814	-0.402074	0.465798	0.532829	0.706489
07474		0.806005	0.077482	-0.586815	-0.376950	0.831554	-0.407953	0.456360	0.550013	0.699444
07475		0.800185	0.090975	-0.592813	-0.400781	0.816445	-0.415683	0.446182	0.570212	0.689768
07476		0.792979	0.103518	-0.600390	-0.426053	0.798648	-0.425018	0.435503	0.592829	0.677415
07477		0.784939	0.114844	-0.608836	-0.451569	0.778864	-0.435267	0.424213	0.616589	0.663220
07478		0.776159	0.125068	-0.618009	-0.476506	0.758234	-0.444999	0.412940	0.639875	0.648105
07479		0.766730	0.134666	-0.627686	-0.500692	0.737383	-0.453403	0.401787	0.661915	0.632800
07480		0.756362	0.143951	-0.638118	-0.524459	0.716470	-0.460015	0.390972	0.682605	0.617407
07481		0.745085	0.153234	-0.649128	-0.548394	0.694696	-0.465469	0.379621	0.702792	0.601640
07482		0.732564	0.162862	-0.660928	-0.572943	0.671792	-0.469502	0.367542	0.722614	0.585441
07483		0.718818	0.172629	-0.673424	-0.597952	0.647645	-0.472238	0.354618	0.742129	0.568763
07484		0.703521	0.182353	-0.686881	-0.623613	0.621934	-0.473609	0.340831	0.761542	0.551261
07485		0.686803	0.191806	-0.701080	-0.650067	0.593567	-0.474437	0.325138	0.781593	0.532350
07486		0.668650	0.200914	-0.715920	-0.676924	0.562897	-0.474259	0.307704	0.801736	0.512384
07487		0.649287	0.209180	-0.731211	-0.703605	0.530206	-0.473097	0.288730	0.821660	0.491436
07488		0.628945	0.216978	-0.746558	-0.729475	0.496803	-0.470163	0.268877	0.840302	0.470741
07489		0.607682	0.223945	-0.761952	-0.754589	0.461960	-0.466035	0.247625	0.858162	0.449711
07490		0.585087	0.229718	-0.777755	-0.778952	0.426011	-0.460161	0.225625	0.875068	0.428192
07491		0.561670	0.234340	-0.793481	-0.802222	0.388870	-0.453012	0.202402	0.890991	0.406409
07492		0.537242	0.237985	-0.809157	-0.824493	0.350330	-0.444387	0.177714	0.905887	0.384429
07493		0.511904	0.240375	-0.824727	-0.845710	0.309506	-0.434720	0.150762	0.920014	0.361724
07494		0.484942	0.241003	-0.840683	-0.866036	0.266116	-0.423278	0.121708	0.933327	0.337768
07495		0.456618	0.239857	-0.856720	-0.885029	0.220622	-0.409939	0.090684	0.945407	0.313021
07496		0.426510	0.237122	-0.872847	-0.902543	0.174753	-0.393546	0.059214	0.955633	0.288547
07497		0.395269	0.232952	-0.888535	-0.918157	0.129019	-0.374621	0.027369	0.963892	0.264884
07498		0.362604	0.227686	-0.903702	-0.931928	0.083026	-0.353012	-0.005345	0.970188	0.242293
07499		0.329108	0.221156	-0.918029	-0.943488	0.036904	-0.329345	-0.038958	0.974540	0.220804
07500		0.293987	0.213556	-0.931647	-0.953059	-0.008393	-0.302668	-0.072456	0.976895	0.201064
07501		0.257800	0.204992	-0.944202	-0.960415	-0.052397	-0.273602	-0.105559	0.977360	0.183370
07502		0.220042	0.195352	-0.955730	-0.965799	-0.094133	-0.241601	-0.137163	0.976205	0.167958
07503		0.181405	0.184482	-0.965950	-0.969149	-0.133125	-0.207431	-0.166860	0.973778	0.154641
07504		0.141503	0.172325	-0.974824	-0.970720	-0.168938	-0.170771	-0.194113	0.970445	0.143374
07505		0.100960	0.159026	-0.982099	-0.970615	-0.200991	-0.132325	-0.218436	0.966599	0.134061
07506		0.059748	0.144044	-0.987766	-0.968678	-0.230563	-0.092216	-0.241025	0.962337	0.125757
07507		0.018908	0.127582	-0.991648	-0.964817	-0.257818	-0.051567	-0.262243	0.957733	0.118218
07508		-0.022020	0.109128	-0.993784	-0.958834	-0.283794	-0.009918	-0.283112	0.952655	0.110885
07509		-0.062208	0.089166	-0.994072	-0.951078	-0.307294	0.031954	-0.302624	0.947428	0.103920
07510		-0.102190	0.067471	-0.992474	-0.941428	-0.328864	0.074577	-0.321357	0.941964	0.097125
07511		-0.141294	0.044597	-0.988963	-0.929707	-0.349196	0.117081	-0.340120	0.935988	0.090802
07512		-0.179905	0.020004	-0.983481	-0.915937	-0.368019	0.160064	-0.358738	0.929603	0.084531
07513		-0.217170	-0.005705	-0.976117	-0.900574	-0.384597	0.202610	-0.376568	0.923067	0.078386
07514		-0.253310	-0.032928	-0.966824	-0.883480	-0.399253	0.245072	-0.394077	0.916250	0.072044
07515		-0.287755	-0.060939	-0.955763	-0.865346	-0.411043	0.286741	-0.410334	0.909577	0.065547
07516		-0.321390	-0.090045	-0.942656	-0.845738	-0.420485	0.328512	-0.425953	0.902820	0.058985
07517		-0.354228	-0.119633	-0.927475	-0.824573	-0.427891	0.370120	-0.441137	0.895878	0.052925
07518		-0.386448	-0.150399	-0.909966	-0.801422	-0.433556	0.412009	-0.456487	0.888487	0.047014
07519		-0.417373	-0.181195	-0.890487	-0.777558	-0.435956	0.453151	-0.470321	0.881539	0.041067
07520		-0.446949	-0.212177	-0.869033	-0.752159	-0.436740	0.493472	-0.484245	0.874208	0.035609
07521		-0.474639	-0.242596	-0.846088	-0.725990	-0.435594	0.532162	-0.497651	0.866836	0.030628
07522		-0.500374	-0.272949	-0.821660	-0.698237	-0.433928	0.569360	-0.511948	0.858606	0.026544
07523		-0.524412	-0.302073	-0.796080	-0.669794	-0.430904	0.604729	-0.525707	0.850337	0.023644
07524		-0.546929	-0.330751	-0.769073	-0.640061	-0.426932	0.638789	-0.539622	0.841625	0.021801
07525		-0.568044	-0.358183	-0.740966	-0.609783	-0.421469	0.671214	-0.552711	0.833108	0.020999
07526		-0.588092	-0.384816	-0.711382	-0.578831	-0.414067	0.702498	-0.564892	0.824903	0.020766
07527		-0.606959	-0.409985	-0.680818	-0.547575	-0.405133	0.732140	-0.575989	0.817178	0.021402
07528		-0.624147	-0.435024	-0.648996	-0.514732	-0.395962	0.760438	-0.587786	0.808683	0.023218
07529		-0.639156	-0.459472	-0.616737	-0.480855	-0.387098	0.786724	-0.600215	0.799400	0.026477
07530		-0.652350	-0.483087	-0.584009	-0.446577	-0.377585	0.811171	-0.612379	0.789973	0.030582
07531		-0.664054	-0.505453	-0.550953	-0.410740	-0.369118	0.833693	-0.624760	0.779916	0.037504
07532		-0.674213	-0.526447	-0.517968	-0.375021	-0.360152	0.854195	-0.636235	0.770159	0.045391
07533		-0.683121	-0.545722	-0.485318	-0.338609	-0.352115	0.872559	-0.647062	0.760396	0.055751
07534		-0.690729	-0.563964	-0.452590	-0.302127	-0.343562	0.889204	-0.656972	0.750939	0.066919
07535		-0.697686	-0.580559	-0.419744	-0.266078	-0.334004	0.904237	-0.665159	0.742558	0.078555
07536		-0.703703	-0.596156	-0.386522	-0.231034	-0.322453	0.917958	-0.671882	0.735270	0.089178
07537		-0.708888	-0.610649	-0.352967	-0.196266	-0.309888	0.930295	-0.677464	0.728750	0.099827
07538		-0.713215	-0.623896	-0.319497	-0.161711	-0.297058	0.941067	-0.682037	0.722849	0.110976
07539		-0.716011	-0.636556	-0.286574	-0.128834	-0.282967	0.950437	-0.686098	0.717444	0.120597
07540		-0.717418	-0.648496	-0.254489	-0.095440	-0.270370	0.958014	-0.690075	0.711585	0.132076
07541		-0.717587	-0.659504	-0.223882	-0.062284	-0.259399	0.963760	-0.693679	0.705525	0.145065
07542		-0.716068	-0.670419	-0.194382	-0.029142	-0.249517	0.967932	-0.697422	0.698770	0.159134
07543		-0.713024	-0.681278	-0.165700	0.004361	-0.240635	0.970606	-0.701126	0.691343	0.174550
07544		-0.708631	-0.692077	-0.137378	0.036891	-0.230778	0.972307	-0.704615	0.683938	0.189068
07545		-0.703445	-0.702346	-0.108973	0.069054	-0.220132	0.973023	-0.707387	0.676943	0.203350
07546		-0.697456	-0.712053	-0.080844	0.100733	-0.209105	0.972691	-0.709513	0.670266	0.217569
07547		-0.691808	-0.720170	-0.052519	0.131970	-0.197610	0.971357	-0.709920	0.665061	0.231749
07548		-0.685608	-0.727493	-0.026371	0.159660	-0.185613	0.969565	-0.710247	0.660531	0.243409
07549		-0.678157	-0.734913	-0.002500	0.184731	-0.173755	0.967307	-0.711321	0.655525	0.253595
07550		-0.670251	-0.741892	0.018978	0.207335	-0.162637	0.964656	-0.712584	0.650497	0.262827
07551		-0.662205	-0.748353	0.038120	0.228255	-0.153001	0.961504	-0.713712	0.645414	0.272133
07552		-0.654416	-0.754140	0.054884	0.246873	-0.144491	0.958215	-0.714698	0.640621	0.280734
07553		-0.647690	-0.758717	0.069619	0.263799	-0.137592	0.954714	-0.714778	0.636724	0.289265
07554		-0.642282	-0.762004	0.082612	0.278468	-0.131573	0.951391	-0.714094	0.634065	0.296700
07555		-0.638540	-0.763824	0.094019	0.290334	-0.125950	0.948601	-0.712722	0.633016	0.302188
07556		-0.636916	-0.763987	0.103258	0.299627	-0.121901	0.946237	-0.710325	0.633612	0.306552
07557		-0.636735	-0.763237	0.109716	0.307490	-0.120846	0.943846	-0.707120	0.634717	0.311635
07558		-0.637480	-0.762151	0.112895	0.314527	-0.123667	0.941158	-0.703343	0.635478	0.318553
07559		-0.639568	-0.760356	0.113190	0.320306	-0.129730	0.938389	-0.698825	0.636419	0.326518
07560		-0.643263	-0.757580	0.110840	0.324503	-0.138640	0.935669	-0.693477	0.637849	0.335019
07561		-0.648408	-0.753793	0.106600	0.326615	-0.148960	0.933345	-0.687670	0.640005	0.342787
07562		-0.654833	-0.749072	0.100423	0.326311	-0.160370	0.931559	-0.681700	0.642785	0.349446
07563		-0.662040	-0.743725	0.092612	0.323637	-0.172237	0.930373	-0.675990	0.645916	0.354725
07564		-0.669815	-0.737846	0.083251	0.318885	-0.184592	0.929644	-0.670567	0.649237	0.358930
07565		-0.677673	-0.731770	0.072608	0.312719	-0.197413	0.929104	-0.665557	0.652335	0.362620
07566		-0.685552	-0.725491	0.060675	0.305323	-0.210853	0.928611	-0.660905	0.655137	0.366059
07567		-0.693276	-0.719103	0.047531	0.296667	-0.224660	0.928179	-0.656778	0.657585	0.369085
07568		-0.701108	-0.712293	0.032960	0.286490	-0.239060	0.927779	-0.652971	0.659916	0.371671
07569		-0.709114	-0.704881	0.017321	0.274311	-0.253162	0.927719	-0.649547	0.662610	0.372877
07570		-0.717481	-0.696578	0.000556	0.259619	-0.266668	0.928163	-0.646390	0.666083	0.372174
07571		-0.726329	-0.687142	-0.016819	0.242603	-0.279180	0.929087	-0.643110	0.670742	0.369479
07572		-0.735808	-0.676294	-0.034825	0.223795	-0.291381	0.930061	-0.639142	0.676552	0.365752
07573		-0.745438	-0.664447	-0.053226	0.203894	-0.303312	0.930822	-0.634626	0.683017	0.361577
07574		-0.755159	-0.651505	-0.072637	0.182584	-0.315455	0.931209	-0.629601	0.689949	0.357174
07575		-0.764675	-0.637644	-0.093179	0.159801	-0.327708	0.931166	-0.624288	0.697150	0.352486
07576		-0.773519	-0.623176	-0.115412	0.135510	-0.340517	0.930422	-0.619116	0.704060	0.347843
07577		-0.781609	-0.608117	-0.138859	0.110098	-0.353613	0.928890	-0.613976	0.710740	0.343339
07578		-0.788693	-0.592626	-0.163581	0.083443	-0.366803	0.926549	-0.609099	0.717112	0.338746
07579		-0.794735	-0.576938	-0.188519	0.056289	-0.379317	0.923553	-0.604341	0.723368	0.333932
07580		-0.800433	-0.560007	-0.213772	0.027626	-0.390715	0.920097	-0.598785	0.730571	0.328212
07581		-0.805580	-0.542104	-0.239090	-0.001935	-0.401128	0.916020	-0.592484	0.738390	0.322092
07582		-0.810295	-0.522988	-0.264395	-0.032280	-0.410652	0.911220	-0.585132	0.746892	0.315868
07583		-0.814221	-0.503458	-0.289094	-0.063196	-0.418141	0.906181	-0.577106	0.756101	0.308643
07584		-0.817339	-0.483246	-0.313735	-0.094391	-0.424863	0.900323	-0.568372	0.765484	0.301643
07585		-0.819477	-0.462575	-0.338352	-0.125709	-0.430919	0.893592	-0.559155	0.774812	0.294978
07586		-0.820599	-0.441118	-0.363362	-0.157407	-0.436759	0.885700	-0.549400	0.784000	0.288969
07587		-0.820786	-0.419107	-0.388149	-0.188712	-0.442401	0.876738	-0.539164	0.792863	0.284026
07588		-0.819811	-0.396996	-0.412678	-0.219125	-0.448326	0.866596	-0.529050	0.800873	0.280551
07589		-0.817641	-0.375261	-0.436627	-0.248690	-0.453780	0.855709	-0.519246	0.808247	0.277705
07590		-0.814313	-0.353428	-0.460417	-0.278068	-0.458737	0.843942	-0.509483	0.815260	0.275278
07591		-0.810107	-0.331424	-0.483616	-0.306719	-0.463415	0.831366	-0.499650	0.821830	0.273761
07592		-0.805077	-0.308072	-0.506895	-0.335671	-0.467944	0.817529	-0.489056	0.828324	0.273321
07593		-0.799159	-0.283728	-0.529946	-0.364578	-0.472172	0.802581	-0.477941	0.834597	0.273899
07594		-0.792096	-0.258232	-0.553082	-0.393688	-0.476319	0.786212	-0.466469	0.840498	0.275628
07595		-0.783702	-0.232921	-0.575812	-0.422256	-0.480087	0.768906	-0.455535	0.845733	0.277893
07596		-0.773314	-0.208907	-0.598617	-0.449900	-0.484454	0.750263	-0.446738	0.849507	0.280648
07597		-0.761157	-0.186554	-0.621158	-0.476782	-0.488327	0.730901	-0.439681	0.852487	0.282748
07598		-0.747342	-0.164819	-0.643672	-0.503707	-0.491225	0.710617	-0.433311	0.855297	0.284093
07599		-0.732509	-0.143240	-0.665518	-0.530786	-0.491964	0.690100	-0.426260	0.858751	0.284338
07600		-0.716719	-0.120139	-0.686936	-0.559088	-0.489776	0.668985	-0.416816	0.863531	0.283864
07601		-0.701052	-0.095428	-0.706696	-0.587426	-0.484570	0.648168	-0.404297	0.869532	0.283652
07602		-0.684915	-0.070306	-0.725223	-0.615689	-0.476420	0.627655	-0.389639	0.876402	0.283020
07603		-0.668377	-0.046736	-0.742353	-0.642772	-0.465954	0.608055	-0.374321	0.883574	0.281392
07604		-0.651435	-0.024377	-0.758313	-0.668455	-0.454342	0.588847	-0.358888	0.890494	0.279679
07605		-0.634354	-0.002959	-0.773037	-0.693033	-0.440863	0.570390	-0.342491	0.897569	0.277613
07606		-0.616498	0.017573	-0.787160	-0.716754	-0.426307	0.551839	-0.325875	0.904408	0.275412
07607		-0.597937	0.037098	-0.800684	-0.739141	-0.411945	0.532891	-0.310069	0.910453	0.273737
07608		-0.578135	0.056029	-0.814015	-0.760609	-0.398133	0.512800	-0.295354	0.915615	0.272791
07609		-0.557245	0.074152	-0.827030	-0.781321	-0.384002	0.492017	-0.281098	0.920350	0.271920
07610		-0.535136	0.091594	-0.839786	-0.801449	-0.369293	0.470428	-0.267038	0.924788	0.271029
07611		-0.512672	0.108430	-0.851710	-0.820656	-0.353467	0.448981	-0.252369	0.929142	0.270196
07612		-0.489991	0.125318	-0.862673	-0.839025	-0.336312	0.427704	-0.236528	0.933375	0.269935
07613		-0.467739	0.142361	-0.872326	-0.856243	-0.317793	0.407253	-0.219243	0.937412	0.270540
07614		-0.445389	0.159867	-0.880949	-0.872799	-0.296904	0.387389	-0.199627	0.941430	0.271769
07615		-0.423377	0.177568	-0.888381	-0.888260	-0.274219	0.368509	-0.178175	0.945132	0.273825
07616		-0.401446	0.195722	-0.894726	-0.902729	-0.249525	0.350453	-0.154665	0.948383	0.276855
07617		-0.380005	0.214346	-0.899807	-0.915910	-0.223123	0.333655	-0.129250	0.950932	0.281109
07618		-0.358259	0.233171	-0.904036	-0.927993	-0.195110	0.317429	-0.102371	0.952661	0.286281
07619		-0.336348	0.251542	-0.907522	-0.938864	-0.164797	0.302286	-0.073520	0.953713	0.291592
07620		-0.314099	0.269583	-0.910311	-0.948388	-0.133139	0.287809	-0.043610	0.953729	0.297488
07621		-0.291915	0.287776	-0.912124	-0.956355	-0.100875	0.274245	-0.013089	0.952370	0.304663
07622		-0.269376	0.306456	-0.912974	-0.962878	-0.068572	0.261083	0.017406	0.949412	0.313551
07623		-0.246756	0.325574	-0.912750	-0.967915	-0.036675	0.248587	0.047459	0.944805	0.324177
07624		-0.223226	0.345552	-0.911462	-0.971697	-0.004738	0.236182	0.077295	0.938388	0.336829
07625		-0.199078	0.365807	-0.909150	-0.974245	0.026372	0.223943	0.105896	0.930317	0.351136
07626		-0.174311	0.385578	-0.906060	-0.975749	0.056083	0.211584	0.132397	0.920969	0.366452
07627		-0.149478	0.404576	-0.902205	-0.976295	0.084069	0.199453	0.156541	0.910632	0.382419
07628		-0.124367	0.422278	-0.897894	-0.976045	0.110745	0.187274	0.178519	0.899676	0.398390
07629		-0.099731	0.438562	-0.893150	-0.975085	0.135677	0.175501	0.198148	0.888400	0.414104
07630		-0.076068	0.453615	-0.887946	-0.973560	0.158582	0.164416	0.215393	0.876975	0.429558
07631		-0.053781	0.468303	-0.881930	-0.971195	0.180790	0.155224	0.232136	0.864874	0.445091
07632		-0.032545	0.483033	-0.874997	-0.967882	0.203127	0.148133	0.249289	0.851715	0.460909
07633		-0.012827	0.497360	-0.867449	-0.963690	0.225251	0.143400	0.266715	0.837792	0.476412
07634		0.005471	0.511053	-0.859532	-0.958954	0.246373	0.140383	0.283509	0.823483	0.491425
07635		0.022179	0.523917	-0.851481	-0.953907	0.266048	0.138852	0.299282	0.809154	0.505669
07636		0.037220	0.536016	-0.843387	-0.948621	0.284328	0.138840	0.314219	0.794886	0.519059
07637		0.050173	0.547783	-0.835115	-0.943419	0.300423	0.140379	0.327785	0.780820	0.531862
07638		0.061963	0.559779	-0.826322	-0.938097	0.315348	0.143283	0.340786	0.766292	0.544667
07639		0.072134	0.571515	-0.817415	-0.933140	0.328072	0.147034	0.352203	0.752156	0.556969
07640		0.080084	0.582170	-0.809114	-0.928835	0.338158	0.151376	0.361735	0.739410	0.567821
07641		0.085456	0.591692	-0.801622	-0.925225	0.345643	0.156493	0.369671	0.728307	0.576985
07642		0.088084	0.599938	-0.795183	-0.922444	0.350414	0.162195	0.375950	0.719225	0.584275
07643		0.088058	0.607550	-0.789385	-0.920465	0.352558	0.168665	0.380776	0.711749	0.590274
07644		0.085337	0.614818	-0.784039	-0.919272	0.352071	0.176027	0.384262	0.705723	0.595229
07645		0.079940	0.621938	-0.778976	-0.918841	0.348945	0.184306	0.386447	0.701021	0.599356
07646		0.071817	0.628879	-0.774179	-0.918960	0.343468	0.193757	0.387756	0.697524	0.602582
07647		0.061459	0.635810	-0.769395	-0.919460	0.335993	0.204210	0.388350	0.694877	0.605252
07648		0.048705	0.642414	-0.764808	-0.920351	0.326354	0.215517	0.388049	0.693395	0.607142
07649		0.033890	0.648660	-0.760324	-0.921564	0.314671	0.227381	0.386745	0.692981	0.608445
07650		0.016722	0.654261	-0.756084	-0.922939	0.300958	0.240015	0.384582	0.693806	0.608876
07651		-0.002500	0.659356	-0.751827	-0.924388	0.285259	0.253247	0.381445	0.695613	0.608788
07652		-0.024242	0.663862	-0.747462	-0.925717	0.267380	0.267499	0.377439	0.698423	0.608067
07653		-0.047949	0.668013	-0.742603	-0.926818	0.247455	0.282443	0.372436	0.701801	0.607261
07654		-0.073705	0.671661	-0.737183	-0.927357	0.225750	0.298404	0.366846	0.705626	0.606231
07655		-0.101415	0.674602	-0.731182	-0.927189	0.202315	0.315261	0.360605	0.709916	0.604966
07656		-0.131287	0.676680	-0.724478	-0.925865	0.177500	0.333570	0.354314	0.714562	0.603210
07657		-0.162632	0.677998	-0.716847	-0.923318	0.151591	0.352850	0.347899	0.719263	0.601355
07658		-0.195971	0.678067	-0.708393	-0.919387	0.124206	0.373230	0.341062	0.724429	0.599066
07659		-0.230483	0.677219	-0.698750	-0.914025	0.095670	0.394214	0.333819	0.729535	0.596945
07660		-0.266221	0.675187	-0.687931	-0.907005	0.066122	0.415896	0.326295	0.734677	0.594795
07661		-0.302990	0.670794	-0.676928	-0.898964	0.034596	0.436654	0.316324	0.740836	0.592538
07662		-0.340688	0.663882	-0.665726	-0.889088	0.002741	0.457728	0.305702	0.747832	0.589316
07663		-0.378617	0.654854	-0.654076	-0.878212	-0.031062	0.477262	0.292220	0.755117	0.586861
07664		-0.417242	0.643680	-0.641549	-0.866033	-0.067620	0.495393	0.275493	0.762301	0.585662
07665		-0.455691	0.630778	-0.628065	-0.852282	-0.105603	0.512312	0.256830	0.768744	0.585722
07666		-0.494258	0.615667	-0.613729	-0.836539	-0.144812	0.528425	0.236458	0.774586	0.586603
07667		-0.532571	0.598442	-0.598527	-0.818721	-0.184931	0.543596	0.214624	0.779530	0.588446
07668		-0.570808	0.579010	-0.582174	-0.798330	-0.225603	0.558366	0.191959	0.783486	0.591017
07669		-0.608106	0.557762	-0.564897	-0.775777	-0.266529	0.571954	0.168453	0.786043	0.594777
07670		-0.644886	0.533915	-0.546861	-0.750591	-0.307626	0.584791	0.144000	0.787592	0.599135
07671		-0.680710	0.507335	-0.528437	-0.722891	-0.348436	0.596675	0.118588	0.788165	0.603932
07672		-0.715141	0.478645	-0.509383	-0.692758	-0.388337	0.607684	0.093053	0.787460	0.609301
07673		-0.746792	0.449155	-0.490471	-0.661519	-0.425700	0.617391	0.068510	0.785518	0.615034
07674		-0.776227	0.418028	-0.471937	-0.628911	-0.461083	0.625998	0.044082	0.782723	0.620808
07675		-0.803096	0.385965	-0.453947	-0.595441	-0.491626	0.635416	0.022076	0.780599	0.624642
07676		-0.827281	0.353167	-0.436898	-0.561789	-0.520599	0.642938	-0.000384	0.777335	0.629087
07677		-0.849622	0.318104	-0.420657	-0.526830	-0.548747	0.649097	-0.024354	0.773102	0.633814
07678		-0.870962	0.280221	-0.403610	-0.488825	-0.577327	0.654021	-0.049744	0.766923	0.639809
07679		-0.890629	0.240905	-0.385674	-0.448728	-0.602951	0.659616	-0.073638	0.760536	0.645106
07680		-0.908562	0.198655	-0.367494	-0.406132	-0.626063	0.665659	-0.097838	0.754043	0.649497
07681		-0.924377	0.154021	-0.349006	-0.361310	-0.647025	0.671426	-0.122402	0.746750	0.653744
07682		-0.938138	0.109063	-0.328638	-0.314567	-0.665127	0.677239	-0.144724	0.738722	0.658289
07683		-0.949300	0.065207	-0.307535	-0.268309	-0.677851	0.684491	-0.163830	0.732302	0.660980
07684		-0.957576	0.021041	-0.287411	-0.223948	-0.682013	0.696208	-0.181369	0.731037	0.657792
07685		-0.963100	-0.022473	-0.268204	-0.182048	-0.679570	0.710664	-0.198234	0.733266	0.650403
07686		-0.965832	-0.065256	-0.250818	-0.143418	-0.671518	0.726976	-0.215869	0.738109	0.639215
07687		-0.966199	-0.105794	-0.235089	-0.108525	-0.660259	0.743156	-0.233841	0.743550	0.626460
07688		-0.964655	-0.144584	-0.220308	-0.075483	-0.649394	0.756697	-0.252473	0.746581	0.615527
07689		-0.961847	-0.179850	-0.206168	-0.044746	-0.640007	0.767065	-0.269906	0.747024	0.607541
07690		-0.957576	-0.213349	-0.193725	-0.015793	-0.632376	0.774501	-0.287746	0.744703	0.602179
07691		-0.951770	-0.246530	-0.182641	0.012822	-0.626723	0.779137	-0.306546	0.739217	0.599656
07692		-0.944867	-0.278841	-0.171683	0.040742	-0.620328	0.783283	-0.324911	0.733103	0.597488
07693		-0.937219	-0.309541	-0.160641	0.066590	-0.610994	0.788830	-0.342326	0.728609	0.593247
07694		-0.929155	-0.337936	-0.149904	0.089528	-0.599099	0.795654	-0.358687	0.725865	0.586910
07695		-0.921024	-0.363528	-0.139866	0.110057	-0.587338	0.801824	-0.373634	0.723105	0.580962
07696		-0.912655	-0.387113	-0.131165	0.128961	-0.577244	0.806324	-0.387853	0.718980	0.576747
07697		-0.903594	-0.409759	-0.124963	0.145879	-0.568587	0.809585	-0.402788	0.713306	0.573547
07698		-0.894335	-0.430951	-0.120192	0.160264	-0.559406	0.813253	-0.417708	0.708058	0.569362
07699		-0.885608	-0.449820	-0.115590	0.171291	-0.547686	0.818962	-0.431692	0.705480	0.562085
07700		-0.877448	-0.466619	-0.111140	0.179037	-0.533549	0.826603	-0.445007	0.705402	0.551703
07701		-0.869877	-0.481376	-0.107660	0.184589	-0.520074	0.833936	-0.457428	0.705549	0.541257
07702		-0.862637	-0.494624	-0.105852	0.189235	-0.509648	0.839314	-0.469092	0.703993	0.533242
07703		-0.855812	-0.506516	-0.105009	0.194531	-0.503235	0.841969	-0.479315	0.700140	0.529207
07704		-0.849698	-0.516848	-0.104317	0.201270	-0.500798	0.841838	-0.487344	0.694312	0.529553
07705		-0.844715	-0.525143	-0.103352	0.208316	-0.500466	0.840320	-0.493013	0.688301	0.532147
07706		-0.840918	-0.531334	-0.102667	0.215251	-0.502469	0.837372	-0.496511	0.682063	0.536905
07707		-0.838037	-0.535873	-0.102635	0.222226	-0.507035	0.832785	-0.498306	0.675097	0.543999
07708		-0.836104	-0.538723	-0.103478	0.227726	-0.512467	0.827960	-0.499070	0.668697	0.551157
07709		-0.835101	-0.539987	-0.104973	0.230920	-0.517317	0.824050	-0.499281	0.663925	0.556706
07710		-0.835104	-0.539614	-0.106853	0.231470	-0.520917	0.821625	-0.499022	0.661409	0.559924
07711		-0.836010	-0.537828	-0.108753	0.230096	-0.523544	0.820340	-0.498139	0.660789	0.561440
07712		-0.838119	-0.534209	-0.110347	0.227108	-0.525653	0.819824	-0.495962	0.662050	0.561883
07713		-0.841480	-0.528713	-0.111238	0.222377	-0.526562	0.820537	-0.492403	0.665729	0.560664
07714		-0.845657	-0.521800	-0.112204	0.215393	-0.525997	0.822759	-0.488334	0.671604	0.557205
07715		-0.850697	-0.513257	-0.113497	0.205601	-0.523601	0.826783	-0.483780	0.680007	0.550952
07716		-0.856312	-0.503395	-0.115429	0.193070	-0.519317	0.832487	-0.479014	0.690582	0.541888
07717		-0.861840	-0.493262	-0.118002	0.179577	-0.514368	0.838557	-0.474325	0.701511	0.531881
07718		-0.867113	-0.483173	-0.121072	0.166152	-0.509704	0.844154	-0.469583	0.711860	0.522251
07719		-0.872153	-0.473149	-0.124416	0.153198	-0.505644	0.849031	-0.464629	0.721425	0.513484
07720		-0.876812	-0.463327	-0.128565	0.140951	-0.503304	0.852536	-0.459710	0.729393	0.506609
07721		-0.881110	-0.453689	-0.133456	0.129157	-0.502334	0.854973	-0.454932	0.736089	0.501209
07722		-0.885123	-0.444109	-0.139012	0.117639	-0.502556	0.856504	-0.450242	0.741758	0.497068
07723		-0.889026	-0.434395	-0.144684	0.106297	-0.503193	0.857612	-0.445346	0.747060	0.493527
07724		-0.893102	-0.423876	-0.150655	0.094548	-0.504287	0.858345	-0.439805	0.752345	0.490457
07725		-0.897425	-0.412316	-0.156918	0.082051	-0.505478	0.858930	-0.433469	0.757950	0.487459
07726		-0.901803	-0.399869	-0.163876	0.068770	-0.507171	0.859097	-0.426640	0.763467	0.484868
07727		-0.906065	-0.386918	-0.171292	0.055075	-0.509206	0.858881	-0.419539	0.768768	0.482683
07728		-0.910291	-0.373127	-0.179292	0.040700	-0.511674	0.858215	-0.411963	0.773929	0.480958
07729		-0.914237	-0.358921	-0.188007	0.025979	-0.514980	0.856808	-0.404346	0.778442	0.480138
07730		-0.917717	-0.344399	-0.197951	0.010316	-0.518816	0.854824	-0.397100	0.782444	0.479679
07731		-0.920835	-0.329204	-0.209016	-0.006896	-0.522171	0.852813	-0.389891	0.786741	0.478563
07732		-0.923649	-0.312918	-0.221259	-0.026161	-0.524510	0.851002	-0.382346	0.791816	0.476277
07733		-0.926021	-0.295992	-0.234253	-0.046818	-0.525728	0.849363	-0.374558	0.797495	0.472978
07734		-0.927926	-0.278340	-0.247953	-0.068706	-0.526071	0.847661	-0.366379	0.803602	0.469031
07735		-0.929347	-0.260026	-0.262110	-0.091684	-0.525153	0.846055	-0.357644	0.810309	0.464209
07736		-0.930047	-0.241597	-0.276845	-0.115153	-0.523840	0.843997	-0.348929	0.816837	0.459376
07737		-0.929889	-0.223287	-0.292316	-0.139081	-0.522266	0.841365	-0.340532	0.823032	0.454595
07738		-0.928596	-0.205269	-0.309151	-0.163725	-0.520996	0.837710	-0.333022	0.828510	0.450187
07739		-0.926097	-0.187806	-0.327221	-0.188950	-0.519827	0.833113	-0.326562	0.833372	0.445925
07740		-0.922462	-0.170059	-0.346619	-0.215391	-0.518405	0.827565	-0.320424	0.838055	0.441579
07741		-0.917999	-0.151675	-0.366432	-0.242729	-0.515807	0.821599	-0.313624	0.843171	0.436695
07742		-0.912987	-0.132593	-0.385842	-0.270311	-0.511776	0.815486	-0.305592	0.848825	0.431404
07743		-0.907605	-0.113355	-0.404231	-0.297083	-0.506919	0.809181	-0.296638	0.854508	0.426407
07744		-0.901566	-0.094409	-0.422214	-0.323184	-0.501838	0.802316	-0.287629	0.859794	0.421929
07745		-0.894524	-0.076136	-0.440488	-0.348958	-0.496925	0.794540	-0.279382	0.864447	0.417943
07746		-0.885828	-0.057490	-0.460438	-0.376080	-0.492283	0.784998	-0.271795	0.868534	0.414458
07747		-0.875191	-0.038056	-0.482278	-0.405520	-0.485905	0.774242	-0.263806	0.873183	0.409827
07748		-0.862878	-0.019046	-0.505054	-0.435497	-0.479095	0.762109	-0.256484	0.877556	0.405107
07749		-0.849616	0.001280	-0.527401	-0.465736	-0.471051	0.749134	-0.247473	0.882105	0.400808
07750		-0.835589	0.022495	-0.548895	-0.495918	-0.460741	0.736059	-0.236341	0.887249	0.396146
07751		-0.820728	0.043133	-0.569689	-0.525487	-0.448312	0.723104	-0.224209	0.892836	0.390608
07752		-0.803909	0.062241	-0.591486	-0.555532	-0.433745	0.709401	-0.212400	0.898884	0.383268
07753		-0.786447	0.082038	-0.612185	-0.584697	-0.418329	0.695076	-0.199072	0.904583	0.376961
07754		-0.767455	0.102076	-0.632925	-0.613720	-0.402424	0.679266	-0.185367	0.909745	0.371489
07755		-0.746980	0.121016	-0.653740	-0.641807	-0.387871	0.661544	-0.173510	0.913735	0.367401
07756		-0.724630	0.139063	-0.674961	-0.669544	-0.373959	0.641767	-0.163161	0.916960	0.364091
07757		-0.700615	0.156577	-0.696148	-0.696902	-0.359612	0.620490	-0.153188	0.919871	0.361068
07758		-0.676020	0.174338	-0.715963	-0.722903	-0.345264	0.598501	-0.142855	0.922171	0.359435
07759		-0.651294	0.191696	-0.734213	-0.747159	-0.331012	0.576354	-0.132548	0.923950	0.358814
07760		-0.625642	0.207010	-0.752143	-0.770678	-0.313488	0.554780	-0.120943	0.926754	0.355669
07761		-0.599916	0.222738	-0.768433	-0.792865	-0.294065	0.533752	-0.107082	0.929469	0.353016
07762		-0.572722	0.239730	-0.783913	-0.814848	-0.270907	0.512476	-0.089512	0.932276	0.350498
07763		-0.544052	0.256536	-0.798872	-0.836019	-0.246621	0.490154	-0.071277	0.934541	0.348644
07764		-0.514183	0.273244	-0.812991	-0.856025	-0.222368	0.466663	-0.053271	0.935890	0.348241
07765		-0.483035	0.289230	-0.826452	-0.874913	-0.196832	0.442475	-0.034696	0.936805	0.348128
07766		-0.450744	0.305015	-0.838925	-0.892490	-0.171952	0.417006	-0.017062	0.936696	0.349729
07767		-0.418498	0.319485	-0.850170	-0.908217	-0.148544	0.391251	-0.001289	0.935876	0.352326
07768		-0.385703	0.332885	-0.860477	-0.922519	-0.125119	0.365109	0.013878	0.934630	0.355351
07769		-0.352354	0.345549	-0.869737	-0.935459	-0.102597	0.338218	0.027639	0.932776	0.359397
07770		-0.317923	0.356925	-0.878368	-0.947255	-0.080085	0.310314	0.040415	0.930694	0.363560
07771		-0.282652	0.366789	-0.886326	-0.957765	-0.057003	0.281845	0.052854	0.928556	0.367410
07772		-0.246743	0.375689	-0.893295	-0.966782	-0.031972	0.253595	0.066712	0.926194	0.371099
07773		-0.211294	0.384826	-0.898479	-0.973911	-0.005043	0.226874	0.082776	0.922976	0.375852
07774		-0.176818	0.394910	-0.901544	-0.979086	0.023073	0.202133	0.100626	0.918430	0.382571
07775		-0.144287	0.405531	-0.902622	-0.982329	0.051185	0.180025	0.119206	0.912647	0.390980
07776		-0.113430	0.415581	-0.902456	-0.983982	0.078741	0.159938	0.137528	0.906141	0.399992
07777		-0.084124	0.424829	-0.901356	-0.984315	0.105344	0.141518	0.155074	0.899123	0.409304
07778		-0.055577	0.433296	-0.899536	-0.983697	0.130561	0.123666	0.171029	0.891744	0.418976
07779		-0.028363	0.440560	-0.897275	-0.982371	0.153646	0.106492	0.184779	0.884477	0.428436
07780		-0.002254	0.445786	-0.895137	-0.980102	0.176684	0.090458	0.198481	0.877529	0.436517
07781		0.021951	0.449722	-0.892899	-0.977079	0.198806	0.076111	0.211743	0.870762	0.443778
07782		0.044264	0.453303	-0.890257	-0.973605	0.219299	0.063255	0.223906	0.863958	0.451045
07783		0.064388	0.456165	-0.887563	-0.969796	0.238287	0.052114	0.235267	0.857399	0.457730
07784		0.082410	0.458124	-0.885060	-0.966042	0.254945	0.042015	0.244890	0.851543	0.463577
07785		0.098080	0.459023	-0.882994	-0.962570	0.269025	0.032932	0.252664	0.846714	0.468227
07786		0.111352	0.458626	-0.881625	-0.959597	0.280300	0.024613	0.258408	0.843264	0.471308
07787		0.122125	0.457097	-0.880993	-0.957181	0.288977	0.017247	0.262470	0.841163	0.472816
07788		0.130518	0.455005	-0.880872	-0.955161	0.295872	0.011304	0.265769	0.839899	0.473219
07789		0.136688	0.452767	-0.881089	-0.953257	0.302071	0.007342	0.269476	0.838901	0.472893
07790		0.140021	0.450683	-0.881634	-0.951571	0.307371	0.005997	0.273692	0.838098	0.471896
07791		0.140312	0.449277	-0.882305	-0.950191	0.311575	0.007549	0.278296	0.837300	0.470617
07792		0.137222	0.448179	-0.883349	-0.949331	0.314053	0.011867	0.282738	0.836963	0.468565
07793		0.131112	0.447705	-0.884517	-0.949331	0.313757	0.018092	0.285623	0.837327	0.466158
07794		0.122489	0.447753	-0.885728	-0.949758	0.311875	0.026315	0.288019	0.838004	0.463459
07795		0.111197	0.447921	-0.887131	-0.950512	0.308522	0.036634	0.290109	0.839155	0.460061
07796		0.097273	0.448532	-0.888458	-0.951698	0.303128	0.048835	0.291220	0.840793	0.456353
07797		0.081010	0.450053	-0.889320	-0.953077	0.296094	0.063025	0.291687	0.842485	0.452922
07798		0.062500	0.452837	-0.889400	-0.954443	0.287641	0.079381	0.291775	0.843920	0.450185
07799		0.042173	0.456566	-0.888690	-0.955605	0.278052	0.097501	0.291618	0.845124	0.448023
07800		0.019671	0.460483	-0.887451	-0.956775	0.266276	0.116958	0.290164	0.846790	0.445816
07801		-0.004637	0.464458	-0.885583	-0.957608	0.253023	0.137716	0.288036	0.848680	0.443596
07802		-0.030988	0.468278	-0.883038	-0.958326	0.237096	0.159363	0.283990	0.851177	0.441416
07803		-0.059289	0.471852	-0.879682	-0.958625	0.218882	0.182015	0.278431	0.854076	0.439352
07804		-0.089465	0.475611	-0.875094	-0.958015	0.199208	0.206212	0.272402	0.856802	0.437820
07805		-0.121345	0.479462	-0.869133	-0.956433	0.177762	0.231596	0.265540	0.859370	0.437003
07806		-0.154963	0.483248	-0.861660	-0.953554	0.154884	0.258353	0.258306	0.861674	0.436802
07807		-0.189724	0.487096	-0.852492	-0.949200	0.131013	0.286105	0.251048	0.863466	0.437495
07808		-0.226018	0.490398	-0.841680	-0.943155	0.105966	0.315008	0.243669	0.865033	0.438571
07809		-0.263540	0.492769	-0.829292	-0.935376	0.079636	0.344573	0.235837	0.866508	0.439937
07810		-0.302236	0.494061	-0.815204	-0.925562	0.052459	0.374944	0.228010	0.867843	0.441429
07811		-0.341592	0.493615	-0.799787	-0.913837	0.024377	0.405348	0.219582	0.869339	0.442757
07812		-0.381496	0.491361	-0.782959	-0.899999	-0.004226	0.435871	0.210861	0.870946	0.443837
07813		-0.421322	0.487744	-0.764587	-0.884279	-0.033766	0.465737	0.201344	0.872333	0.445528
07814		-0.461259	0.482437	-0.744644	-0.866460	-0.064244	0.495095	0.191013	0.873572	0.447646
07815		-0.500109	0.475820	-0.723523	-0.847078	-0.095267	0.522860	0.179859	0.874368	0.450700
07816		-0.537758	0.467801	-0.701412	-0.826116	-0.126228	0.549180	0.168369	0.874773	0.454338
07817		-0.573887	0.458411	-0.678611	-0.803857	-0.157050	0.573716	0.156422	0.874754	0.458626
07818		-0.608970	0.447232	-0.655087	-0.780042	-0.187899	0.596849	0.143840	0.874458	0.463284
07819		-0.642725	0.434362	-0.631057	-0.754902	-0.218783	0.618270	0.130489	0.873764	0.468518
07820		-0.675310	0.419621	-0.606527	-0.728470	-0.250963	0.637455	0.115274	0.872317	0.475159
07821		-0.706071	0.403427	-0.581989	-0.701278	-0.284208	0.653785	0.098349	0.869755	0.483585
07822		-0.735410	0.385713	-0.557133	-0.672813	-0.317857	0.668049	0.080586	0.866137	0.493268
07823		-0.763371	0.366232	-0.532107	-0.643170	-0.354452	0.678746	0.059973	0.860371	0.506128
07824		-0.790108	0.344639	-0.506905	-0.611817	-0.392772	0.686593	0.037529	0.852616	0.521189
07825		-0.815117	0.321482	-0.481907	-0.579119	-0.431638	0.691599	0.014327	0.842816	0.538012
07826		-0.838846	0.297011	-0.456204	-0.544302	-0.470754	0.694353	-0.008529	0.830768	0.556554
07827		-0.861243	0.271151	-0.429811	-0.507249	-0.510212	0.694538	-0.030970	0.816187	0.576957
07828		-0.882129	0.243091	-0.403429	-0.467924	-0.550148	0.691654	-0.053810	0.798902	0.599050
07829		-0.900966	0.212836	-0.378102	-0.426977	-0.589843	0.685402	-0.077142	0.778965	0.622305
07830		-0.917952	0.180983	-0.353001	-0.384268	-0.626642	0.677981	-0.098502	0.758001	0.644773
07831		-0.933152	0.147837	-0.327675	-0.339615	-0.661377	0.668761	-0.117849	0.735339	0.667374
07832		-0.946607	0.112496	-0.302127	-0.292583	-0.693338	0.658542	-0.135393	0.711777	0.689233
07833		-0.958253	0.076358	-0.275538	-0.243643	-0.722390	0.647140	-0.149632	0.687257	0.710836
07834		-0.967959	0.039227	-0.248026	-0.192989	-0.748153	0.634840	-0.160659	0.662366	0.731752
07835		-0.975313	0.000790	-0.220827	-0.141652	-0.769393	0.622872	-0.169411	0.638776	0.750510
07836		-0.980261	-0.039022	-0.193817	-0.089509	-0.786508	0.611059	-0.176284	0.616346	0.767491
07837		-0.982514	-0.081179	-0.167562	-0.035972	-0.800232	0.598611	-0.182683	0.594171	0.783319
07838		-0.982145	-0.124272	-0.141234	0.017689	-0.808429	0.588328	-0.187290	0.575325	0.796193
07839		-0.979598	-0.165857	-0.113487	0.069867	-0.810543	0.581497	-0.188432	0.561705	0.805594
07840		-0.974687	-0.206609	-0.085431	0.120959	-0.808672	0.575689	-0.188028	0.550783	0.813193
07841		-0.967820	-0.245071	-0.057139	0.168823	-0.800715	0.574765	-0.186610	0.546623	0.816321
07842		-0.959248	-0.281045	-0.029264	0.213128	-0.787633	0.578110	-0.185524	0.548314	0.815434
07843		-0.949362	-0.314173	-0.002662	0.253247	-0.770215	0.585350	-0.185951	0.555035	0.810776
07844		-0.938024	-0.345972	0.020382	0.289876	-0.750981	0.593296	-0.189957	0.562434	0.804726
07845		-0.925464	-0.376944	0.037797	0.323489	-0.734392	0.596677	-0.197156	0.564430	0.801591
07846		-0.912801	-0.405393	0.049513	0.352615	-0.721126	0.596355	-0.206053	0.561812	0.801192
07847		-0.900153	-0.432118	0.054763	0.376956	-0.709837	0.595010	-0.218242	0.556243	0.801851
07848		-0.888357	-0.455810	0.055307	0.396016	-0.699663	0.594679	-0.232364	0.550189	0.802059
07849		-0.878198	-0.475381	0.052747	0.408479	-0.688057	0.599769	-0.248826	0.548262	0.798433
07850		-0.869840	-0.490869	0.049245	0.415203	-0.674517	0.610437	-0.266428	0.551430	0.790532
07851		-0.863445	-0.502311	0.046327	0.416600	-0.658287	0.626978	-0.284442	0.560661	0.777658
07852		-0.859067	-0.509897	0.044812	0.413484	-0.639688	0.647943	-0.301719	0.575155	0.760370
07853		-0.855986	-0.515176	0.043367	0.408366	-0.622301	0.667817	-0.317056	0.589351	0.743062
07854		-0.853582	-0.519393	0.040346	0.402809	-0.608901	0.683363	-0.330367	0.599558	0.728963
07855		-0.851491	-0.523228	0.034579	0.397403	-0.600889	0.693544	-0.342103	0.604288	0.719584
07856		-0.850204	-0.525805	0.026100	0.391933	-0.599081	0.698205	-0.351484	0.603847	0.715422
07857		-0.850303	-0.526044	0.016227	0.386328	-0.602933	0.698013	-0.357401	0.599792	0.715901
07858		-0.852228	-0.523147	0.005006	0.379356	-0.611340	0.694516	-0.360274	0.593785	0.719460
07859		-0.855477	-0.517784	-0.007650	0.371155	-0.623385	0.688211	-0.361113	0.585910	0.725470
07860		-0.859987	-0.509828	-0.022297	0.360512	-0.637880	0.680544	-0.361183	0.577221	0.732368
07861		-0.865568	-0.499264	-0.039092	0.346509	-0.653436	0.673017	-0.361557	0.568996	0.738593
07862		-0.871665	-0.486579	-0.058665	0.328572	-0.668990	0.666703	-0.363650	0.561866	0.743011
07863		-0.878025	-0.471747	-0.080791	0.306605	-0.684016	0.661903	-0.367513	0.556396	0.745223
07864		-0.884614	-0.454471	-0.104473	0.281592	-0.699176	0.657160	-0.371705	0.551914	0.746476
07865		-0.891299	-0.434785	-0.128640	0.254302	-0.714241	0.652066	-0.375388	0.548473	0.747169
07866		-0.897517	-0.413415	-0.153464	0.225267	-0.728997	0.646388	-0.379101	0.545574	0.747416
07867		-0.903282	-0.390181	-0.178438	0.194167	-0.742622	0.640946	-0.382597	0.544308	0.746558
07868		-0.908791	-0.364396	-0.203260	0.160241	-0.754584	0.636338	-0.385255	0.545728	0.744150
07869		-0.913378	-0.337020	-0.228380	0.123684	-0.764178	0.633035	-0.387869	0.549954	0.739668
07870		-0.916957	-0.307936	-0.253701	0.084996	-0.772034	0.629872	-0.389827	0.556002	0.734096
07871		-0.919410	-0.277334	-0.278875	0.044347	-0.777643	0.627141	-0.390793	0.564232	0.727271
07872		-0.920224	-0.245577	-0.304762	0.001714	-0.781182	0.624301	-0.391388	0.573975	0.719283
07873		-0.918994	-0.213429	-0.331507	-0.042358	-0.782500	0.621208	-0.391988	0.584928	0.710073
07874		-0.915816	-0.180789	-0.358605	-0.087193	-0.782130	0.616984	-0.392020	0.596312	0.700524
07875		-0.910864	-0.147924	-0.385286	-0.132305	-0.779628	0.612108	-0.390925	0.608522	0.690564
07876		-0.904341	-0.114735	-0.411099	-0.176662	-0.776184	0.605251	-0.388532	0.619979	0.681666
07877		-0.896202	-0.082626	-0.435883	-0.219249	-0.771650	0.597064	-0.385683	0.630658	0.673439
07878		-0.886335	-0.051092	-0.460217	-0.261175	-0.765546	0.587986	-0.382359	0.641350	0.665186
07879		-0.874431	-0.020665	-0.484710	-0.302792	-0.757373	0.578535	-0.379062	0.652655	0.656013
07880		-0.859684	0.009222	-0.510744	-0.344883	-0.748043	0.566999	-0.376829	0.663586	0.646261
07881		-0.841746	0.037650	-0.538559	-0.386082	-0.739265	0.551750	-0.377365	0.672361	0.636809
07882		-0.820761	0.065296	-0.567528	-0.426831	-0.730382	0.533252	-0.379693	0.679911	0.627339
07883		-0.797151	0.091021	-0.596879	-0.466528	-0.720396	0.513207	-0.383277	0.687564	0.616728
07884		-0.771656	0.115288	-0.625505	-0.504320	-0.710155	0.491266	-0.387568	0.694542	0.606137
07885		-0.744602	0.137810	-0.653128	-0.539538	-0.700359	0.467328	-0.393022	0.700361	0.595843
07886		-0.715704	0.159064	-0.680049	-0.572927	-0.690568	0.441441	-0.399403	0.705559	0.585374
07887		-0.684965	0.179843	-0.706031	-0.605435	-0.679584	0.414264	-0.405305	0.711212	0.574374
07888		-0.651992	0.200120	-0.731340	-0.637681	-0.666548	0.386104	-0.410206	0.718098	0.562197
07889		-0.617577	0.219148	-0.755362	-0.669172	-0.651066	0.358220	-0.413288	0.726696	0.548731
07890		-0.582337	0.237346	-0.777528	-0.699967	-0.632796	0.331081	-0.413436	0.737045	0.534635
07891		-0.546982	0.254004	-0.797680	-0.729767	-0.611557	0.305676	-0.410184	0.749320	0.519874
07892		-0.511427	0.268415	-0.816330	-0.758118	-0.588205	0.281551	-0.404597	0.762868	0.504315
07893		-0.476507	0.280382	-0.833263	-0.784876	-0.562700	0.259496	-0.396119	0.777660	0.488195
07894		-0.442385	0.290971	-0.848311	-0.810652	-0.534317	0.239475	-0.383586	0.793625	0.472250
07895		-0.409122	0.300771	-0.861485	-0.835730	-0.502510	0.221449	-0.366299	0.810568	0.456951
07896		-0.375776	0.310231	-0.873241	-0.860481	-0.466636	0.204506	-0.344042	0.828255	0.442299
07897		-0.342813	0.318249	-0.883854	-0.884019	-0.427573	0.188921	-0.317788	0.846108	0.427916
07898		-0.310193	0.324714	-0.893499	-0.905929	-0.385908	0.174262	-0.288223	0.863502	0.413874
07899		-0.278481	0.329550	-0.902134	-0.925728	-0.342347	0.160705	-0.255883	0.879884	0.400410
07900		-0.247257	0.333415	-0.909779	-0.943088	-0.298291	0.146992	-0.222370	0.894347	0.388194
07901		-0.216664	0.336617	-0.916377	-0.958022	-0.253840	0.133266	-0.187754	0.906782	0.377484
07902		-0.185884	0.338882	-0.922283	-0.970473	-0.210169	0.118372	-0.153722	0.917054	0.367943
07903		-0.154917	0.339703	-0.927687	-0.980438	-0.168272	0.102108	-0.121417	0.925358	0.359125
07904		-0.123383	0.338643	-0.932790	-0.988194	-0.127962	0.084255	-0.090829	0.932173	0.350433
07905		-0.091679	0.335506	-0.937566	-0.993915	-0.088554	0.065501	-0.061050	0.937867	0.341583
07906		-0.060092	0.330672	-0.941831	-0.997713	-0.049143	0.046403	-0.030940	0.942465	0.332869
07907		-0.029454	0.324696	-0.945360	-0.999566	-0.009094	0.028020	0.000501	0.945775	0.324823
07908		0.000261	0.317880	-0.948131	-0.999435	0.031963	0.010441	0.033624	0.947592	0.317709
07909		0.028490	0.310767	-0.950059	-0.997235	0.074099	-0.005667	0.068638	0.947593	0.312019
07910		0.055387	0.303337	-0.951272	-0.992959	0.116649	-0.020618	0.104710	0.945717	0.307662
07911		0.080726	0.295750	-0.951848	-0.986631	0.159351	-0.034163	0.141574	0.941881	0.304660
07912		0.104613	0.288006	-0.951897	-0.978313	0.201861	-0.046441	0.178775	0.936112	0.302877
07913		0.127135	0.280276	-0.951463	-0.967948	0.244525	-0.057307	0.216595	0.928253	0.302380
07914		0.148863	0.271868	-0.950751	-0.955981	0.285425	-0.068064	0.252863	0.919032	0.302390
07915		0.169740	0.262598	-0.949858	-0.942673	0.324280	-0.078805	0.287326	0.908782	0.302588
07916		0.190194	0.252613	-0.948690	-0.927982	0.361657	-0.089742	0.320430	0.897436	0.303205
07917		0.209953	0.242251	-0.947225	-0.912068	0.397535	-0.100492	0.352211	0.885031	0.304412
07918		0.229100	0.231190	-0.945550	-0.895072	0.431811	-0.111291	0.382569	0.871832	0.305859
07919		0.247690	0.219920	-0.943549	-0.877312	0.464123	-0.122126	0.411064	0.858036	0.307897
07920		0.266278	0.208619	-0.941050	-0.858277	0.495660	-0.132975	0.438700	0.843089	0.311036
07921		0.284814	0.197809	-0.937951	-0.837800	0.526838	-0.143295	0.465803	0.826628	0.315776
07923		0.320492	0.177182	-0.930533	-0.795388	0.583832	-0.162779	0.514434	0.792305	0.328042
07924		0.337007	0.167457	-0.926490	-0.774609	0.608673	-0.171748	0.535169	0.775548	0.334841
07925		0.352036	0.157724	-0.922602	-0.754889	0.630601	-0.180237	0.553366	0.759911	0.341058
07926		0.365189	0.148223	-0.919057	-0.736872	0.649344	-0.188073	0.568908	0.745910	0.346355
07927		0.375925	0.138957	-0.916172	-0.721361	0.664479	-0.195207	0.581652	0.734274	0.350033
07928		0.384166	0.130385	-0.914011	-0.708223	0.676731	-0.201135	0.592314	0.724593	0.352319
07929		0.389770	0.122888	-0.912676	-0.697489	0.686517	-0.205435	0.601322	0.716654	0.353297
07930		0.392930	0.117364	-0.912048	-0.689037	0.694387	-0.207497	0.608962	0.709966	0.353713
07931		0.393398	0.114137	-0.912256	-0.683085	0.700408	-0.206940	0.615332	0.704558	0.353504
07932		0.391159	0.113545	-0.913292	-0.680037	0.704314	-0.203693	0.620116	0.700749	0.352713
07933		0.386072	0.115263	-0.915239	-0.680294	0.705661	-0.198096	0.623016	0.699111	0.350849
07934		0.378495	0.119157	-0.917901	-0.683683	0.704487	-0.190463	0.623954	0.699643	0.348110
07935		0.368289	0.124876	-0.921287	-0.689794	0.701089	-0.180719	0.623336	0.702054	0.344342
07936		0.355628	0.132277	-0.925220	-0.698194	0.695699	-0.168903	0.621332	0.706050	0.339765
07937		0.340002	0.141419	-0.929731	-0.708745	0.688342	-0.154486	0.618126	0.711468	0.334267
07938		0.321587	0.152364	-0.934541	-0.720951	0.679239	-0.137347	0.613850	0.717927	0.328282
07939		0.300171	0.165088	-0.939491	-0.734578	0.668315	-0.117264	0.608517	0.725329	0.321879
07940		0.276165	0.179640	-0.944173	-0.749205	0.655575	-0.094407	0.602017	0.733451	0.315634
07941		0.249566	0.196331	-0.948246	-0.764104	0.641469	-0.068288	0.594863	0.741601	0.310106
07942		0.220887	0.215521	-0.951188	-0.777857	0.627260	-0.038511	0.588343	0.748395	0.306199
07943		0.190109	0.237129	-0.952695	-0.789783	0.613366	-0.004931	0.583182	0.753360	0.303887
07944		0.157726	0.260819	-0.952416	-0.799462	0.599870	0.031878	0.579640	0.756392	0.303131
07945		0.123413	0.285920	-0.950273	-0.806559	0.586777	0.071802	0.578128	0.757590	0.303027
07946		0.087773	0.311602	-0.946150	-0.810711	0.574257	0.113915	0.578829	0.757056	0.303023
07947		0.050318	0.337607	-0.939941	-0.811823	0.562007	0.158401	0.581731	0.755096	0.302356
07948		0.011170	0.363487	-0.931532	-0.809973	0.549572	0.204732	0.586361	0.752229	0.300553
07949		-0.030089	0.389470	-0.920547	-0.805643	0.535674	0.252970	0.591637	0.749244	0.297656
07950		-0.072263	0.415173	-0.906868	-0.799367	0.519661	0.301603	0.596481	0.746715	0.294324
07951		-0.115299	0.439961	-0.890584	-0.790690	0.502038	0.350381	0.601261	0.744575	0.289988
07952		-0.158600	0.463284	-0.871902	-0.779593	0.483133	0.398520	0.605873	0.742934	0.284548
07953		-0.201795	0.485249	-0.850772	-0.765957	0.463168	0.445852	0.610400	0.741626	0.278215
07954		-0.244054	0.505679	-0.827482	-0.749724	0.442838	0.491741	0.615103	0.740394	0.271043
07955		-0.285385	0.524661	-0.802051	-0.730540	0.422609	0.536389	0.620376	0.739008	0.262680
07956		-0.325396	0.542300	-0.774615	-0.708846	0.402283	0.579401	0.625824	0.737617	0.253506
07957		-0.364323	0.558446	-0.745256	-0.685701	0.380632	0.620430	0.630145	0.737060	0.244254
07958		-0.401930	0.572533	-0.714603	-0.662956	0.356369	0.658400	0.631618	0.738381	0.236329
07959		-0.439201	0.583916	-0.682748	-0.641669	0.328010	0.693304	0.628780	0.742598	0.230618
07960		-0.476324	0.592673	-0.649503	-0.622083	0.294883	0.725297	0.621391	0.749522	0.228232
07961		-0.513408	0.599558	-0.613956	-0.603240	0.256696	0.755122	0.610340	0.758048	0.229888
07962		-0.548626	0.605322	-0.576710	-0.584341	0.215722	0.782310	0.597959	0.766191	0.235364
07963		-0.581464	0.609806	-0.538551	-0.564988	0.173640	0.806621	0.585396	0.773296	0.243568
07964		-0.611407	0.612723	-0.500751	-0.545198	0.132475	0.827774	0.573533	0.779116	0.253059
07965		-0.639030	0.614167	-0.463076	-0.524767	0.092056	0.846254	0.562370	0.783789	0.263467
07966		-0.665390	0.613324	-0.425546	-0.503203	0.052560	0.862568	0.551400	0.788081	0.273654
07967		-0.690746	0.610729	-0.387144	-0.480531	0.012375	0.876890	0.540334	0.791743	0.284926
07968		-0.714747	0.606898	-0.347580	-0.456271	-0.027979	0.889401	0.530051	0.794287	0.296907
07969		-0.737331	0.601658	-0.307166	-0.429313	-0.066274	0.900721	0.521569	0.796000	0.307166
07970		-0.758015	0.595491	-0.266088	-0.399666	-0.101673	0.911005	0.515441	0.796902	0.315068
07971		-0.776504	0.588759	-0.224510	-0.368601	-0.135448	0.919667	0.511053	0.796879	0.322193
07972		-0.792671	0.581588	-0.182835	-0.337166	-0.168343	0.926272	0.507930	0.795874	0.329532
07973		-0.806982	0.573363	-0.141546	-0.304229	-0.198166	0.931759	0.506187	0.794975	0.334350
07974		-0.819580	0.564004	-0.100933	-0.269723	-0.224365	0.936435	0.505507	0.794707	0.336010
07975		-0.829731	0.554828	-0.060926	-0.235731	-0.249387	0.939275	0.505942	0.793707	0.337715
07976		-0.836904	0.546916	-0.021798	-0.202203	-0.271917	0.940837	0.508631	0.791798	0.338156
07977		-0.841648	0.539798	0.015718	-0.169320	-0.291417	0.941492	0.512795	0.789743	0.336669
07978		-0.844769	0.532675	0.051207	-0.136617	-0.307197	0.941789	0.517398	0.788598	0.332283
07979		-0.846789	0.525114	0.084872	-0.103735	-0.319515	0.941886	0.521716	0.788774	0.325035
07980		-0.848177	0.516677	0.116798	-0.071714	-0.330466	0.941089	0.524837	0.789834	0.317347
07981		-0.848679	0.507981	0.147307	-0.040727	-0.340448	0.939381	0.527338	0.791234	0.309620
07982		-0.848686	0.498683	0.176204	-0.010658	-0.349212	0.936983	0.528790	0.793326	0.301686
07983		-0.847734	0.489669	0.203890	0.017018	-0.359084	0.933150	0.530148	0.794533	0.296075
07984		-0.845543	0.481385	0.230922	0.041554	-0.371868	0.927355	0.532288	0.793714	0.294427
07985		-0.843143	0.472318	0.256953	0.064269	-0.385931	0.920286	0.533834	0.792448	0.295039
07986		-0.840482	0.462575	0.282160	0.086621	-0.399339	0.912702	0.534871	0.791551	0.295568
07987		-0.837389	0.452687	0.306355	0.108751	-0.411284	0.904996	0.535679	0.791151	0.295175
07988		-0.833727	0.443092	0.329497	0.130212	-0.422129	0.897135	0.536604	0.790871	0.294244
07989		-0.829461	0.433882	0.351770	0.149475	-0.434385	0.888238	0.538194	0.789339	0.295451
07990		-0.824510	0.425373	0.373149	0.167897	-0.445843	0.879224	0.540364	0.787580	0.296183
07991		-0.819288	0.417109	0.393430	0.186770	-0.454598	0.870895	0.542110	0.786995	0.294543
07992		-0.813138	0.409813	0.413352	0.206673	-0.460595	0.863214	0.544145	0.787341	0.289830
07993		-0.806264	0.403164	0.432894	0.227116	-0.464739	0.855825	0.546221	0.788337	0.283138
07994		-0.798910	0.397263	0.451580	0.246782	-0.468189	0.848468	0.548489	0.789292	0.276004
07995		-0.791575	0.391876	0.468873	0.266038	-0.469759	0.841754	0.550120	0.791050	0.267596
07996		-0.784847	0.386173	0.484650	0.285751	-0.468443	0.836007	0.549874	0.794627	0.257307
07997		-0.778539	0.380167	0.499350	0.305255	-0.465818	0.830562	0.548358	0.799054	0.246610
07998		-0.772428	0.374496	0.512941	0.322795	-0.464057	0.824897	0.546954	0.802748	0.237565
07999		-0.766731	0.368039	0.525995	0.338706	-0.464110	0.818462	0.545346	0.805698	0.231190
08000		-0.761310	0.360655	0.538828	0.354806	-0.463838	0.811768	0.542697	0.809186	0.225162
08001		-0.755856	0.353563	0.551067	0.370242	-0.463358	0.805121	0.540002	0.812584	0.219329
08002		-0.750195	0.347023	0.562835	0.384874	-0.462980	0.798449	0.537662	0.815613	0.213765
08003		-0.744282	0.341336	0.574051	0.397970	-0.463595	0.791643	0.536343	0.817661	0.209204
08004		-0.737814	0.336772	0.584992	0.409948	-0.464949	0.784707	0.536259	0.818784	0.204987
08005		-0.731081	0.332897	0.595568	0.420450	-0.467649	0.777513	0.537348	0.818831	0.201923
08006		-0.724678	0.329016	0.605467	0.429218	-0.471862	0.770141	0.539086	0.817982	0.200729
08007		-0.718584	0.325910	0.614345	0.436955	-0.475653	0.763429	0.541025	0.817029	0.199389
08008		-0.712515	0.324210	0.622262	0.444324	-0.477890	0.757758	0.543046	0.816400	0.196449
08009		-0.706497	0.324027	0.629181	0.451315	-0.478524	0.753213	0.545140	0.816101	0.191838
08010		-0.700977	0.325137	0.634758	0.457484	-0.477794	0.749947	0.547120	0.816087	0.186178
08011		-0.695766	0.328372	0.638812	0.463640	-0.473952	0.748604	0.548587	0.817032	0.177513
08012		-0.690270	0.334006	0.641846	0.470270	-0.467060	0.748800	0.549884	0.818715	0.165324
08013		-0.684455	0.340364	0.644727	0.476726	-0.460126	0.749011	0.551592	0.820022	0.152675
08014		-0.678808	0.345723	0.647839	0.481733	-0.456194	0.748211	0.554215	0.819977	0.143122
08015		-0.673827	0.349202	0.651164	0.485026	-0.455784	0.746332	0.557411	0.818730	0.137748
08016		-0.669492	0.351473	0.654406	0.486133	-0.458802	0.743757	0.561654	0.816068	0.136302
08017		-0.665447	0.354307	0.656998	0.485492	-0.463127	0.741492	0.566990	0.812391	0.136173
08018		-0.661394	0.358487	0.658821	0.484579	-0.466214	0.740154	0.572487	0.808784	0.134636
08019		-0.657319	0.363446	0.660181	0.484154	-0.467666	0.739516	0.577518	0.805727	0.131442
08020		-0.653397	0.368529	0.661255	0.484631	-0.467408	0.739366	0.581554	0.803565	0.126802
08021		-0.650074	0.373138	0.661946	0.486045	-0.465426	0.739688	0.584093	0.802587	0.121200
08022		-0.647258	0.377395	0.662292	0.488790	-0.461222	0.740513	0.584929	0.803024	0.114062
08023		-0.644901	0.381626	0.662167	0.491888	-0.455854	0.741784	0.584936	0.804089	0.106263
08024		-0.642937	0.385837	0.661636	0.493695	-0.451674	0.743139	0.585574	0.804438	0.099912
08025		-0.641464	0.389738	0.660779	0.493943	-0.449218	0.744461	0.586979	0.803932	0.095649
08026		-0.640536	0.392651	0.659954	0.492882	-0.448813	0.745409	0.588882	0.802740	0.093950
08027		-0.639919	0.394895	0.659213	0.491178	-0.449542	0.746094	0.590973	0.801231	0.093707
08028		-0.639466	0.397276	0.658221	0.489233	-0.450166	0.746995	0.593072	0.799701	0.093506
08029		-0.639138	0.399900	0.656949	0.487463	-0.450064	0.748212	0.594880	0.798450	0.092717
08030		-0.638972	0.402377	0.655598	0.486338	-0.449002	0.749582	0.595979	0.797803	0.091209
08031		-0.639166	0.404450	0.654131	0.485672	-0.447219	0.751077	0.596313	0.797756	0.089417
08032		-0.639763	0.406188	0.652468	0.485069	-0.445107	0.752720	0.596164	0.798055	0.087733
08033		-0.640699	0.407966	0.650438	0.483948	-0.443102	0.754623	0.596070	0.798264	0.086461
08034		-0.641838	0.409787	0.648166	0.481944	-0.441890	0.756613	0.596468	0.798003	0.086127
08035		-0.643342	0.411209	0.645769	0.478966	-0.441850	0.758525	0.597245	0.797293	0.087306
08036		-0.645106	0.412188	0.643381	0.475778	-0.442177	0.760338	0.597891	0.796606	0.089142
08037		-0.647056	0.412832	0.641006	0.472658	-0.442490	0.762100	0.598258	0.796098	0.091188
08038		-0.649059	0.413388	0.638618	0.469429	-0.442945	0.763830	0.598631	0.795556	0.093441
08039		-0.651192	0.414071	0.635999	0.466347	-0.442819	0.765788	0.598723	0.795271	0.095259
08040		-0.653344	0.414998	0.633181	0.463806	-0.441620	0.768021	0.598353	0.795455	0.096052
08041		-0.655603	0.415935	0.630224	0.461609	-0.439741	0.770418	0.597579	0.796006	0.096296
08042		-0.657938	0.416661	0.627304	0.459737	-0.437525	0.772796	0.596456	0.796847	0.096310
08043		-0.660190	0.417852	0.624139	0.458015	-0.434630	0.775448	0.595292	0.797807	0.095556
08044		-0.662328	0.419886	0.620498	0.455832	-0.431436	0.778511	0.594592	0.798472	0.094354
08045		-0.664693	0.421894	0.616594	0.452552	-0.429303	0.781598	0.594457	0.798564	0.094426
08046		-0.667179	0.423038	0.613116	0.448717	-0.428747	0.784110	0.594581	0.798257	0.096227
08047		-0.669595	0.423482	0.610168	0.444824	-0.429238	0.786057	0.594789	0.797758	0.099041
08048		-0.671799	0.423749	0.607555	0.440961	-0.430254	0.787677	0.595180	0.797069	0.102188
08049		-0.674120	0.423905	0.604869	0.436949	-0.431381	0.789295	0.595515	0.796376	0.105578
08050		-0.676608	0.424155	0.601909	0.433142	-0.431786	0.791169	0.595474	0.796023	0.108431
08051		-0.679433	0.424399	0.598545	0.429570	-0.431255	0.793403	0.594845	0.796182	0.110700
08052		-0.682398	0.424879	0.594820	0.426411	-0.429555	0.796025	0.593722	0.796844	0.111954
08053		-0.685485	0.425517	0.590801	0.423720	-0.426732	0.798975	0.592091	0.798020	0.112218
08054		-0.688657	0.425984	0.586762	0.421240	-0.423622	0.801936	0.590177	0.799426	0.112288
08055		-0.691665	0.427086	0.582407	0.419032	-0.419490	0.805258	0.588228	0.801016	0.111184
08056		-0.694427	0.429337	0.577443	0.416542	-0.414508	0.809121	0.586741	0.802404	0.109009
08057		-0.697119	0.432527	0.571791	0.413071	-0.409552	0.813412	0.586001	0.803236	0.106842
08058		-0.699747	0.436306	0.565678	0.408625	-0.405061	0.817894	0.585987	0.803469	0.105155
08059		-0.702288	0.440392	0.559326	0.403176	-0.401492	0.822346	0.586720	0.803031	0.104408
08060		-0.704658	0.444511	0.553052	0.397181	-0.398778	0.826573	0.587966	0.802113	0.104451
08061		-0.706912	0.448834	0.546647	0.390444	-0.396810	0.830720	0.589770	0.800681	0.105265
08062		-0.709116	0.453344	0.540032	0.382885	-0.395556	0.834826	0.592076	0.798758	0.106917
08063		-0.711467	0.458148	0.532837	0.374495	-0.394406	0.839164	0.594616	0.796583	0.109033
08064		-0.713922	0.463650	0.524732	0.365469	-0.392482	0.844032	0.597283	0.794347	0.110752
08065		-0.716637	0.469821	0.515462	0.355749	-0.389460	0.849567	0.599896	0.792205	0.111964
08066		-0.719454	0.476380	0.505418	0.345556	-0.385726	0.855457	0.602475	0.790113	0.112896
08067		-0.722204	0.483369	0.494749	0.334911	-0.381470	0.861577	0.605192	0.787931	0.113614
08068		-0.724728	0.490357	0.484066	0.324218	-0.377212	0.867522	0.607991	0.785660	0.114394
08069		-0.726989	0.497151	0.473633	0.313602	-0.373237	0.873125	0.610853	0.783285	0.115432
08070		-0.729094	0.503588	0.463488	0.303214	-0.369452	0.878389	0.613582	0.780964	0.116671
08071		-0.731423	0.509891	0.452804	0.292330	-0.365454	0.883734	0.616087	0.778752	0.118245
08072		-0.734120	0.516333	0.440986	0.280545	-0.360783	0.889455	0.618355	0.776683	0.120004
08073		-0.737303	0.523170	0.427408	0.267576	-0.354774	0.895845	0.620313	0.774873	0.121588
08074		-0.741093	0.529960	0.412217	0.253891	-0.347167	0.902781	0.621546	0.773704	0.122731
08075		-0.745072	0.536717	0.395984	0.239941	-0.338264	0.909948	0.622332	0.772989	0.123251
08076		-0.748860	0.543282	0.379544	0.226191	-0.328789	0.916916	0.622934	0.772491	0.123331
08077		-0.752365	0.549598	0.363165	0.212549	-0.319279	0.923517	0.623514	0.772013	0.123398
08078		-0.755602	0.555691	0.346805	0.198942	-0.309755	0.929771	0.624090	0.771531	0.123501
08079		-0.758776	0.561655	0.329851	0.184846	-0.299911	0.935887	0.624572	0.771101	0.123746
08080		-0.761836	0.567631	0.312091	0.170140	-0.289532	0.941925	0.625026	0.770692	0.123999
08081		-0.764675	0.573857	0.293189	0.154461	-0.278488	0.947938	0.625630	0.770151	0.124315
08082		-0.767441	0.579911	0.273381	0.138063	-0.266919	0.953778	0.626077	0.769712	0.124781
08083		-0.770100	0.585657	0.252888	0.120987	-0.255140	0.959305	0.626345	0.769356	0.125627
08084		-0.772731	0.591003	0.231521	0.102898	-0.243289	0.964480	0.626337	0.769107	0.127183
08085		-0.775484	0.595768	0.209009	0.083692	-0.231121	0.969319	0.625796	0.769183	0.129370
08086		-0.778259	0.599874	0.185643	0.063575	-0.218846	0.973686	0.624717	0.769582	0.132182
08087		-0.780467	0.603849	0.161981	0.043128	-0.206470	0.977502	0.623708	0.769894	0.135100
08088		-0.781354	0.608501	0.138606	0.023217	-0.193598	0.980806	0.623656	0.769575	0.137141
08089		-0.780545	0.614313	0.115628	0.004303	-0.179690	0.983714	0.625085	0.768330	0.137612
08090		-0.778211	0.621158	0.092466	-0.014295	-0.164722	0.986237	0.627840	0.766178	0.137068
08091		-0.775342	0.627836	0.068316	-0.034053	-0.149578	0.988163	0.630623	0.763838	0.137354
08092		-0.772691	0.633341	0.042763	-0.055554	-0.134578	0.989344	0.632347	0.762081	0.139172
08093		-0.770214	0.637599	0.015429	-0.079219	-0.119644	0.989651	0.632846	0.761021	0.142661
08094		-0.767723	0.640643	-0.013332	-0.104757	-0.104958	0.988944	0.632161	0.760632	0.147690
08095		-0.764402	0.643317	-0.042810	-0.131338	-0.090365	0.987210	0.631221	0.760248	0.153567
08096		-0.759771	0.646205	-0.071883	-0.157790	-0.076001	0.984544	0.630754	0.759370	0.159708
08097		-0.753600	0.649690	-0.099949	-0.183767	-0.062241	0.980997	0.631123	0.757647	0.166297
08098		-0.746640	0.653015	-0.126887	-0.209187	-0.049412	0.976626	0.631482	0.755731	0.173495
08099		-0.739097	0.656031	-0.152833	-0.234248	-0.037594	0.971450	0.631556	0.753797	0.181460
08100		-0.730683	0.658903	-0.178741	-0.259464	-0.025843	0.965407	0.631490	0.751784	0.189845
08101		-0.721017	0.661522	-0.206213	-0.286434	-0.013561	0.958004	0.630944	0.749803	0.199260
08102		-0.710442	0.663260	-0.235281	-0.315375	-0.001179	0.948966	0.629134	0.748388	0.210013
08103		-0.699242	0.663780	-0.265437	-0.345905	0.010792	0.938207	0.625628	0.747850	0.222059
08104		-0.687584	0.663365	-0.295253	-0.376603	0.021847	0.926117	0.620804	0.747977	0.234804
08105		-0.675538	0.662388	-0.323866	-0.407201	0.031022	0.912811	0.614683	0.748518	0.248769
08106		-0.663286	0.661116	-0.350680	-0.436596	0.038740	0.898823	0.607812	0.749283	0.262945
08107		-0.650132	0.660009	-0.376451	-0.464829	0.046440	0.884182	0.601050	0.749821	0.276600
08108		-0.635875	0.658806	-0.402041	-0.492246	0.055027	0.868715	0.594438	0.750297	0.289304
08109		-0.620151	0.657345	-0.428148	-0.519625	0.064672	0.851944	0.587711	0.750809	0.301466
08110		-0.602907	0.655460	-0.454836	-0.547905	0.074226	0.833241	0.579917	0.751573	0.314378
08111		-0.584007	0.653227	-0.481904	-0.577223	0.083224	0.812334	0.570744	0.752575	0.328454
08112		-0.563976	0.650574	-0.508611	-0.606739	0.091352	0.789635	0.560178	0.753929	0.343208
08113		-0.542987	0.647239	-0.535021	-0.636070	0.098962	0.765259	0.548252	0.755836	0.357954
08114		-0.521604	0.643041	-0.560738	-0.664781	0.105639	0.739531	0.534785	0.758510	0.372380
08115		-0.499617	0.637925	-0.586032	-0.692966	0.111614	0.712279	0.519790	0.761967	0.386296
08116		-0.477535	0.631875	-0.610487	-0.720026	0.116746	0.684056	0.503510	0.766227	0.399216
08117		-0.454872	0.625393	-0.634015	-0.745817	0.121538	0.654970	0.486671	0.770787	0.411144
08118		-0.431559	0.618871	-0.656319	-0.770335	0.125761	0.625115	0.469405	0.775360	0.422465
08119		-0.407555	0.611766	-0.677968	-0.794263	0.128869	0.593750	0.450605	0.780471	0.433382
08120		-0.383576	0.603503	-0.699037	-0.817540	0.130157	0.560970	0.429532	0.786666	0.443463
