// Start Time: Unknown
// Update Rate: 100.0Hz
// Filter Profile: human (46.1)
// Option Flags: AHS Disabled ICC Disabled 
// Firmware Version: 4.0.2
PacketCounter	SampleTimeFine	Mat[1][1]	Mat[2][1]	Mat[3][1]	Mat[1][2]	Mat[2][2]	Mat[3][2]	Mat[1][3]	Mat[2][3]	Mat[3][3]
06814		0.121200	-0.056999	-0.990990	0.687047	0.725381	0.042305	0.716434	-0.685984	0.127077
06815		0.121291	-0.056947	-0.990982	0.687263	0.725168	0.042446	0.716211	-0.686213	0.127094
06816		0.121400	-0.056907	-0.990971	0.687320	0.725106	0.042561	0.716137	-0.686282	0.127141
06817		0.121505	-0.056930	-0.990957	0.687513	0.724918	0.042652	0.715934	-0.686479	0.127221
06818		0.121642	-0.056928	-0.990940	0.687484	0.724941	0.042745	0.715939	-0.686455	0.127320
06819		0.121783	-0.056997	-0.990919	0.687598	0.724828	0.042814	0.715805	-0.686568	0.127462
06820		0.121968	-0.056960	-0.990898	0.687500	0.724913	0.042953	0.715868	-0.686482	0.127576
06821		0.122183	-0.056998	-0.990870	0.687525	0.724882	0.043080	0.715808	-0.686511	0.127756
06822		0.122369	-0.057026	-0.990845	0.687472	0.724926	0.043181	0.715827	-0.686462	0.127912
06823		0.122604	-0.057090	-0.990812	0.687636	0.724761	0.043328	0.715629	-0.686631	0.128116
06824		0.122804	-0.057144	-0.990784	0.687743	0.724653	0.043449	0.715492	-0.686741	0.128291
06825		0.122977	-0.057221	-0.990758	0.688072	0.724333	0.043573	0.715146	-0.687072	0.128449
06826		0.123143	-0.057335	-0.990731	0.688406	0.724010	0.043666	0.714795	-0.687403	0.128627
06827		0.123282	-0.057416	-0.990709	0.688894	0.723538	0.043793	0.714301	-0.687893	0.128753
06828		0.123363	-0.057558	-0.990691	0.689359	0.723093	0.043830	0.713839	-0.688349	0.128881
06829		0.123460	-0.057641	-0.990674	0.689837	0.722631	0.043924	0.713360	-0.688826	0.128978
06830		0.123547	-0.057732	-0.990658	0.690208	0.722272	0.043986	0.712986	-0.689195	0.129082
06831		0.123639	-0.057866	-0.990639	0.690589	0.721907	0.044022	0.712601	-0.689567	0.129217
06832		0.123740	-0.057958	-0.990621	0.690782	0.721720	0.044061	0.712397	-0.689755	0.129342
06833		0.123952	-0.058082	-0.990587	0.691066	0.721441	0.044172	0.712084	-0.690036	0.129562
06834		0.124201	-0.058208	-0.990548	0.691231	0.721276	0.044286	0.711881	-0.690198	0.129818
06835		0.124484	-0.058393	-0.990502	0.691537	0.720975	0.044407	0.711534	-0.690496	0.130131
06836		0.124775	-0.058621	-0.990452	0.691735	0.720780	0.044483	0.711290	-0.690680	0.130485
06837		0.125052	-0.058800	-0.990406	0.692056	0.720464	0.044607	0.710929	-0.690995	0.130789
06838		0.125295	-0.058983	-0.990365	0.692279	0.720245	0.044688	0.710669	-0.691208	0.131076
06839		0.125532	-0.059165	-0.990324	0.692549	0.719980	0.044773	0.710365	-0.691468	0.131355
06840		0.125855	-0.059333	-0.990273	0.692772	0.719756	0.044920	0.710089	-0.691687	0.131689
06841		0.126273	-0.059474	-0.990211	0.693061	0.719462	0.045168	0.709733	-0.691981	0.132068
06842		0.126748	-0.059564	-0.990145	0.693218	0.719292	0.045468	0.709495	-0.692149	0.132459
06843		0.127311	-0.059675	-0.990066	0.693490	0.719007	0.045837	0.709129	-0.692436	0.132921
06844		0.127973	-0.059722	-0.989978	0.693700	0.718774	0.046313	0.708804	-0.692674	0.133413
06845		0.128637	-0.059795	-0.989887	0.694074	0.718381	0.046801	0.708318	-0.693075	0.133913
06846		0.129270	-0.059866	-0.989801	0.694449	0.717988	0.047271	0.707835	-0.693477	0.134388
06847		0.129831	-0.059939	-0.989723	0.694933	0.717490	0.047709	0.707257	-0.693985	0.134806
06848		0.130414	-0.059993	-0.989643	0.695361	0.717044	0.048166	0.706728	-0.694441	0.135230
06849		0.131030	-0.060089	-0.989556	0.695840	0.716549	0.048627	0.706143	-0.694944	0.135702
06850		0.131655	-0.060146	-0.989469	0.696294	0.716074	0.049119	0.705579	-0.695428	0.136154
06851		0.132306	-0.060108	-0.989385	0.696891	0.715451	0.049726	0.704868	-0.696072	0.136547
06852		0.133262	-0.059828	-0.989273	0.697493	0.714794	0.050729	0.704092	-0.696771	0.136985
06853		0.134546	-0.059538	-0.989117	0.698179	0.714033	0.051991	0.703167	-0.697576	0.137638
06854		0.136165	-0.059188	-0.988916	0.698672	0.713439	0.053501	0.702365	-0.698213	0.138499
06855		0.137912	-0.058928	-0.988690	0.699092	0.712911	0.055025	0.701606	-0.698774	0.139515
06856		0.139794	-0.058568	-0.988447	0.699258	0.712620	0.056671	0.701068	-0.699102	0.140574
06857		0.141789	-0.058191	-0.988185	0.699315	0.712425	0.058388	0.700610	-0.699332	0.141708
06858		0.143854	-0.057867	-0.987906	0.699300	0.712296	0.060106	0.700203	-0.699489	0.142933
06859		0.145966	-0.057668	-0.987607	0.699543	0.711911	0.061822	0.699523	-0.699898	0.144256
06860		0.147979	-0.057396	-0.987324	0.699940	0.711368	0.063552	0.698703	-0.700472	0.145442
06861		0.150009	-0.057103	-0.987034	0.700495	0.710659	0.065347	0.697714	-0.701215	0.146606
06862		0.152069	-0.056830	-0.986735	0.701065	0.709928	0.067155	0.696694	-0.701977	0.147800
06863		0.154050	-0.056522	-0.986445	0.701722	0.709106	0.068955	0.695596	-0.702833	0.148900
06864		0.155917	-0.056167	-0.986172	0.702276	0.708386	0.070686	0.694620	-0.703587	0.149895
06865		0.157667	-0.055819	-0.985914	0.702930	0.707569	0.072352	0.693563	-0.704436	0.150797
06866		0.159439	-0.055372	-0.985654	0.703411	0.706913	0.074071	0.692670	-0.705130	0.151659
06867		0.161377	-0.054931	-0.985363	0.703950	0.706180	0.075921	0.691673	-0.705898	0.152630
06868		0.163610	-0.054517	-0.985018	0.704332	0.705579	0.077938	0.690759	-0.706531	0.153837
06869		0.165959	-0.054099	-0.984648	0.704711	0.704964	0.080044	0.689811	-0.707176	0.155119
06870		0.168312	-0.053683	-0.984271	0.704926	0.704511	0.082119	0.689021	-0.707660	0.156420
06871		0.170639	-0.053322	-0.983890	0.705197	0.703999	0.084151	0.688171	-0.708196	0.157733
06872		0.172895	-0.052960	-0.983515	0.705427	0.703530	0.086125	0.687372	-0.708689	0.158996
06873		0.175105	-0.052682	-0.983139	0.705844	0.702874	0.088052	0.686384	-0.709361	0.160262
06874		0.177312	-0.052535	-0.982751	0.706406	0.702071	0.089922	0.685238	-0.710166	0.161597
06875		0.179531	-0.052454	-0.982353	0.707138	0.701091	0.091799	0.683904	-0.711140	0.162960
06876		0.181795	-0.052406	-0.981939	0.707704	0.700274	0.093650	0.682719	-0.711948	0.164394
06877		0.183971	-0.052540	-0.981527	0.708407	0.699335	0.095345	0.681406	-0.712861	0.165877
06878		0.186082	-0.052621	-0.981124	0.709184	0.698312	0.097052	0.680024	-0.713857	0.167261
06879		0.188125	-0.052745	-0.980728	0.710011	0.697239	0.098697	0.678596	-0.714895	0.168618
06880		0.190041	-0.053000	-0.980345	0.710775	0.696254	0.100143	0.677261	-0.715836	0.169988
06881		0.191832	-0.053430	-0.979972	0.711651	0.695176	0.101405	0.675835	-0.716851	0.171381
06882		0.193447	-0.053939	-0.979627	0.712520	0.694127	0.102482	0.674458	-0.717829	0.172709
06883		0.194954	-0.054599	-0.979291	0.713512	0.692970	0.103408	0.672974	-0.718896	0.174055
06884		0.196352	-0.055377	-0.978968	0.714438	0.691902	0.104157	0.671583	-0.719864	0.175420
06885		0.197673	-0.056361	-0.978646	0.715487	0.690730	0.104739	0.670078	-0.720913	0.176864
06886		0.198879	-0.057480	-0.978337	0.716565	0.689548	0.105153	0.668566	-0.721955	0.178325
06887		0.199942	-0.058704	-0.978048	0.717828	0.688191	0.105439	0.666893	-0.723151	0.179737
06888		0.200823	-0.059979	-0.977790	0.719105	0.686837	0.105562	0.665250	-0.724333	0.181064
06889		0.201478	-0.061354	-0.977570	0.720561	0.685319	0.105496	0.663475	-0.725654	0.182286
06890		0.201940	-0.062905	-0.977376	0.722029	0.683823	0.105170	0.661736	-0.726931	0.183511
06891		0.202145	-0.064657	-0.977219	0.723711	0.682135	0.104572	0.659834	-0.728362	0.184683
06892		0.202131	-0.066338	-0.977109	0.725374	0.680475	0.103857	0.658009	-0.729762	0.185665
06893		0.202015	-0.067993	-0.977019	0.727253	0.678575	0.103148	0.655968	-0.731377	0.186530
06894		0.201988	-0.069591	-0.976912	0.729314	0.676442	0.102608	0.653684	-0.733201	0.187386
06895		0.202117	-0.071189	-0.976771	0.731511	0.674121	0.102235	0.651184	-0.735182	0.188327
06896		0.202407	-0.072770	-0.976594	0.733667	0.671811	0.101999	0.648664	-0.737140	0.189368
06897		0.202799	-0.074344	-0.976394	0.735911	0.669368	0.101884	0.645993	-0.739202	0.190458
06898		0.203332	-0.075872	-0.976166	0.738167	0.666874	0.101925	0.643246	-0.741298	0.191603
06899		0.203935	-0.077469	-0.975915	0.740580	0.664177	0.102034	0.640275	-0.743551	0.192821
06900		0.204635	-0.079125	-0.975635	0.743030	0.661408	0.102206	0.637205	-0.745841	0.194139
06901		0.205304	-0.080862	-0.975352	0.745614	0.658470	0.102356	0.633963	-0.748251	0.195479
06902		0.205901	-0.082659	-0.975076	0.748313	0.655385	0.102459	0.630581	-0.750758	0.196799
06903		0.206391	-0.084510	-0.974813	0.751215	0.652047	0.102522	0.626960	-0.753454	0.198062
06904		0.206879	-0.086414	-0.974543	0.754156	0.648634	0.102580	0.623257	-0.756179	0.199359
06905		0.207240	-0.088392	-0.974289	0.757223	0.645056	0.102546	0.619407	-0.759005	0.200614
06906		0.207433	-0.090373	-0.974066	0.760318	0.641428	0.102403	0.615539	-0.761842	0.201766
06907		0.207456	-0.092403	-0.973871	0.763506	0.637672	0.102140	0.611572	-0.764746	0.202839
06908		0.207390	-0.094423	-0.973691	0.766602	0.634002	0.101799	0.607710	-0.767545	0.203870
06909		0.207235	-0.096484	-0.973522	0.769763	0.630225	0.101400	0.603754	-0.770394	0.204875
06910		0.207025	-0.098423	-0.973372	0.772781	0.626584	0.101004	0.599958	-0.773114	0.205778
06911		0.206807	-0.100165	-0.973241	0.775702	0.623012	0.100712	0.596252	-0.775773	0.206541
06912		0.206682	-0.101614	-0.973117	0.778476	0.619553	0.100648	0.592670	-0.778350	0.207154
06913		0.206821	-0.102931	-0.972949	0.781089	0.616223	0.100845	0.589174	-0.780817	0.207846
06914		0.207144	-0.104143	-0.972752	0.783414	0.613210	0.101176	0.585964	-0.783025	0.208610
06915		0.207542	-0.105232	-0.972550	0.785583	0.610358	0.101602	0.582911	-0.785105	0.209343
06916		0.207937	-0.106286	-0.972351	0.787571	0.607725	0.101993	0.580081	-0.787003	0.210076
06917		0.208371	-0.107338	-0.972142	0.789446	0.605220	0.102387	0.577370	-0.788789	0.210847
06918		0.208876	-0.108369	-0.971919	0.791153	0.602917	0.102802	0.574846	-0.790410	0.211671
06919		0.209314	-0.109392	-0.971710	0.792789	0.600704	0.103148	0.572427	-0.791952	0.212460
06920		0.209737	-0.110346	-0.971511	0.794253	0.598713	0.103466	0.570239	-0.793326	0.213215
06921		0.210133	-0.111340	-0.971312	0.795660	0.596797	0.103722	0.568128	-0.794630	0.213996
06922		0.210518	-0.112343	-0.971113	0.796936	0.595057	0.103921	0.566193	-0.795793	0.214800
06923		0.210842	-0.113436	-0.970916	0.798295	0.593211	0.104048	0.564155	-0.797015	0.215629
06924		0.211238	-0.114425	-0.970714	0.799544	0.591487	0.104267	0.562234	-0.798154	0.216433
06925		0.211656	-0.115443	-0.970502	0.800965	0.589511	0.104558	0.560051	-0.799468	0.217239
06926		0.212122	-0.116394	-0.970287	0.802391	0.587500	0.104941	0.557829	-0.800810	0.218015
06927		0.212638	-0.117369	-0.970057	0.804062	0.585118	0.105457	0.555220	-0.802410	0.218790
06928		0.213262	-0.118221	-0.969816	0.805836	0.582539	0.106192	0.552401	-0.804160	0.219500
06929		0.213922	-0.119045	-0.969570	0.807817	0.579628	0.107066	0.549244	-0.806138	0.220162
06930		0.214680	-0.119900	-0.969297	0.809832	0.576629	0.108034	0.545971	-0.808161	0.220890
06931		0.215377	-0.120789	-0.969032	0.811956	0.573454	0.108984	0.542531	-0.810284	0.221584
06932		0.216114	-0.121715	-0.968752	0.814006	0.570359	0.109932	0.539156	-0.812327	0.222340
06933		0.216732	-0.122693	-0.968491	0.816060	0.567256	0.110758	0.535793	-0.814351	0.223067
06934		0.217370	-0.123714	-0.968217	0.818034	0.564247	0.111557	0.532513	-0.816284	0.223853
06935		0.217918	-0.124810	-0.967954	0.820073	0.561138	0.112271	0.529143	-0.818258	0.224635
06936		0.218539	-0.125999	-0.967659	0.822044	0.558102	0.112983	0.525817	-0.820150	0.225544
06937		0.219118	-0.127314	-0.967356	0.824139	0.554868	0.113651	0.522286	-0.822139	0.226506
06938		0.219760	-0.128644	-0.967035	0.826222	0.551611	0.114380	0.518712	-0.824122	0.227511
06939		0.220283	-0.129986	-0.966736	0.828439	0.548131	0.115070	0.514941	-0.826230	0.228429
06940		0.220851	-0.131148	-0.966450	0.830645	0.544604	0.115914	0.511130	-0.828376	0.229213
06941		0.221248	-0.132196	-0.966216	0.833014	0.540791	0.116757	0.507086	-0.830704	0.229770
06942		0.221629	-0.133099	-0.966005	0.835309	0.537046	0.117648	0.503130	-0.832986	0.230203
06943		0.222037	-0.134132	-0.965768	0.837617	0.533247	0.118513	0.499097	-0.835258	0.230751
06944		0.222510	-0.135259	-0.965502	0.839817	0.529586	0.119354	0.495173	-0.837403	0.231431
06945		0.222935	-0.136533	-0.965225	0.842029	0.525894	0.120092	0.491210	-0.839520	0.232204
06946		0.223437	-0.137851	-0.964921	0.844095	0.522402	0.120827	0.487421	-0.841483	0.233083
06947		0.223833	-0.139120	-0.964647	0.846280	0.518684	0.121563	0.483435	-0.843571	0.233833
06948		0.224335	-0.140298	-0.964360	0.848478	0.514865	0.122474	0.479332	-0.845713	0.234542
06949		0.224916	-0.141521	-0.964046	0.850768	0.510825	0.123499	0.474981	-0.847956	0.235294
06950		0.225641	-0.142865	-0.963678	0.853017	0.506790	0.124599	0.470582	-0.850149	0.236219
06951		0.226181	-0.144271	-0.963342	0.855393	0.502527	0.125577	0.465989	-0.852439	0.237070
06952		0.226692	-0.145700	-0.963007	0.857673	0.498395	0.126491	0.461528	-0.854619	0.237945
06953		0.227027	-0.147218	-0.962697	0.859973	0.494228	0.127224	0.457062	-0.856777	0.238806
06954		0.227318	-0.148793	-0.962386	0.862183	0.490195	0.127861	0.452732	-0.858819	0.239717
06955		0.227475	-0.150407	-0.962098	0.864410	0.486120	0.128382	0.448386	-0.860851	0.240594
06956		0.227579	-0.152066	-0.961813	0.866552	0.482179	0.128804	0.444179	-0.862774	0.241507
06957		0.227502	-0.153767	-0.961560	0.868761	0.478111	0.129089	0.439883	-0.864734	0.242359
06958		0.227493	-0.155435	-0.961294	0.870861	0.474185	0.129419	0.435715	-0.866596	0.243236
06959		0.227296	-0.157042	-0.961080	0.872969	0.470237	0.129620	0.431580	-0.868455	0.243976
06960		0.227100	-0.158521	-0.960883	0.874976	0.466430	0.129847	0.427601	-0.870238	0.244629
06961		0.226831	-0.159991	-0.960703	0.876866	0.462835	0.129958	0.423855	-0.871887	0.245276
06962		0.226717	-0.161459	-0.960484	0.878543	0.459599	0.130116	0.420430	-0.873327	0.246048
06963		0.226536	-0.162949	-0.960276	0.880145	0.456510	0.130167	0.417165	-0.874669	0.246835
06964		0.226448	-0.164409	-0.960047	0.881577	0.453717	0.130240	0.414177	-0.875849	0.247683
06965		0.226231	-0.165962	-0.959831	0.883004	0.450961	0.130148	0.411246	-0.876978	0.248567
06966		0.226005	-0.167506	-0.959616	0.884346	0.448362	0.130014	0.408478	-0.878017	0.249465
06967		0.225605	-0.169107	-0.959430	0.885835	0.445482	0.129780	0.405462	-0.879175	0.250304
06968		0.225200	-0.170617	-0.959257	0.887335	0.442537	0.129604	0.402394	-0.880370	0.251054
06969		0.224543	-0.172153	-0.959137	0.888918	0.439459	0.129227	0.399255	-0.881612	0.251707
06970		0.223921	-0.173678	-0.959007	0.890436	0.436485	0.128861	0.396212	-0.882789	0.252387
06971		0.223047	-0.175229	-0.958929	0.892051	0.433340	0.128305	0.393059	-0.884031	0.252969
06972		0.222174	-0.176800	-0.958843	0.893575	0.430370	0.127695	0.390081	-0.885169	0.253601
06973		0.221134	-0.178427	-0.958782	0.895121	0.427376	0.126917	0.387115	-0.886292	0.254221
06974		0.220201	-0.180102	-0.958684	0.896461	0.424799	0.126105	0.384537	-0.887192	0.254996
06975		0.219148	-0.181838	-0.958597	0.897770	0.422317	0.125132	0.382078	-0.888022	0.255799
06976		0.218277	-0.183328	-0.958513	0.898916	0.420101	0.124355	0.379875	-0.888766	0.256495
06977		0.217338	-0.184599	-0.958482	0.900112	0.417744	0.123647	0.377575	-0.889614	0.256951
06978		0.216734	-0.185821	-0.958382	0.901176	0.415570	0.123222	0.375378	-0.890377	0.257525
06979		0.216157	-0.187090	-0.958266	0.902189	0.413499	0.122776	0.373272	-0.891076	0.258172
06980		0.215827	-0.188307	-0.958102	0.902971	0.411883	0.122456	0.371566	-0.891568	0.258931
06981		0.215414	-0.189535	-0.957953	0.903663	0.410504	0.121986	0.370123	-0.891943	0.259704
06982		0.215130	-0.190762	-0.957773	0.904182	0.409492	0.121533	0.369017	-0.892147	0.260578
06983		0.214887	-0.191970	-0.957586	0.904679	0.408518	0.121118	0.367940	-0.892334	0.261456
06984		0.214874	-0.193069	-0.957368	0.905112	0.407609	0.120944	0.366881	-0.892513	0.262333
06985		0.214920	-0.194223	-0.957124	0.905692	0.406327	0.120917	0.365421	-0.892847	0.263234
06986		0.215259	-0.195468	-0.956795	0.906252	0.405008	0.121147	0.363829	-0.893175	0.264324
06987		0.215458	-0.196914	-0.956453	0.907014	0.403252	0.121300	0.361806	-0.893651	0.265488
06988		0.215798	-0.198364	-0.956077	0.907850	0.401257	0.121661	0.359499	-0.894229	0.266675
06989		0.215926	-0.199881	-0.955732	0.908901	0.398785	0.121944	0.356757	-0.894996	0.267780
06990		0.216016	-0.201370	-0.955399	0.910010	0.396152	0.122256	0.353864	-0.895831	0.268824
06991		0.215994	-0.202881	-0.955084	0.911238	0.393226	0.122549	0.350701	-0.896779	0.269808
06992		0.216058	-0.204284	-0.954771	0.912480	0.390193	0.123002	0.347417	-0.897785	0.270710
06993		0.216106	-0.205692	-0.954457	0.913832	0.386845	0.123540	0.343816	-0.898911	0.271568
06994		0.216334	-0.207215	-0.954076	0.915161	0.383470	0.124224	0.340118	-0.900007	0.272593
06995		0.216379	-0.208883	-0.953702	0.916609	0.379814	0.124775	0.336166	-0.901171	0.273648
06996		0.216405	-0.210723	-0.953291	0.918102	0.376016	0.125299	0.332049	-0.902335	0.274838
06997		0.216144	-0.212747	-0.952901	0.919749	0.371870	0.125599	0.327634	-0.903577	0.276051
06998		0.215775	-0.214840	-0.952515	0.921420	0.367638	0.125810	0.323152	-0.904813	0.277285
06999		0.215249	-0.217042	-0.952135	0.923224	0.363032	0.125958	0.318317	-0.906146	0.278521
07000		0.214755	-0.219240	-0.951743	0.925009	0.358387	0.126166	0.313431	-0.907465	0.279764
07001		0.214134	-0.221545	-0.951349	0.926840	0.353585	0.126277	0.308407	-0.908788	0.281051
07002		0.213702	-0.223794	-0.950919	0.928611	0.348787	0.126603	0.303335	-0.910090	0.282354
07003		0.213131	-0.226093	-0.950504	0.930453	0.343747	0.126869	0.298049	-0.911438	0.283632
07004		0.212562	-0.228365	-0.950088	0.932220	0.338829	0.127123	0.292887	-0.912713	0.284908
07005		0.211789	-0.230604	-0.949720	0.934005	0.333838	0.127225	0.287714	-0.913988	0.286088
07006		0.211163	-0.232805	-0.949322	0.935687	0.329009	0.127446	0.282666	-0.915180	0.287308
07007		0.210288	-0.235048	-0.948963	0.937425	0.324012	0.127477	0.277513	-0.916389	0.288476
07008		0.209506	-0.237307	-0.948574	0.939083	0.319138	0.127570	0.272453	-0.917516	0.289713
07009		0.208455	-0.239676	-0.948210	0.940770	0.314199	0.127400	0.267392	-0.918605	0.290976
07010		0.207365	-0.242021	-0.947853	0.942390	0.309402	0.127168	0.262491	-0.919617	0.292237
07011		0.206027	-0.244402	-0.947534	0.944040	0.304514	0.126723	0.257566	-0.920619	0.293464
07012		0.204679	-0.246816	-0.947200	0.945651	0.299674	0.126257	0.252689	-0.921563	0.294738
07013		0.203086	-0.249300	-0.946893	0.947287	0.294754	0.125567	0.247797	-0.922480	0.296019
07014		0.201471	-0.251716	-0.946598	0.948855	0.289981	0.124841	0.243071	-0.923336	0.297265
07015		0.199732	-0.254236	-0.946293	0.950456	0.285046	0.124028	0.238204	-0.924182	0.298573
07016		0.198068	-0.256779	-0.945956	0.952004	0.280160	0.123285	0.233362	-0.924973	0.299946
07017		0.196286	-0.259325	-0.945633	0.953556	0.275200	0.122461	0.228481	-0.925751	0.301298
07018		0.194642	-0.261830	-0.945283	0.955035	0.270332	0.121772	0.223657	-0.926480	0.302675
07019		0.192879	-0.264307	-0.944955	0.956505	0.265441	0.120991	0.218851	-0.927191	0.304009
07020		0.191268	-0.266640	-0.944627	0.957863	0.260803	0.120332	0.214277	-0.927839	0.305288
07021		0.189608	-0.268985	-0.944296	0.959174	0.256286	0.119591	0.209842	-0.928420	0.306598
07022		0.188203	-0.271278	-0.943922	0.960371	0.252019	0.119054	0.205590	-0.928921	0.307958
07023		0.186801	-0.273550	-0.943544	0.961523	0.247853	0.118503	0.201444	-0.929376	0.309324
07024		0.185558	-0.275840	-0.943123	0.962563	0.244020	0.118013	0.197588	-0.929713	0.310793
07025		0.184261	-0.278153	-0.942698	0.963576	0.240265	0.117449	0.193828	-0.930002	0.312292
07026		0.183045	-0.280379	-0.942275	0.964497	0.236812	0.116897	0.190366	-0.930219	0.313772
07027		0.181690	-0.282597	-0.941875	0.965392	0.233504	0.116166	0.187103	-0.930384	0.315242
07028		0.180503	-0.284653	-0.941483	0.966186	0.230506	0.115547	0.184127	-0.930505	0.316635
07029		0.179234	-0.286529	-0.941157	0.966949	0.227641	0.114842	0.181340	-0.930634	0.317860
07030		0.178238	-0.288191	-0.940839	0.967602	0.225100	0.114357	0.178826	-0.930739	0.318976
07031		0.177329	-0.289741	-0.940534	0.968213	0.222660	0.113955	0.176402	-0.930845	0.320015
07032		0.176656	-0.291227	-0.940202	0.968752	0.220412	0.113748	0.174105	-0.930916	0.321064
07033		0.176023	-0.292793	-0.939834	0.969262	0.218267	0.113536	0.171892	-0.930930	0.322214
07034		0.175496	-0.294395	-0.939432	0.969691	0.216468	0.113313	0.169998	-0.930845	0.323461
07035		0.174983	-0.296015	-0.939019	0.970081	0.214861	0.113038	0.168298	-0.930704	0.324756
07036		0.174553	-0.297574	-0.938606	0.970423	0.213433	0.112804	0.166762	-0.930535	0.326028
07037		0.174218	-0.299094	-0.938185	0.970699	0.212298	0.112575	0.165504	-0.930308	0.327316
07038		0.173950	-0.300466	-0.937796	0.970918	0.211410	0.112358	0.164500	-0.930068	0.328503
07039		0.173732	-0.301708	-0.937438	0.971120	0.210558	0.112207	0.163532	-0.929859	0.329576
07040		0.173561	-0.302856	-0.937099	0.971302	0.209774	0.112100	0.162629	-0.929663	0.330574
07041		0.173346	-0.303983	-0.936774	0.971485	0.209008	0.111947	0.161763	-0.929468	0.331546
07042		0.173173	-0.305028	-0.936466	0.971617	0.208495	0.111762	0.161158	-0.929240	0.332476
07043		0.173025	-0.306062	-0.936156	0.971707	0.208200	0.111528	0.160773	-0.928967	0.333426
07044		0.172983	-0.307014	-0.935852	0.971717	0.208286	0.111283	0.160759	-0.928633	0.334361
07045		0.173061	-0.307961	-0.935526	0.971654	0.208708	0.111041	0.161055	-0.928225	0.335351
07046		0.173328	-0.308895	-0.935169	0.971491	0.209570	0.110837	0.161746	-0.927720	0.336414
07047		0.173730	-0.309846	-0.934780	0.971274	0.210656	0.110688	0.162620	-0.927157	0.337542
07048		0.174266	-0.310691	-0.934400	0.970980	0.212064	0.110576	0.163798	-0.926553	0.338630
07049		0.174857	-0.311363	-0.934066	0.970628	0.213728	0.110457	0.165244	-0.925945	0.339589
07050		0.175527	-0.311969	-0.933738	0.970230	0.215577	0.110361	0.166863	-0.925312	0.340521
07051		0.176248	-0.312602	-0.933390	0.969845	0.217308	0.110354	0.168336	-0.924693	0.341476
07052		0.176950	-0.313235	-0.933045	0.969379	0.219472	0.110161	0.170271	-0.923967	0.342480
07053		0.177724	-0.313687	-0.932746	0.968875	0.221750	0.110033	0.172321	-0.923270	0.343334
07054		0.178995	-0.314256	-0.932311	0.968328	0.223936	0.110427	0.174075	-0.922549	0.344386
07055		0.180418	-0.314961	-0.931799	0.967758	0.226133	0.110944	0.175768	-0.921772	0.345604
07056		0.181941	-0.315520	-0.931313	0.967198	0.228174	0.111648	0.177274	-0.921077	0.346685
07057		0.183544	-0.316053	-0.930818	0.966677	0.229934	0.112543	0.178457	-0.920457	0.347725
07058		0.185217	-0.316742	-0.930252	0.966221	0.231319	0.113617	0.179198	-0.919873	0.348887
07059		0.186892	-0.317472	-0.929668	0.965864	0.232181	0.114882	0.179380	-0.919404	0.350028
07060		0.188541	-0.318167	-0.929098	0.965578	0.232685	0.116262	0.179197	-0.919036	0.351085
07061		0.190091	-0.318858	-0.928544	0.965383	0.232772	0.117700	0.178610	-0.918775	0.352068
07062		0.191519	-0.319536	-0.928018	0.965231	0.232704	0.119074	0.177905	-0.918556	0.352993
07063		0.192907	-0.320351	-0.927449	0.965156	0.232269	0.120521	0.176809	-0.918382	0.353995
07064		0.194242	-0.321348	-0.926825	0.965133	0.231609	0.121967	0.175467	-0.918201	0.355132
07065		0.195519	-0.322440	-0.926177	0.965173	0.230651	0.123453	0.173818	-0.918059	0.356307
07066		0.196742	-0.323544	-0.925533	0.965255	0.229493	0.124961	0.171973	-0.917961	0.357454
07067		0.197925	-0.324644	-0.924896	0.965415	0.227918	0.126595	0.169702	-0.917965	0.358527
07068		0.199037	-0.325698	-0.924286	0.965622	0.226104	0.128265	0.167209	-0.918040	0.359505
07069		0.200047	-0.326833	-0.923667	0.965887	0.224011	0.129927	0.164448	-0.918150	0.360497
07070		0.201038	-0.327860	-0.923088	0.966139	0.221950	0.131582	0.161739	-0.918284	0.361379
07071		0.201940	-0.328863	-0.922534	0.966403	0.219839	0.133175	0.159013	-0.918433	0.362209
07072		0.202812	-0.329873	-0.921982	0.966635	0.217899	0.134673	0.156474	-0.918534	0.363059
07073		0.203571	-0.330924	-0.921438	0.966886	0.215906	0.136072	0.153914	-0.918626	0.363918
07074		0.204219	-0.331934	-0.920931	0.967139	0.213955	0.137349	0.151447	-0.918718	0.364720
07075		0.204629	-0.332955	-0.920472	0.967455	0.211798	0.138462	0.148852	-0.918849	0.365459
07076		0.204899	-0.333946	-0.920052	0.967806	0.209508	0.139490	0.146176	-0.919014	0.366123
07077		0.204911	-0.334988	-0.919671	0.968249	0.206845	0.140391	0.143200	-0.919238	0.366737
07078		0.204740	-0.336043	-0.919324	0.968756	0.203884	0.141222	0.139978	-0.919514	0.367287
07079		0.204334	-0.337024	-0.919055	0.969345	0.200527	0.141980	0.136445	-0.919893	0.367667
07080		0.203816	-0.337847	-0.918868	0.969940	0.197144	0.142659	0.132952	-0.920323	0.367873
07081		0.203288	-0.338628	-0.918698	0.970526	0.193727	0.143349	0.129434	-0.920761	0.368029
07082		0.202802	-0.339453	-0.918500	0.971075	0.190444	0.144028	0.126032	-0.921142	0.368257
07083		0.202293	-0.340395	-0.918264	0.971623	0.187125	0.144682	0.122581	-0.921475	0.368590
07084		0.201724	-0.341387	-0.918021	0.972156	0.183902	0.145232	0.119245	-0.921757	0.368979
07085		0.201041	-0.342421	-0.917786	0.972713	0.180552	0.145710	0.115814	-0.922035	0.369375
07086		0.200305	-0.343397	-0.917582	0.973256	0.177263	0.146119	0.112476	-0.922311	0.369719
07087		0.199518	-0.344362	-0.917392	0.973797	0.173955	0.146487	0.109140	-0.922580	0.370046
07088		0.198749	-0.345359	-0.917184	0.974309	0.170782	0.146821	0.105932	-0.922800	0.370429
07089		0.198001	-0.346420	-0.916945	0.974805	0.167623	0.147168	0.102720	-0.922982	0.370881
07090		0.197348	-0.347410	-0.916711	0.975261	0.164580	0.147581	0.099601	-0.923157	0.371295
07091		0.196726	-0.348468	-0.916444	0.975706	0.161501	0.148038	0.096420	-0.923302	0.371774
07092		0.196104	-0.349484	-0.916190	0.976134	0.158482	0.148481	0.093308	-0.923442	0.372222
07093		0.195480	-0.350522	-0.915927	0.976554	0.155437	0.148934	0.090164	-0.923566	0.372688
07094		0.194903	-0.351536	-0.915661	0.976952	0.152435	0.149427	0.087049	-0.923681	0.373144
07095		0.194320	-0.352577	-0.915385	0.977342	0.149416	0.149922	0.083913	-0.923777	0.373623
07096		0.193683	-0.353649	-0.915106	0.977714	0.146599	0.150280	0.081007	-0.923819	0.374162
07097		0.193020	-0.354683	-0.914846	0.978065	0.143965	0.150543	0.078311	-0.923837	0.374691
07098		0.192388	-0.355642	-0.914607	0.978378	0.141616	0.150736	0.075915	-0.923831	0.375197
07099		0.191841	-0.356631	-0.914337	0.978660	0.139408	0.150962	0.073628	-0.923786	0.375765
07100		0.191486	-0.357583	-0.914039	0.978879	0.137524	0.151268	0.071611	-0.923700	0.376365
07101		0.191233	-0.358508	-0.913730	0.979064	0.135819	0.151617	0.069746	-0.923594	0.376975
07102		0.191088	-0.359303	-0.913448	0.979204	0.134395	0.151980	0.068156	-0.923493	0.377512
07103		0.190950	-0.359997	-0.913203	0.979335	0.133035	0.152334	0.066648	-0.923420	0.377961
07104		0.190813	-0.360586	-0.912999	0.979444	0.131918	0.152599	0.065416	-0.923350	0.378346
07105		0.190624	-0.361037	-0.912861	0.979547	0.130985	0.152745	0.064425	-0.923307	0.378621
07106		0.190389	-0.361369	-0.912778	0.979630	0.130407	0.152705	0.063849	-0.923259	0.378836
07107		0.190151	-0.361660	-0.912713	0.979699	0.130042	0.152577	0.063510	-0.923196	0.379045
07108		0.189961	-0.361872	-0.912668	0.979734	0.130020	0.152367	0.063528	-0.923116	0.379237
07109		0.189859	-0.362003	-0.912637	0.979734	0.130287	0.152138	0.063830	-0.923027	0.379403
07110		0.189903	-0.361994	-0.912632	0.979682	0.130926	0.151923	0.064492	-0.922940	0.379503
07111		0.190093	-0.361863	-0.912644	0.979584	0.131858	0.151754	0.065425	-0.922859	0.379541
07112		0.190407	-0.361592	-0.912686	0.979441	0.133082	0.151609	0.066642	-0.922790	0.379497
07113		0.190818	-0.361226	-0.912746	0.979264	0.134507	0.151492	0.068048	-0.922726	0.379402
07114		0.191327	-0.360721	-0.912838	0.979040	0.136295	0.151344	0.069823	-0.922661	0.379238
07115		0.191882	-0.360064	-0.912982	0.978778	0.138396	0.151130	0.071936	-0.922605	0.378978
07116		0.192595	-0.359295	-0.913135	0.978458	0.140817	0.150965	0.074344	-0.922539	0.378675
07117		0.193454	-0.358265	-0.913357	0.978093	0.143369	0.150928	0.076875	-0.922546	0.378152
07118		0.194666	-0.357139	-0.913541	0.977637	0.146193	0.151171	0.079564	-0.922540	0.377611
07119		0.196173	-0.355979	-0.913671	0.977092	0.149361	0.151597	0.082501	-0.922480	0.377125
07120		0.197913	-0.354708	-0.913790	0.976457	0.152942	0.152118	0.085800	-0.922383	0.376626
07121		0.199753	-0.353345	-0.913918	0.975758	0.156851	0.152626	0.089419	-0.922250	0.376111
07122		0.201692	-0.351810	-0.914084	0.974973	0.161232	0.153073	0.093527	-0.922081	0.375525
07123		0.203673	-0.350124	-0.914292	0.974117	0.165998	0.153432	0.098051	-0.921877	0.374871
07124		0.205741	-0.348229	-0.914553	0.973169	0.171184	0.153746	0.103018	-0.921647	0.374105
07125		0.207848	-0.346217	-0.914840	0.972145	0.176684	0.154002	0.108320	-0.921367	0.373297
07126		0.210143	-0.343998	-0.915153	0.971006	0.182544	0.154352	0.113959	-0.921055	0.372385
07127		0.212570	-0.341616	-0.915485	0.969777	0.188597	0.154801	0.119775	-0.920723	0.371381
07128		0.215080	-0.339068	-0.915846	0.968439	0.195005	0.155235	0.125959	-0.920329	0.370309
07129		0.217675	-0.336310	-0.916249	0.966992	0.201705	0.155695	0.132450	-0.919897	0.369116
07130		0.220335	-0.333308	-0.916711	0.965417	0.208795	0.156125	0.139367	-0.919408	0.367786
07131		0.223049	-0.330074	-0.917224	0.963716	0.216202	0.156552	0.146631	-0.918862	0.366322
07132		0.225852	-0.326643	-0.917767	0.961872	0.223949	0.157000	0.154250	-0.918233	0.364768
07133		0.228831	-0.323202	-0.918246	0.959872	0.232002	0.157545	0.162116	-0.917450	0.363322
07134		0.231891	-0.319580	-0.918747	0.957696	0.240480	0.158072	0.170424	-0.916536	0.361825
07135		0.235179	-0.315822	-0.919210	0.955369	0.249069	0.158855	0.178777	-0.915544	0.360303
07136		0.238576	-0.311942	-0.919660	0.952893	0.257834	0.159742	0.187289	-0.914448	0.358760
07137		0.241998	-0.307942	-0.920113	0.950292	0.266698	0.160677	0.195913	-0.913260	0.357175
07138		0.245380	-0.303671	-0.920637	0.947522	0.275867	0.161551	0.204915	-0.911966	0.355427
07139		0.248750	-0.299034	-0.921250	0.944640	0.285014	0.162551	0.213961	-0.910684	0.353377
07140		0.252096	-0.293965	-0.921972	0.941613	0.294254	0.163645	0.223188	-0.909395	0.350982
07141		0.255529	-0.288579	-0.922728	0.938445	0.303490	0.164967	0.232433	-0.908084	0.348366
07142		0.258903	-0.283082	-0.923490	0.935070	0.313098	0.166173	0.242102	-0.906551	0.345764
07143		0.262428	-0.277508	-0.924187	0.931426	0.323112	0.167462	0.252144	-0.904758	0.343272
07144		0.265860	-0.271912	-0.924869	0.927513	0.333644	0.168528	0.262752	-0.902633	0.340905
07145		0.269311	-0.266144	-0.925548	0.923343	0.344485	0.169612	0.273696	-0.900276	0.338515
07146		0.272633	-0.260003	-0.926320	0.918878	0.355757	0.170588	0.285191	-0.897684	0.335902
07147		0.275888	-0.253506	-0.927157	0.914157	0.367244	0.171607	0.296990	-0.894911	0.333063
07148		0.279028	-0.246692	-0.928055	0.909120	0.379109	0.172562	0.309264	-0.891863	0.330055
07149		0.282267	-0.239745	-0.928896	0.903792	0.391143	0.173686	0.321691	-0.888555	0.327086
07150		0.285629	-0.232739	-0.929650	0.898121	0.403456	0.174936	0.334358	-0.884904	0.324267
07151		0.289226	-0.225634	-0.930289	0.892250	0.415571	0.176607	0.346753	-0.881130	0.321516
07152		0.292866	-0.218277	-0.930905	0.886091	0.427777	0.178463	0.359265	-0.877133	0.318695
07153		0.296424	-0.210481	-0.931574	0.879877	0.439518	0.180669	0.371416	-0.873225	0.315481
07154		0.299707	-0.202356	-0.932324	0.873583	0.450982	0.182941	0.383442	-0.869291	0.311938
07155		0.302625	-0.194102	-0.933136	0.867252	0.462172	0.185122	0.395337	-0.865287	0.308200
07156		0.305025	-0.185748	-0.934054	0.860774	0.473409	0.186952	0.407464	-0.861035	0.304289
07157		0.307027	-0.177315	-0.935037	0.854223	0.484486	0.188616	0.419568	-0.856640	0.300217
07158		0.308588	-0.168754	-0.936106	0.847549	0.495515	0.190068	0.431780	-0.852049	0.295937
07159		0.309807	-0.160048	-0.937232	0.840807	0.506345	0.191466	0.443919	-0.847348	0.291439
07160		0.310802	-0.151363	-0.938345	0.833732	0.517461	0.192680	0.456392	-0.842213	0.287024
07161		0.311677	-0.142677	-0.939415	0.826329	0.528776	0.193848	0.469082	-0.836684	0.282706
07162		0.312436	-0.133677	-0.940486	0.818647	0.540109	0.195191	0.481872	-0.830911	0.278184
07163		0.313108	-0.124441	-0.941530	0.810831	0.551204	0.196792	0.494486	-0.825039	0.273487
07164		0.313530	-0.114869	-0.942605	0.802873	0.562114	0.198551	0.507044	-0.819044	0.268465
07165		0.313682	-0.105088	-0.943695	0.794807	0.572818	0.200404	0.519506	-0.812918	0.263207
07166		0.313708	-0.095363	-0.944719	0.786264	0.583887	0.202152	0.532331	-0.806215	0.258150
07167		0.313558	-0.085729	-0.945691	0.777308	0.595206	0.203771	0.545412	-0.798987	0.253270
07168		0.313220	-0.076186	-0.946620	0.767831	0.606896	0.205217	0.558865	-0.791122	0.248590
07169		0.312668	-0.066665	-0.947520	0.758127	0.618495	0.206656	0.572260	-0.782956	0.243924
07170		0.311969	-0.057297	-0.948363	0.748159	0.630060	0.208044	0.585605	-0.774430	0.239426
07171		0.311212	-0.048053	-0.949125	0.738114	0.641307	0.209554	0.598611	-0.765778	0.235051
07172		0.310316	-0.038913	-0.949837	0.728014	0.652245	0.211124	0.611310	-0.757009	0.230731
07173		0.309203	-0.029684	-0.950533	0.717764	0.662977	0.212781	0.623865	-0.748051	0.226301
07174		0.307948	-0.020437	-0.951184	0.707346	0.673526	0.214533	0.636263	-0.738881	0.221867
07175		0.306636	-0.011232	-0.951761	0.696790	0.683847	0.216420	0.648427	-0.729539	0.217518
07176		0.305082	-0.001935	-0.952324	0.686176	0.693873	0.218410	0.660369	-0.720095	0.213016
07177		0.303324	0.007505	-0.952858	0.675707	0.703377	0.220638	0.671874	-0.710777	0.208280
07178		0.301150	0.017008	-0.953425	0.664957	0.712892	0.222751	0.683477	-0.701068	0.203378
07179		0.298427	0.026592	-0.954062	0.654200	0.722154	0.224760	0.694956	-0.691221	0.198114
07180		0.295356	0.036008	-0.954709	0.643137	0.731470	0.226554	0.706498	-0.680922	0.192886
07181		0.292256	0.045071	-0.955278	0.631374	0.741163	0.228130	0.718299	-0.669810	0.188153
07182		0.289150	0.053854	-0.955768	0.618784	0.751279	0.229533	0.730410	-0.657783	0.183908
07183		0.286100	0.062470	-0.956161	0.605771	0.761367	0.231001	0.742421	-0.645304	0.179984
07184		0.282854	0.070928	-0.956537	0.592092	0.771662	0.232305	0.754600	-0.632066	0.176272
07185		0.279609	0.079207	-0.956841	0.577785	0.782052	0.233579	0.766801	-0.618159	0.172904
07186		0.276474	0.087307	-0.957047	0.562548	0.792715	0.234826	0.779167	-0.603308	0.170051
07187		0.273457	0.095395	-0.957142	0.546709	0.803300	0.236257	0.791411	-0.587884	0.167515
07188		0.270336	0.103542	-0.957182	0.530400	0.813705	0.237822	0.803489	-0.571981	0.165055
07189		0.267214	0.111949	-0.957112	0.514001	0.823579	0.239833	0.815107	-0.556044	0.162531
07190		0.264015	0.121026	-0.956895	0.497468	0.832870	0.242595	0.826330	-0.540074	0.159684
07191		0.261113	0.129512	-0.956581	0.480438	0.842069	0.245151	0.837257	-0.523590	0.157652
07192		0.258386	0.137762	-0.956169	0.462828	0.851137	0.247700	0.847955	-0.506544	0.156162
07193		0.255651	0.145969	-0.955686	0.444752	0.859962	0.250322	0.858393	-0.489038	0.154930
07194		0.252861	0.154185	-0.955138	0.425935	0.868664	0.252986	0.868701	-0.470797	0.153978
07195		0.250114	0.162333	-0.954511	0.407162	0.876802	0.255807	0.878443	-0.452621	0.153204
07196		0.247335	0.170345	-0.953839	0.387951	0.884662	0.258588	0.887874	-0.434000	0.152722
07197		0.244670	0.178183	-0.953094	0.368553	0.892101	0.261391	0.896831	-0.415220	0.152601
07198		0.241825	0.186029	-0.952320	0.348800	0.899181	0.264221	0.905461	-0.396065	0.152557
07199		0.238923	0.193704	-0.951522	0.328905	0.905835	0.266990	0.913640	-0.376750	0.152715
07200		0.236090	0.201238	-0.950665	0.308601	0.912148	0.269724	0.921426	-0.357056	0.153247
07202		0.231578	0.216046	-0.948523	0.266598	0.923606	0.275459	0.935573	-0.316665	0.156289
07204		0.227437	0.230909	-0.946020	0.223084	0.933289	0.281434	0.947895	-0.275051	0.160752
07205		0.225375	0.238621	-0.944599	0.201004	0.937296	0.284734	0.953312	-0.254040	0.163279
07206		0.223195	0.246609	-0.943063	0.178917	0.940668	0.288327	0.958213	-0.233083	0.165830
07207		0.220992	0.254900	-0.941376	0.156974	0.943360	0.292287	0.962560	-0.212365	0.168462
07208		0.218579	0.263430	-0.939589	0.134891	0.945471	0.296459	0.966451	-0.191542	0.171126
07209		0.216392	0.272169	-0.937603	0.112697	0.946974	0.300899	0.969780	-0.170777	0.174244
07210		0.214136	0.281031	-0.935504	0.089945	0.947978	0.305366	0.972654	-0.149534	0.177719
07211		0.211842	0.289859	-0.933330	0.066900	0.948464	0.309744	0.975011	-0.128057	0.181533
07212		0.209287	0.298762	-0.931096	0.043308	0.948417	0.314054	0.976895	-0.106051	0.185552
07213		0.206536	0.307646	-0.928815	0.019725	0.947780	0.318314	0.978240	-0.084064	0.189682
07214		0.203476	0.316601	-0.926478	-0.004322	0.946555	0.322513	0.979070	-0.061619	0.193970
07215		0.200158	0.325800	-0.924008	-0.028355	0.944624	0.326927	0.979353	-0.039237	0.198312
07216		0.196403	0.334990	-0.921524	-0.052573	0.942075	0.331256	0.979113	-0.016612	0.202638
07217		0.192520	0.344091	-0.918987	-0.076661	0.938918	0.335493	0.978294	0.005861	0.207139
07218		0.188422	0.353160	-0.916393	-0.101144	0.935123	0.339582	0.976866	0.028703	0.211917
07219		0.184413	0.362536	-0.913542	-0.125839	0.930543	0.343881	0.974760	0.051543	0.217226
07221		0.176033	0.382123	-0.907190	-0.176782	0.918870	0.352740	0.968380	0.098281	0.229304
07222		0.171504	0.392320	-0.903699	-0.202430	0.911750	0.357398	0.964162	0.121641	0.235786
07223		0.166435	0.402632	-0.900104	-0.228298	0.903767	0.362057	0.959260	0.145233	0.242339
07224		0.160996	0.412855	-0.896455	-0.253931	0.895053	0.366605	0.953729	0.168615	0.248937
07225		0.155041	0.422880	-0.892824	-0.279217	0.885661	0.371001	0.947629	0.191771	0.255389
07226		0.148739	0.432693	-0.889187	-0.304088	0.875633	0.375231	0.940961	0.214579	0.261818
07227		0.142028	0.442144	-0.885628	-0.328933	0.864936	0.379063	0.933612	0.237475	0.268280
07228		0.134987	0.451355	-0.882075	-0.353441	0.853595	0.382694	0.925666	0.260103	0.274752
07229		0.127730	0.460485	-0.878429	-0.377747	0.841517	0.386208	0.917056	0.282494	0.281434
07230		0.120215	0.469409	-0.874759	-0.401666	0.828804	0.389549	0.907862	0.304532	0.288180
07231		0.112154	0.477965	-0.871189	-0.425021	0.815552	0.392724	0.898209	0.326228	0.294613
07232		0.103628	0.486209	-0.867676	-0.447591	0.801845	0.395864	0.888214	0.347341	0.300716
07233		0.094804	0.494158	-0.864187	-0.469351	0.787745	0.398958	0.877908	0.367784	0.306615
07234		0.085840	0.501991	-0.860603	-0.490485	0.773157	0.402061	0.867211	0.387600	0.312587
07235		0.076454	0.509392	-0.857131	-0.511043	0.758166	0.404994	0.856148	0.407067	0.318286
07236		0.066876	0.516266	-0.853813	-0.530762	0.743016	0.407699	0.844878	0.425906	0.323705
07237		0.057102	0.522640	-0.850639	-0.550251	0.727413	0.409992	0.833044	0.444654	0.329120
07238		0.047409	0.528752	-0.847451	-0.569365	0.711389	0.412006	0.820717	0.462976	0.334779
07239		0.037440	0.534636	-0.844253	-0.588160	0.694800	0.413909	0.807878	0.481059	0.340465
07240		0.027220	0.540366	-0.840990	-0.606282	0.677824	0.415904	0.794783	0.498556	0.346065
07241		0.016726	0.545859	-0.837710	-0.623710	0.660530	0.417954	0.781477	0.515497	0.351506
07242		0.006150	0.551253	-0.834316	-0.640211	0.643095	0.420189	0.768175	0.531554	0.356873
07243		-0.004532	0.556397	-0.830905	-0.655795	0.625630	0.422516	0.754925	0.546818	0.362047
07244		-0.015015	0.561503	-0.827338	-0.670640	0.608063	0.424855	0.741631	0.561225	0.367436
07245		-0.025516	0.566523	-0.823651	-0.685009	0.590172	0.427154	0.728088	0.575107	0.373014
07246		-0.036082	0.571323	-0.819931	-0.698560	0.572302	0.429517	0.714641	0.588269	0.378454
07247		-0.046874	0.575847	-0.816213	-0.711258	0.554484	0.432041	0.701367	0.600789	0.383585
07248		-0.057823	0.580369	-0.812298	-0.722967	0.536767	0.434971	0.688459	0.612416	0.388550
07249		-0.068709	0.585140	-0.808016	-0.733735	0.519132	0.438332	0.675952	0.622987	0.393669
07250		-0.079434	0.590165	-0.803365	-0.743691	0.501565	0.441992	0.663788	0.632564	0.399059
07251		-0.090113	0.595190	-0.798516	-0.752994	0.484039	0.445764	0.651827	0.641447	0.404557
07252		-0.100593	0.600250	-0.793462	-0.761574	0.466731	0.449630	0.640224	0.649509	0.410184
07253		-0.110934	0.605272	-0.788251	-0.769378	0.449754	0.453630	0.629088	0.656785	0.415790
07254		-0.121109	0.610375	-0.782800	-0.776404	0.433113	0.457832	0.618490	0.663217	0.421443
07255		-0.131236	0.615535	-0.777106	-0.782703	0.416743	0.462278	0.608402	0.668911	0.427090
07256		-0.141398	0.620451	-0.771393	-0.788187	0.400911	0.466939	0.598973	0.674026	0.432343
07257		-0.151470	0.625027	-0.765766	-0.792953	0.385698	0.471659	0.590154	0.678659	0.437195
07258		-0.161355	0.629469	-0.760088	-0.797079	0.371012	0.476462	0.581919	0.682730	0.441872
07259		-0.171083	0.633827	-0.754317	-0.800625	0.356770	0.481367	0.574221	0.686279	0.446421
07260		-0.180388	0.638258	-0.748390	-0.803634	0.343070	0.486288	0.567127	0.689152	0.451040
07261		-0.189206	0.642648	-0.742432	-0.806089	0.330110	0.491171	0.560734	0.691398	0.455572
07262		-0.197417	0.646936	-0.736546	-0.807871	0.318237	0.496054	0.555311	0.692964	0.459815
07263		-0.205020	0.651106	-0.730772	-0.809069	0.307425	0.500897	0.550794	0.693939	0.463761
07264		-0.211882	0.655093	-0.725230	-0.809819	0.297722	0.505524	0.547082	0.694417	0.467425
07265		-0.217880	0.658706	-0.720163	-0.810174	0.289369	0.509788	0.544193	0.694530	0.470619
07266		-0.222927	0.661825	-0.715746	-0.810136	0.282596	0.513633	0.542202	0.694354	0.473170
07267		-0.227156	0.664454	-0.711970	-0.809575	0.277504	0.517281	0.541284	0.693897	0.474889
07268		-0.230670	0.666436	-0.708981	-0.808353	0.274332	0.520872	0.541624	0.693256	0.475436
07269		-0.233571	0.667837	-0.706709	-0.806461	0.272978	0.524503	0.543199	0.692442	0.474825
07270		-0.235788	0.668913	-0.704953	-0.803995	0.273209	0.528156	0.545890	0.691312	0.473383
07271		-0.237230	0.669656	-0.703763	-0.801271	0.274718	0.531503	0.549261	0.689993	0.471404
07272		-0.237802	0.670037	-0.703207	-0.798609	0.277217	0.534205	0.552878	0.688622	0.469175
07273		-0.237500	0.670262	-0.703095	-0.796074	0.280474	0.536284	0.556650	0.687084	0.466966
07274		-0.236373	0.670440	-0.703305	-0.793550	0.284495	0.537904	0.560720	0.685253	0.464781
07275		-0.234624	0.670488	-0.703845	-0.790802	0.289426	0.539319	0.565318	0.683139	0.462316
07276		-0.232371	0.670150	-0.704913	-0.787699	0.295483	0.540573	0.570555	0.680873	0.459215
07277		-0.229595	0.669537	-0.706404	-0.784129	0.302708	0.541766	0.576566	0.678298	0.455503
07278		-0.226267	0.668799	-0.708174	-0.780227	0.310805	0.542813	0.583137	0.675357	0.451490
07279		-0.222325	0.668023	-0.710152	-0.776037	0.319679	0.543666	0.590202	0.671975	0.447338
07280		-0.217944	0.667093	-0.712381	-0.771568	0.329213	0.544336	0.597648	0.668285	0.442958
07281		-0.213071	0.666023	-0.714852	-0.766786	0.339444	0.544808	0.605507	0.664222	0.438372
07282		-0.207670	0.664949	-0.717437	-0.761693	0.350255	0.545110	0.613756	0.659670	0.433750
07283		-0.201763	0.664004	-0.719993	-0.756093	0.361688	0.545440	0.622587	0.654432	0.429074
07284		-0.195395	0.663042	-0.722631	-0.749990	0.373757	0.545730	0.631931	0.648599	0.424244
07285		-0.188547	0.662033	-0.725370	-0.743443	0.386385	0.545893	0.641672	0.642198	0.419332
07286		-0.181282	0.661084	-0.728083	-0.736644	0.399206	0.545884	0.651531	0.635297	0.414615
07287		-0.173632	0.660196	-0.730749	-0.729512	0.412238	0.545776	0.661561	0.627855	0.410043
07288		-0.165644	0.659288	-0.733418	-0.722123	0.425404	0.545500	0.671640	0.619977	0.405622
07289		-0.157232	0.658581	-0.735901	-0.714320	0.438708	0.545235	0.681927	0.611397	0.401458
07290		-0.148339	0.658101	-0.738173	-0.706189	0.452052	0.544928	0.692310	0.602123	0.397687
07291		-0.139091	0.657764	-0.740271	-0.697438	0.465624	0.544770	0.703018	0.592065	0.393985
07292		-0.129432	0.657414	-0.742331	-0.688224	0.479390	0.544549	0.713860	0.581372	0.390399
07293		-0.119310	0.656893	-0.744485	-0.678364	0.493593	0.544232	0.724974	0.569964	0.386722
07294		-0.108776	0.655960	-0.746917	-0.667884	0.508293	0.543662	0.736273	0.557991	0.382815
07295		-0.098068	0.654693	-0.749506	-0.656679	0.523327	0.543048	0.747767	0.545441	0.378601
07296		-0.087101	0.653142	-0.752209	-0.645090	0.538407	0.542196	0.759126	0.532469	0.374440
07297		-0.075865	0.651487	-0.754857	-0.633172	0.553345	0.541205	0.770285	0.519013	0.370523
07298		-0.064431	0.649629	-0.757516	-0.621227	0.567958	0.539907	0.780977	0.505376	0.366974
07299		-0.052777	0.647619	-0.760135	-0.609036	0.582364	0.538448	0.791384	0.491367	0.363688
07300		-0.040839	0.645343	-0.762801	-0.596672	0.596613	0.536690	0.801446	0.477059	0.360693
07301		-0.028567	0.642823	-0.765482	-0.583844	0.610861	0.534766	0.811363	0.462199	0.357858
07302		-0.015917	0.639806	-0.768371	-0.570590	0.625243	0.532446	0.821081	0.446899	0.355115
07303		-0.003168	0.635993	-0.771688	-0.556604	0.639982	0.529731	0.830772	0.431203	0.351969
07304		0.009550	0.631129	-0.775619	-0.541534	0.655328	0.526579	0.840625	0.414995	0.348036
07305		0.022182	0.625170	-0.780173	-0.525033	0.671377	0.523062	0.850793	0.398014	0.343127
07306		0.034807	0.618099	-0.785329	-0.507358	0.687942	0.518963	0.861032	0.380380	0.337543
07307		0.047437	0.609958	-0.791013	-0.488225	0.705023	0.514372	0.871427	0.361792	0.331241
07308		0.059845	0.600676	-0.797250	-0.467781	0.722430	0.509191	0.881816	0.342466	0.324218
07309		0.071945	0.590351	-0.803934	-0.445882	0.740035	0.503526	0.892196	0.322233	0.316468
07310		0.083580	0.578949	-0.811069	-0.422774	0.757636	0.497242	0.902373	0.301340	0.308088
07311		0.094693	0.566568	-0.818556	-0.398322	0.775125	0.490429	0.912345	0.279608	0.299076
07312		0.105344	0.553025	-0.826478	-0.372955	0.792410	0.482692	0.921850	0.257390	0.289729
07313		0.115858	0.538468	-0.834643	-0.346291	0.809476	0.474163	0.930945	0.234094	0.280251
07314		0.126195	0.522880	-0.843013	-0.318712	0.826124	0.464695	0.939413	0.210036	0.270901
07315		0.136274	0.506445	-0.851436	-0.290121	0.842175	0.454502	0.947238	0.185082	0.261697
07316		0.145898	0.489218	-0.859872	-0.261118	0.857393	0.443503	0.954218	0.159822	0.252835
07317		0.154853	0.471483	-0.868173	-0.231389	0.871639	0.432093	0.960458	0.133975	0.244072
07318		0.162797	0.453397	-0.876315	-0.200779	0.884803	0.420488	0.966015	0.107491	0.235076
07319		0.169346	0.435057	-0.884335	-0.169019	0.896821	0.408833	0.970955	0.080235	0.225406
07320		0.174369	0.416480	-0.892267	-0.136500	0.907623	0.396973	0.975174	0.052575	0.215111
07321		0.178023	0.397879	-0.900000	-0.103156	0.917116	0.385041	0.978604	0.024294	0.204311
07322		0.180340	0.379183	-0.907578	-0.069614	0.925313	0.372760	0.981138	-0.004043	0.193267
07323		0.181827	0.360558	-0.914843	-0.034963	0.932133	0.360423	0.982709	-0.033549	0.182093
07324		0.182079	0.341887	-0.921933	-0.000781	0.937656	0.347564	0.983284	-0.062565	0.170995
07325		0.181587	0.323337	-0.928698	0.033699	0.941798	0.334487	0.982797	-0.092035	0.160122
07326		0.180506	0.304737	-0.935175	0.068549	0.944584	0.321034	0.981182	-0.122054	0.149614
07327		0.178366	0.286445	-0.941347	0.103364	0.945941	0.307429	0.978520	-0.152136	0.139116
07328		0.174736	0.267989	-0.947444	0.138123	0.946061	0.293072	0.974879	-0.182073	0.128295
07329		0.169586	0.249694	-0.953359	0.172635	0.944887	0.278184	0.970277	-0.211759	0.117134
07330		0.164123	0.231147	-0.958976	0.207041	0.942433	0.262593	0.964468	-0.241645	0.106818
07331		0.157823	0.212905	-0.964242	0.239863	0.938969	0.246584	0.957892	-0.270203	0.097123
07332		0.150105	0.194618	-0.969326	0.271713	0.934561	0.229714	0.950600	-0.297859	0.087402
07333		0.140574	0.176789	-0.974159	0.302573	0.929184	0.212289	0.942703	-0.324596	0.077128
07334		0.130855	0.158481	-0.978653	0.334112	0.922344	0.194036	0.933406	-0.352371	0.067743
07335		0.120314	0.140250	-0.982779	0.365465	0.914188	0.175203	0.923017	-0.380251	0.058733
07336		0.108703	0.121923	-0.986569	0.396757	0.904654	0.155515	0.911464	-0.408333	0.049965
07337		0.095665	0.104291	-0.989935	0.427731	0.893694	0.135487	0.898829	-0.436387	0.040886
07338		0.081427	0.087005	-0.992875	0.458561	0.881213	0.114827	0.884925	-0.464644	0.031857
07339		0.066101	0.070687	-0.995306	0.488989	0.867203	0.094064	0.869782	-0.492911	0.022758
07340		0.049809	0.054743	-0.997257	0.518840	0.851777	0.072671	0.853419	-0.521037	0.014024
07341		0.032697	0.039363	-0.998690	0.547538	0.835234	0.050847	0.836141	-0.548484	0.005757
07342		0.014502	0.024108	-0.999604	0.575280	0.817475	0.028062	0.817828	-0.575459	-0.002014
07343		-0.004772	0.009654	-0.999942	0.601571	0.798805	0.004841	0.798805	-0.601513	-0.009619
07344		-0.024848	-0.004334	-0.999682	0.626517	0.779178	-0.018951	0.779012	-0.626788	-0.016646
07345		-0.045716	-0.017528	-0.998801	0.649640	0.759022	-0.043055	0.758866	-0.650829	-0.023313
07346		-0.066865	-0.030330	-0.997301	0.671558	0.737874	-0.067466	0.737929	-0.674257	-0.028970
07347		-0.087767	-0.042665	-0.995227	0.691808	0.716233	-0.091714	0.716728	-0.696555	-0.033346
07348		-0.108509	-0.055213	-0.992561	0.710567	0.693954	-0.116283	0.695212	-0.717899	-0.036067
07349		-0.129139	-0.067130	-0.989352	0.727584	0.671470	-0.140532	0.673754	-0.737985	-0.037870
07350		-0.150022	-0.079162	-0.985508	0.743051	0.648523	-0.165207	0.652203	-0.757068	-0.038472
07351		-0.171252	-0.090999	-0.981016	0.756667	0.625549	-0.190114	0.630974	-0.774860	-0.038270
07352		-0.192902	-0.103139	-0.975782	0.769025	0.601749	-0.215633	0.609417	-0.791997	-0.036762
07353		-0.214845	-0.115372	-0.969810	0.779619	0.577837	-0.241453	0.588248	-0.807957	-0.034199
07354		-0.237398	-0.127851	-0.962962	0.788692	0.553348	-0.267902	0.567105	-0.823080	-0.030529
07355		-0.260262	-0.139962	-0.955340	0.796394	0.528307	-0.294360	0.545912	-0.837438	-0.026033
07356		-0.283501	-0.152204	-0.946816	0.803084	0.501916	-0.321148	0.524102	-0.851419	-0.020061
07357		-0.306864	-0.164078	-0.937503	0.808114	0.475437	-0.347722	0.502778	-0.864313	-0.013301
07358		-0.330783	-0.175948	-0.927160	0.811337	0.448764	-0.374623	0.481990	-0.876158	-0.005690
07359		-0.354974	-0.187465	-0.915888	0.812491	0.422745	-0.401428	0.462440	-0.886647	0.002250
07360		-0.379633	-0.198791	-0.903527	0.812007	0.396390	-0.428392	0.443310	-0.896302	0.010937
07361		-0.404389	-0.210033	-0.890144	0.809519	0.370727	-0.455236	0.425615	-0.904681	0.020108
07362		-0.429127	-0.221881	-0.875567	0.805009	0.345680	-0.482146	0.409646	-0.911742	0.030276
07363		-0.453689	-0.233672	-0.859979	0.798155	0.322677	-0.508751	0.396376	-0.917211	0.040111
07364		-0.477887	-0.245317	-0.843471	0.789820	0.300258	-0.534817	0.384459	-0.921772	0.050267
07365		-0.501112	-0.256929	-0.826362	0.780560	0.278106	-0.559806	0.373646	-0.925551	0.061186
07366		-0.523452	-0.268974	-0.808487	0.770125	0.256631	-0.583993	0.364562	-0.928328	0.072809
07367		-0.544866	-0.281207	-0.789964	0.758786	0.235609	-0.607233	0.356881	-0.930275	0.085001
07368		-0.565912	-0.293310	-0.770528	0.746388	0.214723	-0.629920	0.350211	-0.931592	0.097409
07369		-0.586760	-0.304809	-0.750203	0.732986	0.193825	-0.652046	0.344157	-0.932483	0.109692
07370		-0.607540	-0.315812	-0.728806	0.718410	0.172891	-0.673792	0.338796	-0.932937	0.121845
07371		-0.627712	-0.326288	-0.706763	0.702786	0.152911	-0.694773	0.334768	-0.932821	0.133327
07372		-0.647343	-0.336183	-0.684052	0.686365	0.133143	-0.714966	0.331436	-0.932338	0.144555
07373		-0.666274	-0.345721	-0.660724	0.669756	0.112149	-0.734064	0.327881	-0.931611	0.156827
07374		-0.684376	-0.354968	-0.636888	0.652779	0.090840	-0.752082	0.324820	-0.930455	0.169547
07375		-0.701322	-0.364225	-0.612770	0.636016	0.068481	-0.768631	0.321918	-0.928790	0.183626
07376		-0.717586	-0.372817	-0.588284	0.619432	0.044510	-0.783788	0.318393	-0.926837	0.198995
07377		-0.733338	-0.380487	-0.563423	0.602699	0.019646	-0.797726	0.314593	-0.924578	0.214912
07378		-0.748502	-0.388036	-0.537747	0.585563	-0.006174	-0.810603	0.311223	-0.921623	0.231841
07379		-0.762508	-0.396812	-0.511001	0.568524	-0.033966	-0.821965	0.308809	-0.917271	0.251497
07380		-0.776443	-0.404307	-0.483397	0.549798	-0.059703	-0.833162	0.307993	-0.912673	0.268643
07381		-0.790228	-0.410980	-0.454571	0.529332	-0.084005	-0.844245	0.308782	-0.907766	0.283928
07382		-0.803803	-0.416408	-0.424859	0.507339	-0.106883	-0.855093	0.310657	-0.902873	0.297173
07383		-0.816595	-0.420477	-0.395440	0.484767	-0.127702	-0.865271	0.313328	-0.898271	0.308114
07384		-0.828469	-0.423169	-0.366834	0.462193	-0.146742	-0.874554	0.316254	-0.894089	0.317157
07385		-0.839287	-0.424914	-0.339183	0.439572	-0.163189	-0.883259	0.319958	-0.890403	0.323742
07386		-0.849609	-0.425424	-0.311736	0.416240	-0.177869	-0.891688	0.323897	-0.887343	0.328197
07387		-0.859567	-0.424853	-0.283980	0.392422	-0.192810	-0.899349	0.327337	-0.884491	0.332455
07388		-0.868545	-0.424160	-0.256356	0.368811	-0.207625	-0.906019	0.331071	-0.881465	0.336766
07389		-0.876831	-0.422194	-0.230041	0.345715	-0.221120	-0.911914	0.334138	-0.879124	0.339844
07390		-0.884907	-0.418095	-0.205273	0.323166	-0.233757	-0.917018	0.335416	-0.877812	0.341967
07391		-0.892121	-0.413597	-0.181820	0.301496	-0.245276	-0.921379	0.336483	-0.876800	0.343513
07392		-0.898735	-0.408508	-0.159362	0.279811	-0.254466	-0.925718	0.337611	-0.876566	0.343002
07393		-0.904842	-0.403177	-0.136780	0.257847	-0.263301	-0.929617	0.338786	-0.876425	0.342204
07394		-0.910400	-0.397743	-0.113899	0.235905	-0.272883	-0.932676	0.339884	-0.875977	0.342262
07395		-0.915296	-0.392330	-0.091159	0.214230	-0.282536	-0.935029	0.341084	-0.875357	0.342653
07396		-0.919578	-0.386671	-0.069735	0.192874	-0.289615	-0.937509	0.342311	-0.875562	0.340903
07397		-0.923246	-0.380930	-0.050086	0.172249	-0.293854	-0.940202	0.343433	-0.876666	0.336914
07398		-0.926237	-0.375633	-0.031385	0.152535	-0.297376	-0.942497	0.344700	-0.877763	0.332738
07399		-0.928630	-0.370791	-0.012637	0.134602	-0.304975	-0.942800	0.345728	-0.877214	0.333118
07400		-0.930683	-0.365774	0.006268	0.117828	-0.315939	-0.941435	0.346333	-0.875438	0.337137
07401		-0.932459	-0.360402	0.025096	0.100886	-0.326463	-0.939811	0.346903	-0.873803	0.340773
07402		-0.933945	-0.354702	0.043961	0.083146	-0.335238	-0.938457	0.347610	-0.872813	0.342586
07403		-0.934978	-0.349125	0.062678	0.065552	-0.343732	-0.936777	0.348597	-0.871757	0.344268
07404		-0.935849	-0.343200	0.079999	0.048947	-0.351405	-0.934943	0.348984	-0.871050	0.345661
07405		-0.936460	-0.337347	0.096121	0.033705	-0.359294	-0.932616	0.349151	-0.870118	0.347835
07406		-0.936869	-0.331497	0.111289	0.019615	-0.367579	-0.929786	0.349129	-0.868905	0.350876
07407		-0.937173	-0.325360	0.125886	0.005530	-0.374655	-0.927148	0.348821	-0.868202	0.352916
07408		-0.937444	-0.318985	0.139452	-0.007913	-0.380941	-0.924565	0.348045	-0.867832	0.354587
07409		-0.937470	-0.313438	0.151348	-0.019938	-0.385755	-0.922386	0.347494	-0.867727	0.355385
07410		-0.936967	-0.309595	0.162001	-0.030521	-0.389345	-0.920586	0.348083	-0.867503	0.355355
07411		-0.935897	-0.307297	0.172236	-0.040274	-0.392384	-0.918919	0.349964	-0.866950	0.354855
07412		-0.935084	-0.304433	0.181487	-0.049512	-0.394834	-0.917417	0.350949	-0.866848	0.354130
07413		-0.934520	-0.300976	0.189962	-0.058090	-0.397595	-0.915721	0.351138	-0.866794	0.354077
07414		-0.934145	-0.297326	0.197409	-0.065674	-0.400479	-0.913950	0.350799	-0.866726	0.354579
07415		-0.933960	-0.293649	0.203688	-0.072209	-0.403138	-0.912286	0.350007	-0.866746	0.355311
07416		-0.933900	-0.290635	0.208237	-0.076946	-0.405398	-0.910896	0.349157	-0.866708	0.356238
07417		-0.933980	-0.288148	0.211309	-0.080397	-0.406741	-0.909999	0.348162	-0.866910	0.356722
07418		-0.934217	-0.286069	0.213081	-0.082428	-0.408059	-0.909227	0.347051	-0.866979	0.357635
07419		-0.934558	-0.284603	0.213547	-0.082944	-0.409377	-0.908587	0.346008	-0.866840	0.358981
07420		-0.935086	-0.283550	0.212636	-0.082164	-0.410177	-0.908297	0.344766	-0.866807	0.360253
07421		-0.935650	-0.283159	0.210667	-0.080514	-0.409916	-0.908563	0.343623	-0.867058	0.360739
07422		-0.936222	-0.283399	0.207781	-0.077922	-0.409137	-0.909140	0.342660	-0.867348	0.360960
07423		-0.936753	-0.284237	0.204212	-0.074502	-0.408164	-0.909863	0.341969	-0.867532	0.361173
07424		-0.937302	-0.285361	0.200084	-0.070206	-0.407736	-0.910397	0.341373	-0.867364	0.362138
07425		-0.937787	-0.286877	0.195593	-0.065218	-0.407759	-0.910757	0.341030	-0.866853	0.363682
07426		-0.938135	-0.289118	0.190563	-0.059305	-0.408045	-0.911034	0.341155	-0.865974	0.365655
07427		-0.938338	-0.292092	0.184944	-0.052380	-0.408664	-0.911181	0.341728	-0.864683	0.368165
07428		-0.938380	-0.295732	0.178846	-0.044435	-0.409952	-0.911024	0.342737	-0.862834	0.371549
07429		-0.938320	-0.299860	0.172164	-0.035561	-0.411586	-0.910677	0.343935	-0.860628	0.375536
07430		-0.938146	-0.304443	0.164916	-0.025783	-0.413556	-0.910114	0.345279	-0.858071	0.380126
07431		-0.937804	-0.309603	0.157065	-0.015154	-0.415483	-0.909475	0.346834	-0.855289	0.384950
07432		-0.937327	-0.315322	0.148288	-0.003348	-0.417394	-0.908719	0.348434	-0.852264	0.390179
07433		-0.936698	-0.321658	0.138320	0.009909	-0.419240	-0.907822	0.349997	-0.848984	0.395888
07434		-0.935844	-0.328729	0.127018	0.024757	-0.420855	-0.906790	0.351544	-0.845469	0.401993
07435		-0.934617	-0.336670	0.114653	0.041035	-0.422295	-0.905529	0.353282	-0.841618	0.408499
07436		-0.933013	-0.345205	0.101591	0.058370	-0.423769	-0.903887	0.355078	-0.837409	0.415532
07437		-0.931042	-0.354124	0.088075	0.076263	-0.424856	-0.902043	0.356854	-0.833123	0.422566
07438		-0.928679	-0.363440	0.073939	0.094777	-0.425292	-0.900080	0.358571	-0.828878	0.429405
07439		-0.925770	-0.373422	0.059210	0.114179	-0.425417	-0.897766	0.360435	-0.824364	0.436475
07440		-0.922192	-0.384253	0.043723	0.134938	-0.425659	-0.894766	0.362427	-0.819246	0.444389
07441		-0.917934	-0.395761	0.027765	0.156769	-0.426121	-0.890979	0.364446	-0.813507	0.453194
07442		-0.913013	-0.407782	0.010990	0.179672	-0.426176	-0.886618	0.366230	-0.807520	0.462372
07443		-0.907374	-0.420271	-0.006725	0.203567	-0.425396	-0.881816	0.367741	-0.801505	0.471546
07444		-0.900816	-0.433431	-0.025843	0.229006	-0.423698	-0.876377	0.368900	-0.795373	0.480932
07445		-0.893139	-0.447377	-0.046434	0.256192	-0.421156	-0.870054	0.369686	-0.788975	0.490765
07446		-0.884302	-0.461862	-0.068514	0.285704	-0.419181	-0.861777	0.369302	-0.781646	0.502638
07447		-0.874230	-0.476926	-0.090905	0.316850	-0.418573	-0.851119	0.367870	-0.772877	0.517043
07448		-0.862753	-0.492865	-0.112882	0.348615	-0.418127	-0.838831	0.366231	-0.763056	0.532560
07449		-0.850205	-0.509113	-0.133997	0.379653	-0.416606	-0.826017	0.364712	-0.753156	0.547486
07450		-0.836873	-0.524984	-0.155034	0.410047	-0.413593	-0.812897	0.362637	-0.743863	0.561393
07451		-0.822938	-0.539936	-0.176752	0.440334	-0.409582	-0.798967	0.358997	-0.735331	0.574813
07452		-0.808103	-0.554085	-0.199900	0.471480	-0.405006	-0.783375	0.353096	-0.727296	0.588526
07453		-0.792251	-0.567445	-0.224375	0.503192	-0.399554	-0.766260	0.345160	-0.719975	0.602081
07454		-0.774605	-0.580983	-0.249891	0.535742	-0.392791	-0.747460	0.336107	-0.712863	0.615515
07455		-0.755115	-0.594761	-0.275791	0.568547	-0.384634	-0.727194	0.326428	-0.705915	0.628592
07456		-0.734398	-0.607851	-0.301954	0.601494	-0.376781	-0.704443	0.314426	-0.698966	0.642326
07457		-0.712639	-0.620618	-0.327077	0.633823	-0.369759	-0.679372	0.300691	-0.691456	0.656867
07458		-0.689133	-0.634093	-0.350745	0.665355	-0.361954	-0.652911	0.287053	-0.683312	0.671331
07459		-0.664351	-0.647467	-0.373396	0.695621	-0.352876	-0.625772	0.273403	-0.675474	0.684825
07460		-0.638916	-0.659571	-0.395920	0.724266	-0.342286	-0.598564	0.259277	-0.669184	0.696397
07461		-0.612828	-0.669817	-0.419271	0.751811	-0.330812	-0.570388	0.243356	-0.664762	0.706307
07462		-0.585402	-0.678199	-0.444242	0.779303	-0.319594	-0.539023	0.223588	-0.661744	0.715614
07463		-0.556175	-0.685394	-0.470004	0.806047	-0.307161	-0.505905	0.202377	-0.660217	0.723296
07464		-0.524958	-0.691778	-0.495845	0.831343	-0.291875	-0.472945	0.182448	-0.660494	0.728328
07465		-0.491958	-0.698059	-0.520280	0.855113	-0.275142	-0.439407	0.163581	-0.661068	0.732277
07466		-0.457887	-0.701615	-0.545963	0.876915	-0.255491	-0.407118	0.146151	-0.665177	0.732243
07467		-0.423494	-0.706840	-0.566595	0.897030	-0.239894	-0.371199	0.126455	-0.665453	0.735650
07468		-0.388908	-0.710159	-0.586876	0.915047	-0.223807	-0.335557	0.106952	-0.667521	0.736870
07469		-0.354015	-0.710975	-0.607609	0.931343	-0.208760	-0.298360	0.085283	-0.671516	0.736066
07470		-0.318088	-0.709045	-0.629345	0.946061	-0.194294	-0.259266	0.061553	-0.677868	0.732602
07471		-0.280991	-0.703896	-0.652361	0.958846	-0.177064	-0.221952	0.040722	-0.687880	0.724681
07472		-0.242125	-0.696399	-0.675577	0.969963	-0.156958	-0.185836	0.023379	-0.700280	0.713485
07473		-0.201905	-0.687957	-0.697101	0.979364	-0.135318	-0.150116	0.008943	-0.713025	0.701082
07474		-0.160870	-0.679935	-0.715408	0.986973	-0.112423	-0.115087	-0.002176	-0.724603	0.689163
07475		-0.120298	-0.672318	-0.730423	0.992701	-0.087824	-0.082656	-0.008578	-0.735035	0.677975
07476		-0.080850	-0.663545	-0.743755	0.996660	-0.062457	-0.052620	-0.011537	-0.745525	0.666378
07477		-0.043183	-0.653638	-0.755574	0.998989	-0.037734	-0.024452	-0.012528	-0.755866	0.654607
07478		-0.006704	-0.642452	-0.766297	0.999919	-0.012627	0.001839	-0.010857	-0.766222	0.642484
07479		0.028867	-0.629741	-0.776268	0.999569	0.013998	0.025815	-0.005390	-0.776679	0.629874
07480		0.064102	-0.615441	-0.785572	0.997940	0.041511	0.048911	0.002508	-0.787089	0.616834
07481		0.098884	-0.599317	-0.794381	0.995006	0.070452	0.070706	0.013591	-0.797405	0.603291
07482		0.133397	-0.581554	-0.802496	0.990687	0.100538	0.091822	0.027282	-0.807271	0.589549
07483		0.167188	-0.563286	-0.809171	0.984975	0.131453	0.112003	0.043278	-0.815739	0.576799
07484		0.200392	-0.545451	-0.813834	0.977843	0.162687	0.131739	0.060543	-0.822202	0.565967
07485		0.232128	-0.527497	-0.817229	0.969428	0.194165	0.150031	0.079537	-0.827071	0.556442
07486		0.261577	-0.508498	-0.820370	0.960025	0.224825	0.166751	0.099647	-0.831194	0.546980
07487		0.288354	-0.489059	-0.823209	0.949712	0.255674	0.180772	0.122065	-0.833938	0.538190
07488		0.313138	-0.469739	-0.825403	0.938290	0.287381	0.192415	0.146820	-0.834720	0.530741
07489		0.336030	-0.450876	-0.826919	0.925624	0.320366	0.201462	0.174082	-0.833112	0.524994
07490		0.357093	-0.432354	-0.827982	0.911724	0.354060	0.208327	0.203084	-0.829284	0.520620
07491		0.376197	-0.413764	-0.829020	0.896291	0.389273	0.212437	0.234816	-0.822961	0.517297
07492		0.393573	-0.395075	-0.830070	0.879427	0.424827	0.214777	0.267783	-0.814516	0.514641
07493		0.409234	-0.376388	-0.831179	0.861080	0.460601	0.215379	0.301776	-0.803852	0.512594
07494		0.423525	-0.357798	-0.832230	0.841397	0.495794	0.215034	0.335676	-0.791308	0.511032
07495		0.436714	-0.339426	-0.833109	0.820363	0.530300	0.213977	0.369169	-0.776899	0.510042
07496		0.449205	-0.321268	-0.833668	0.798141	0.563613	0.212864	0.401480	-0.761004	0.509595
07497		0.461123	-0.303231	-0.833916	0.774470	0.596225	0.211451	0.433083	-0.743349	0.509776
07498		0.472534	-0.284974	-0.833967	0.749567	0.627654	0.210237	0.463530	-0.724459	0.510195
07499		0.482589	-0.266222	-0.834406	0.723498	0.658095	0.208474	0.493618	-0.704298	0.510201
07500		0.491500	-0.247242	-0.835044	0.696466	0.687250	0.206452	0.522840	-0.683052	0.509979
07501		0.499226	-0.228303	-0.835853	0.668169	0.715606	0.203615	0.551656	-0.660141	0.509794
07502		0.505764	-0.209549	-0.836834	0.639065	0.742620	0.200280	0.579482	-0.636086	0.509506
07503		0.511036	-0.191132	-0.838040	0.609037	0.768514	0.196115	0.606561	-0.610619	0.509145
07504		0.515240	-0.172974	-0.839409	0.578403	0.792922	0.191637	0.632437	-0.584256	0.508594
07505		0.518622	-0.155127	-0.840813	0.546705	0.816264	0.186616	0.657377	-0.556460	0.508141
07506		0.521526	-0.137448	-0.842092	0.514239	0.838185	0.181670	0.680858	-0.527782	0.507817
07507		0.523819	-0.119899	-0.843349	0.480553	0.859052	0.176349	0.703337	-0.497649	0.507605
07508		0.525722	-0.102434	-0.844466	0.446306	0.878331	0.171307	0.724173	-0.466950	0.507475
07509		0.526991	-0.085015	-0.845608	0.411279	0.896228	0.166209	0.743727	-0.435372	0.507269
07510		0.527704	-0.067800	-0.846718	0.376442	0.912243	0.161565	0.761459	-0.403999	0.506917
07511		0.528003	-0.050414	-0.847745	0.340834	0.926894	0.157162	0.777846	-0.371922	0.506586
07512		0.528099	-0.032843	-0.848547	0.305360	0.939756	0.153669	0.792381	-0.340265	0.506313
07513		0.527505	-0.014825	-0.849423	0.269558	0.951104	0.150800	0.805653	-0.308516	0.505708
07514		0.526043	0.003191	-0.850452	0.234198	0.960786	0.148467	0.817576	-0.277274	0.504667
07515		0.523713	0.021228	-0.851630	0.198123	0.969243	0.145996	0.828536	-0.245187	0.503399
07516		0.520780	0.039470	-0.852778	0.162898	0.975982	0.144652	0.838005	-0.214248	0.501843
07517		0.517277	0.058153	-0.853840	0.127483	0.981322	0.144068	0.846270	-0.183373	0.500201
07518		0.513220	0.077014	-0.854795	0.092341	0.985230	0.144207	0.853275	-0.152943	0.498528
07519		0.508514	0.096237	-0.855659	0.057738	0.987687	0.145400	0.859116	-0.123342	0.496696
07520		0.502893	0.115649	-0.856577	0.023305	0.988834	0.147188	0.864034	-0.093983	0.494583
07521		0.496270	0.135152	-0.857584	-0.011739	0.988763	0.149033	0.868089	-0.063893	0.492280
07522		0.489239	0.154523	-0.858352	-0.045728	0.987371	0.151685	0.870950	-0.034960	0.490126
07523		0.480602	0.173885	-0.859527	-0.079845	0.984750	0.154572	0.873296	-0.005659	0.487156
07524		0.471258	0.193014	-0.860617	-0.113499	0.980920	0.157844	0.874662	0.023294	0.484173
07525		0.461447	0.212074	-0.861447	-0.147395	0.975840	0.161281	0.874838	0.052550	0.481557
07526		0.450780	0.231026	-0.862221	-0.181685	0.969454	0.164772	0.873950	0.082377	0.478984
07527		0.439779	0.249805	-0.862666	-0.215614	0.961814	0.168597	0.871840	0.111858	0.476847
07528		0.428169	0.268419	-0.862915	-0.249131	0.952929	0.172802	0.868680	0.140990	0.474886
07529		0.415271	0.286660	-0.863352	-0.282911	0.942688	0.176922	0.864588	0.170781	0.472570
07530		0.400701	0.304212	-0.864230	-0.316044	0.931266	0.181274	0.859974	0.200498	0.469304
07531		0.385579	0.321076	-0.865008	-0.347999	0.918869	0.185947	0.854533	0.229324	0.466030
07532		0.369823	0.337700	-0.865557	-0.379513	0.905249	0.191033	0.848057	0.257842	0.462944
07533		0.353440	0.353781	-0.865979	-0.409846	0.890713	0.196612	0.840896	0.285427	0.459810
07534		0.336395	0.369532	-0.866189	-0.439563	0.875062	0.202608	0.832840	0.312589	0.456800
07535		0.319143	0.384813	-0.866064	-0.468761	0.858331	0.208640	0.823657	0.339391	0.454315
07536		0.301411	0.399638	-0.865702	-0.497681	0.840375	0.214669	0.813305	0.366140	0.452191
07537		0.283491	0.413774	-0.865115	-0.525664	0.821568	0.220690	0.802066	0.392196	0.450413
07538		0.265195	0.427461	-0.864262	-0.552748	0.801841	0.226980	0.790026	0.417525	0.448923
07539		0.246677	0.440675	-0.863108	-0.578850	0.781297	0.233469	0.777228	0.442019	0.447813
07540		0.227238	0.453301	-0.861906	-0.604213	0.759735	0.240268	0.763734	0.466177	0.446531
07541		0.207414	0.465154	-0.860587	-0.628195	0.737699	0.247328	0.749901	0.489317	0.445217
07542		0.187497	0.476330	-0.859043	-0.650220	0.715699	0.254929	0.736247	0.510768	0.443911
07543		0.167445	0.486555	-0.857454	-0.670857	0.693557	0.262546	0.722436	0.531266	0.442541
07544		0.147453	0.496129	-0.855636	-0.689991	0.671413	0.270403	0.708640	0.550509	0.441327
07545		0.127685	0.504813	-0.853733	-0.707966	0.649229	0.278005	0.694609	0.568917	0.440287
07546		0.108241	0.513024	-0.851522	-0.724785	0.626986	0.285614	0.680420	0.586255	0.439698
07547		0.089463	0.520796	-0.848980	-0.740351	0.604962	0.293090	0.666241	0.602322	0.439694
07548		0.071196	0.528347	-0.846038	-0.754437	0.583376	0.300828	0.652500	0.616864	0.440139
07549		0.053419	0.535329	-0.842953	-0.767065	0.562475	0.308598	0.639342	0.630115	0.440679
07550		0.036050	0.541761	-0.839759	-0.778111	0.542508	0.316590	0.627092	0.642012	0.441108
07551		0.019011	0.547530	-0.836570	-0.787478	0.523755	0.324899	0.616050	0.652604	0.441125
07552		0.002386	0.552734	-0.833354	-0.795073	0.506489	0.333659	0.606509	0.661781	0.440672
07553		-0.013520	0.557533	-0.830045	-0.801165	0.490659	0.342621	0.598291	0.669635	0.440042
07554		-0.028501	0.562292	-0.826447	-0.805696	0.476437	0.351940	0.591643	0.675896	0.439457
07555		-0.042294	0.566862	-0.822726	-0.809017	0.463767	0.361127	0.586262	0.680873	0.438986
07556		-0.054751	0.571320	-0.818899	-0.811318	0.452607	0.370014	0.582036	0.684646	0.438741
07557		-0.065741	0.575689	-0.815022	-0.812735	0.442981	0.378456	0.578912	0.687277	0.438760
07558		-0.075261	0.579741	-0.811317	-0.813108	0.435302	0.386480	0.577227	0.688776	0.438631
07559		-0.083372	0.583367	-0.807918	-0.812282	0.429873	0.394218	0.577276	0.689124	0.438019
07560		-0.090132	0.586476	-0.804936	-0.810215	0.426828	0.401709	0.579162	0.688378	0.436700
07561		-0.095600	0.589029	-0.802437	-0.806895	0.426205	0.408987	0.582908	0.686581	0.434539
07562		-0.099554	0.591183	-0.800370	-0.802460	0.427904	0.415880	0.588342	0.683667	0.431801
07563		-0.101923	0.592999	-0.798727	-0.797171	0.431615	0.422169	0.595088	0.679751	0.428730
07564		-0.102565	0.594607	-0.797448	-0.791374	0.436930	0.427574	0.602667	0.674934	0.425743
07565		-0.101596	0.596033	-0.796507	-0.784886	0.443922	0.432304	0.611255	0.669087	0.422717
07566		-0.099028	0.597161	-0.795985	-0.777693	0.452593	0.436295	0.620796	0.662237	0.419588
07567		-0.095072	0.597920	-0.795897	-0.769407	0.463173	0.439868	0.631644	0.654188	0.416009
07568		-0.089928	0.597997	-0.796437	-0.760028	0.475592	0.442910	0.643638	0.645145	0.411726
07569		-0.083762	0.597427	-0.797537	-0.749353	0.489801	0.445607	0.656852	0.634962	0.406657
07570		-0.076469	0.596232	-0.799162	-0.737644	0.505438	0.447676	0.670846	0.623730	0.401157
07571		-0.068178	0.594516	-0.801188	-0.724828	0.522302	0.449250	0.685548	0.611353	0.395312
07572		-0.058768	0.592084	-0.803731	-0.711024	0.540305	0.450016	0.700707	0.597919	0.389233
07573		-0.048384	0.589021	-0.806668	-0.696232	0.559190	0.450075	0.716184	0.583404	0.383040
07574		-0.037023	0.585198	-0.810045	-0.680698	0.578697	0.449177	0.731628	0.568026	0.376918
07575		-0.024879	0.580729	-0.813717	-0.664225	0.598717	0.447598	0.747119	0.551627	0.370839
07576		-0.011889	0.575542	-0.817686	-0.647105	0.618988	0.445094	0.762308	0.534421	0.365077
07577		0.001802	0.569931	-0.821691	-0.629088	0.639374	0.442096	0.777332	0.516119	0.359689
07578		0.016260	0.563648	-0.825855	-0.610313	0.659840	0.438326	0.791993	0.496903	0.354731
07579		0.031389	0.556763	-0.830078	-0.590736	0.680248	0.433928	0.806254	0.476736	0.350252
07580		0.047379	0.549094	-0.834416	-0.570487	0.700585	0.428632	0.819939	0.455715	0.346445
07581		0.063790	0.540592	-0.838863	-0.549145	0.720885	0.422805	0.833289	0.433686	0.342849
07582		0.080402	0.530712	-0.843730	-0.526728	0.741251	0.416059	0.846223	0.410964	0.339138
07583		0.096854	0.519973	-0.848674	-0.502915	0.761389	0.409100	0.858892	0.387188	0.335246
07584		0.113496	0.508571	-0.853507	-0.478467	0.780859	0.401658	0.870740	0.362788	0.331959
07585		0.130028	0.496966	-0.857973	-0.453538	0.799296	0.394244	0.881700	0.337861	0.329324
07586		0.146313	0.484744	-0.862332	-0.428514	0.816740	0.386409	0.891610	0.312984	0.327219
07587		0.162149	0.471922	-0.866601	-0.402981	0.833320	0.378397	0.900730	0.287867	0.325297
07588		0.177605	0.458078	-0.870988	-0.377387	0.849097	0.369611	0.908865	0.263055	0.323677
07589		0.192515	0.443489	-0.875360	-0.351386	0.864050	0.360480	0.916224	0.238192	0.322179
07590		0.206791	0.428050	-0.879779	-0.325468	0.878099	0.350732	0.922664	0.213811	0.320900
07591		0.220618	0.412501	-0.883839	-0.299479	0.891042	0.341109	0.928246	0.189436	0.320115
07592		0.234369	0.396952	-0.887412	-0.274343	0.902741	0.331353	0.932635	0.165796	0.320476
07593		0.248182	0.381858	-0.890275	-0.250049	0.913137	0.321958	0.935885	0.142708	0.322107
07594		0.261939	0.366870	-0.892633	-0.226820	0.922422	0.312554	0.938051	0.120597	0.324832
07595		0.275404	0.351902	-0.894605	-0.203981	0.930793	0.303342	0.939438	0.098941	0.328126
07596		0.289068	0.336402	-0.896255	-0.181582	0.938495	0.293691	0.939930	0.077847	0.332373
07597		0.302245	0.320576	-0.897708	-0.159422	0.945489	0.283965	0.939805	0.057287	0.336876
07598		0.314781	0.303887	-0.899203	-0.136997	0.951989	0.273768	0.939226	0.037011	0.341300
07599		0.326237	0.286340	-0.900877	-0.113377	0.957991	0.263437	0.938464	0.016196	0.344997
07600		0.336444	0.267857	-0.902806	-0.088911	0.963447	0.252714	0.937497	-0.004755	0.347962
07601		0.345271	0.249461	-0.904742	-0.063620	0.968030	0.242632	0.936344	-0.026214	0.350104
07602		0.353084	0.231259	-0.906560	-0.037950	0.971712	0.233098	0.934822	-0.047899	0.351872
07603		0.360264	0.214023	-0.907967	-0.012479	0.974344	0.224718	0.932767	-0.069627	0.353692
07604		0.367164	0.197330	-0.908984	0.011724	0.976178	0.216652	0.930082	-0.090204	0.356105
07605		0.373848	0.181547	-0.909548	0.034685	0.977233	0.209313	0.926841	-0.109799	0.359040
07606		0.380240	0.165758	-0.909913	0.056432	0.977818	0.201711	0.923165	-0.128046	0.362452
07607		0.386425	0.150133	-0.910020	0.077365	0.977909	0.194185	0.919070	-0.145442	0.366273
07608		0.392130	0.134187	-0.910070	0.097573	0.977656	0.186194	0.914720	-0.161810	0.370275
07609		0.397891	0.118797	-0.909709	0.117123	0.976890	0.178798	0.909926	-0.177690	0.374782
07610		0.403463	0.103658	-0.909106	0.136138	0.975703	0.171670	0.904812	-0.193026	0.379548
07611		0.407871	0.089569	-0.908636	0.153940	0.974184	0.165131	0.899969	-0.207228	0.383553
07612		0.411562	0.076084	-0.908200	0.170846	0.972403	0.158883	0.895225	-0.220553	0.387206
07613		0.415133	0.063420	-0.907547	0.187585	0.970164	0.153602	0.890211	-0.234008	0.390851
07614		0.418762	0.050653	-0.906682	0.204037	0.967666	0.148297	0.884877	-0.247098	0.394886
07615		0.422253	0.038253	-0.905670	0.220090	0.964887	0.143367	0.879354	-0.259866	0.399007
07616		0.425655	0.025936	-0.904514	0.235235	0.962051	0.138286	0.873775	-0.271636	0.403400
07617		0.429166	0.014163	-0.903115	0.249312	0.959175	0.133517	0.868136	-0.282458	0.408114
07618		0.432544	0.002775	-0.901608	0.262241	0.956375	0.128753	0.862633	-0.292130	0.412947
07619		0.436125	-0.007876	-0.899852	0.273783	0.953720	0.124344	0.857227	-0.300594	0.418097
07620		0.440243	-0.018316	-0.897692	0.283986	0.951307	0.119861	0.851785	-0.307700	0.424007
07621		0.445231	-0.028085	-0.894975	0.292894	0.949091	0.115926	0.846157	-0.313747	0.430790
07622		0.450844	-0.037523	-0.891814	0.301101	0.946948	0.112375	0.840284	-0.319190	0.438224
07623		0.457106	-0.046244	-0.888209	0.308309	0.944967	0.109469	0.834266	-0.323882	0.446207
07624		0.463666	-0.054723	-0.884318	0.315476	0.942875	0.107064	0.827942	-0.328623	0.454443
07625		0.470234	-0.062837	-0.880302	0.323158	0.940447	0.105492	0.821248	-0.334083	0.462537
07626		0.477069	-0.070871	-0.876004	0.331274	0.937725	0.104546	0.814041	-0.340073	0.470837
07627		0.484401	-0.078861	-0.871285	0.340097	0.934567	0.104492	0.806033	-0.346938	0.479525
07628		0.492025	-0.087163	-0.866207	0.349022	0.931265	0.104542	0.797556	-0.353763	0.488627
07629		0.499788	-0.095731	-0.860841	0.357996	0.927839	0.104664	0.788702	-0.360487	0.497993
07630		0.507710	-0.104789	-0.855132	0.367042	0.924298	0.104656	0.779430	-0.367004	0.507737
07631		0.515769	-0.114477	-0.849045	0.376088	0.920692	0.104325	0.769766	-0.373123	0.517918
07632		0.524151	-0.124780	-0.842434	0.384963	0.917090	0.103681	0.759651	-0.378650	0.528729
07633		0.532546	-0.135371	-0.835506	0.393919	0.913345	0.103099	0.749148	-0.384026	0.539723
07634		0.540528	-0.146727	-0.828433	0.402764	0.909639	0.101682	0.738655	-0.388624	0.550782
07635		0.547826	-0.158629	-0.821416	0.411482	0.905974	0.099470	0.728402	-0.392490	0.561589
07636		0.554869	-0.171186	-0.814135	0.420198	0.902269	0.096666	0.718021	-0.395735	0.572573
07637		0.561805	-0.184241	-0.806492	0.428668	0.898629	0.093322	0.707544	-0.398146	0.583833
07638		0.568388	-0.198157	-0.798542	0.437312	0.894875	0.089209	0.696917	-0.399917	0.595292
07639		0.574401	-0.212870	-0.790411	0.445924	0.891114	0.084067	0.686451	-0.400752	0.606781
07640		0.579441	-0.228730	-0.782260	0.454982	0.887111	0.077629	0.676195	-0.400896	0.618096
07641		0.583475	-0.245680	-0.774079	0.464370	0.882886	0.069813	0.666272	-0.400193	0.629228
07642		0.586755	-0.264053	-0.765503	0.474334	0.878255	0.060629	0.656297	-0.398678	0.640570
07643		0.588995	-0.283373	-0.756825	0.484786	0.873183	0.050343	0.646581	-0.396550	0.651676
07644		0.590050	-0.303575	-0.748120	0.496002	0.867436	0.039210	0.637043	-0.394204	0.662404
07645		0.589866	-0.324405	-0.739472	0.507946	0.860950	0.027483	0.627733	-0.391824	0.672626
07646		0.588343	-0.346167	-0.730768	0.520787	0.853556	0.014955	0.618574	-0.389373	0.682462
07647		0.585559	-0.368767	-0.721894	0.534329	0.845275	0.001623	0.609601	-0.386679	0.692001
07648		0.581454	-0.392313	-0.712742	0.548486	0.836063	-0.012738	0.600895	-0.383522	0.701311
07649		0.575912	-0.416594	-0.703402	0.563394	0.825722	-0.027758	0.592379	-0.380307	0.710250
07650		0.568848	-0.441725	-0.693751	0.578795	0.814292	-0.043887	0.584302	-0.376574	0.718876
07651		0.560275	-0.467323	-0.683887	0.594658	0.801688	-0.060646	0.576606	-0.372701	0.727063
07652		0.550093	-0.493518	-0.673675	0.610982	0.787773	-0.078202	0.569296	-0.368585	0.734879
07653		0.538497	-0.520022	-0.663022	0.627551	0.772600	-0.096278	0.562317	-0.364235	0.742383
07654		0.525620	-0.546991	-0.651555	0.644359	0.756043	-0.114894	0.555449	-0.359445	0.749850
07655		0.511385	-0.574066	-0.639479	0.661317	0.738088	-0.133739	0.548767	-0.354506	0.757087
07656		0.495527	-0.601146	-0.626959	0.678252	0.718713	-0.153054	0.542611	-0.349394	0.763870
07657		0.478192	-0.628088	-0.613872	0.694749	0.698115	-0.173089	0.537268	-0.343717	0.770196
07658		0.459848	-0.654353	-0.600301	0.710904	0.676373	-0.192702	0.532123	-0.338143	0.776212
07659		0.440217	-0.679730	-0.586666	0.727014	0.653276	-0.211377	0.526934	-0.333462	0.781757
07660		0.419368	-0.703987	-0.573178	0.742245	0.629422	-0.230001	0.522689	-0.328983	0.786490
07661		0.397543	-0.726813	-0.560092	0.757528	0.604413	-0.246648	0.517794	-0.326233	0.790861
07662		0.373904	-0.748647	-0.547471	0.773535	0.577394	-0.261267	0.511703	-0.325798	0.794994
07663		0.348828	-0.769576	-0.534857	0.789819	0.548609	-0.274251	0.504485	-0.326774	0.799196
07664		0.323191	-0.790170	-0.520748	0.805397	0.518594	-0.287049	0.496874	-0.326637	0.804005
07665		0.297141	-0.810270	-0.505142	0.820453	0.487287	-0.299013	0.488431	-0.325596	0.809582
07666		0.270522	-0.829568	-0.488502	0.834485	0.455084	-0.310698	0.480055	-0.323597	0.815372
07667		0.243144	-0.847834	-0.471232	0.847880	0.421740	-0.321303	0.471149	-0.321425	0.821404
07668		0.214638	-0.864805	-0.453919	0.860496	0.387295	-0.330983	0.462037	-0.319554	0.827289
07669		0.185221	-0.880248	-0.436872	0.872181	0.352078	-0.339618	0.452761	-0.318128	0.832948
07670		0.155097	-0.893993	-0.420382	0.882727	0.316469	-0.347334	0.443552	-0.317212	0.838235
07671		0.124728	-0.906560	-0.403226	0.891383	0.280867	-0.355738	0.435751	-0.315059	0.843125
07672		0.093422	-0.917214	-0.387288	0.898563	0.245199	-0.363953	0.428785	-0.314001	0.847081
07673		0.061342	-0.925951	-0.372629	0.904717	0.209266	-0.371072	0.421573	-0.314362	0.850560
07674		0.030204	-0.933901	-0.356253	0.910532	0.172737	-0.375625	0.412334	-0.313034	0.855564
07675		-0.000213	-0.941046	-0.338279	0.915023	0.136279	-0.379686	0.403402	-0.309614	0.861049
07676		-0.031436	-0.947332	-0.318707	0.918413	0.098435	-0.383181	0.394372	-0.304750	0.866948
07677		-0.064975	-0.951390	-0.301057	0.920660	0.059221	-0.385847	0.384920	-0.302242	0.872059
07678		-0.100251	-0.953334	-0.284787	0.920608	0.019692	-0.389992	0.377401	-0.301275	0.875673
07679		-0.135971	-0.953903	-0.267546	0.919462	-0.020942	-0.392620	0.368918	-0.299384	0.879925
07680		-0.175287	-0.952098	-0.250568	0.916300	-0.064680	-0.395236	0.360096	-0.298875	0.883744
07681		-0.217097	-0.947945	-0.232958	0.910615	-0.110702	-0.398151	0.351637	-0.298573	0.887246
07682		-0.258534	-0.941851	-0.214656	0.901444	-0.155354	-0.404058	0.347215	-0.297963	0.889191
07683		-0.298709	-0.934104	-0.195504	0.890169	-0.198861	-0.409943	0.344051	-0.296485	0.890913
07684		-0.337633	-0.924439	-0.177248	0.876828	-0.240408	-0.416385	0.342311	-0.296001	0.891744
07685		-0.374565	-0.913277	-0.160080	0.861928	-0.279336	-0.423144	0.341731	-0.296473	0.891809
07686		-0.407731	-0.901673	-0.144022	0.845925	-0.313626	-0.431335	0.343754	-0.297700	0.890622
07687		-0.437492	-0.889795	-0.129867	0.828700	-0.342890	-0.442360	0.349080	-0.301150	0.887385
07688		-0.466568	-0.876721	-0.116935	0.809296	-0.369817	-0.456372	0.356866	-0.307564	0.882072
07689		-0.495231	-0.862678	-0.102631	0.786407	-0.394943	-0.474956	0.369201	-0.315923	0.874004
07690		-0.523800	-0.847398	-0.086885	0.759729	-0.418591	-0.497587	0.385285	-0.326646	0.863051
07691		-0.551908	-0.830955	-0.070080	0.731112	-0.441745	-0.519939	0.401088	-0.338195	0.851324
07692		-0.579281	-0.813275	-0.054942	0.702598	-0.464001	-0.539499	0.413268	-0.351124	0.840192
07693		-0.605076	-0.794958	-0.043874	0.676976	-0.484708	-0.553861	0.419030	-0.364830	0.831452
07694		-0.628315	-0.777075	-0.037082	0.655081	-0.502761	-0.564003	0.419630	-0.378663	0.824939
07695		-0.648734	-0.760267	-0.033748	0.636905	-0.518128	-0.570873	0.416530	-0.391839	0.820345
07696		-0.666552	-0.744796	-0.031435	0.621715	-0.532145	-0.574710	0.411313	-0.402618	0.817753
07697		-0.681986	-0.730803	-0.028675	0.608328	-0.545055	-0.576934	0.405995	-0.410904	0.816288
07698		-0.695313	-0.718218	-0.026495	0.594960	-0.554522	-0.581832	0.403190	-0.420319	0.812877
07699		-0.706513	-0.707207	-0.026407	0.581642	-0.559005	-0.590936	0.403153	-0.432864	0.806286
07700		-0.715060	-0.698465	-0.028927	0.570209	-0.558818	-0.602150	0.404416	-0.447068	0.797859
07701		-0.721369	-0.691786	-0.032542	0.561078	-0.556234	-0.613021	0.405978	-0.460473	0.789396
07702		-0.725091	-0.687715	-0.035925	0.554441	-0.552041	-0.622773	0.408458	-0.471486	0.781577
07703		-0.726359	-0.686161	-0.039826	0.552264	-0.548160	-0.628112	0.409155	-0.478230	0.777103
07704		-0.725937	-0.686310	-0.044665	0.555969	-0.547360	-0.625536	0.404864	-0.478932	0.778916
07705		-0.724190	-0.687786	-0.050001	0.565384	-0.550666	-0.614090	0.394829	-0.472988	0.787650
07706		-0.721515	-0.690164	-0.055595	0.579029	-0.557402	-0.595003	0.379660	-0.461495	0.801798
07707		-0.718679	-0.692626	-0.061394	0.594348	-0.566070	-0.571239	0.360902	-0.447027	0.818484
07708		-0.716407	-0.694337	-0.068248	0.608264	-0.573680	-0.548550	0.341726	-0.434497	0.833328
07709		-0.714269	-0.695788	-0.075494	0.620039	-0.579071	-0.529366	0.324610	-0.424919	0.845028
07710		-0.711317	-0.698138	-0.081435	0.630066	-0.581992	-0.514103	0.311520	-0.417000	0.853854
07711		-0.707099	-0.701900	-0.085718	0.638381	-0.581526	-0.504279	0.304106	-0.411296	0.859276
07712		-0.701703	-0.706831	-0.089462	0.644776	-0.576586	-0.501810	0.303112	-0.409804	0.860339
07713		-0.695099	-0.712857	-0.093123	0.649075	-0.566594	-0.507614	0.309094	-0.413286	0.856537
07714		-0.687364	-0.719795	-0.097085	0.651419	-0.551838	-0.520700	0.321222	-0.421153	0.848202
07715		-0.678813	-0.727354	-0.100841	0.651663	-0.533409	-0.539269	0.338450	-0.431777	0.836074
07716		-0.669660	-0.735326	-0.104169	0.650470	-0.513040	-0.560070	0.358391	-0.442815	0.821870
07717		-0.659729	-0.743857	-0.106931	0.649156	-0.492395	-0.579779	0.378620	-0.451912	0.807726
07718		-0.649083	-0.752737	-0.109900	0.648795	-0.472349	-0.596617	0.397185	-0.458556	0.794966
07719		-0.637837	-0.761704	-0.113890	0.650500	-0.453635	-0.609151	0.412328	-0.462624	0.784834
07720		-0.625849	-0.770715	-0.119631	0.655169	-0.436285	-0.616773	0.423163	-0.464385	0.777997
07721		-0.613222	-0.779654	-0.126879	0.661535	-0.419117	-0.621863	0.431661	-0.465274	0.772780
07722		-0.600092	-0.788500	-0.134752	0.668500	-0.401815	-0.625821	0.439314	-0.465632	0.768238
07723		-0.586717	-0.797252	-0.141959	0.675671	-0.385335	-0.628479	0.446355	-0.464656	0.764763
07724		-0.573329	-0.805740	-0.148583	0.683350	-0.370201	-0.629273	0.452025	-0.462314	0.762849
07725		-0.559686	-0.814092	-0.154937	0.691704	-0.355956	-0.628363	0.456395	-0.458857	0.762335
07726		-0.545281	-0.822508	-0.161706	0.701294	-0.341947	-0.625507	0.459189	-0.454481	0.763277
07727		-0.529825	-0.831046	-0.169256	0.712173	-0.327585	-0.620885	0.460538	-0.449500	0.765411
07728		-0.513326	-0.839433	-0.178462	0.723836	-0.311779	-0.615513	0.461041	-0.445136	0.767656
07729		-0.496060	-0.847444	-0.189112	0.735020	-0.293894	-0.611041	0.462244	-0.442115	0.768678
07730		-0.478181	-0.854964	-0.200947	0.745369	-0.274048	-0.607720	0.464509	-0.440380	0.768308
07731		-0.459690	-0.862019	-0.213562	0.754970	-0.252688	-0.605119	0.467660	-0.439400	0.766956
07732		-0.440475	-0.868575	-0.227067	0.764081	-0.229906	-0.602763	0.471341	-0.439000	0.764929
07733		-0.420610	-0.874608	-0.241141	0.772472	-0.205854	-0.600759	0.475789	-0.438959	0.762194
07734		-0.400067	-0.880155	-0.255485	0.780099	-0.180717	-0.598989	0.481032	-0.438940	0.758907
07735		-0.378927	-0.885305	-0.269537	0.786780	-0.154845	-0.597495	0.487229	-0.438473	0.755215
07736		-0.357159	-0.889827	-0.283982	0.792856	-0.128093	-0.595794	0.493778	-0.437950	0.751255
07737		-0.335131	-0.893439	-0.299088	0.798329	-0.100692	-0.593744	0.500359	-0.437753	0.747003
07738		-0.312648	-0.895917	-0.315570	0.803196	-0.072000	-0.591348	0.507078	-0.438348	0.742108
07739		-0.289427	-0.897240	-0.333455	0.806885	-0.041283	-0.589264	0.514946	-0.439609	0.735918
07740		-0.265250	-0.897367	-0.352668	0.809700	-0.008731	-0.586779	0.523477	-0.441198	0.728914
07741		-0.240631	-0.896476	-0.372058	0.811316	0.024638	-0.584088	0.532788	-0.442406	0.721397
07742		-0.216287	-0.894864	-0.390433	0.811587	0.057507	-0.581395	0.542722	-0.442619	0.713822
07743		-0.192771	-0.892882	-0.406942	0.810279	0.089057	-0.579238	0.553432	-0.441397	0.706316
07744		-0.170313	-0.890227	-0.422479	0.807725	0.119457	-0.577331	0.564424	-0.439574	0.698713
07745		-0.148556	-0.886602	-0.438026	0.804227	0.149438	-0.575228	0.575456	-0.437726	0.690830
07746		-0.126557	-0.881459	-0.454987	0.800322	0.180258	-0.571832	0.586062	-0.436505	0.682638
07747		-0.104336	-0.874500	-0.473670	0.796083	0.212039	-0.566826	0.596125	-0.436221	0.674052
07748		-0.081440	-0.865548	-0.494160	0.791125	0.245425	-0.560257	0.606208	-0.436570	0.664769
07749		-0.057970	-0.855295	-0.514888	0.784969	0.279612	-0.552848	0.616817	-0.436219	0.655171
07750		-0.034319	-0.844319	-0.534741	0.778110	0.313206	-0.544469	0.627190	-0.434773	0.646224
07751		-0.011149	-0.832894	-0.553321	0.770924	0.345255	-0.535233	0.636829	-0.432536	0.638249
07752		0.012262	-0.820672	-0.571268	0.764379	0.376016	-0.523772	0.644651	-0.430243	0.631915
07753		0.032648	-0.804922	-0.592482	0.758859	0.405746	-0.509414	0.650436	-0.432979	0.624069
07754		0.050463	-0.787831	-0.613821	0.754079	0.433038	-0.493805	0.654843	-0.437950	0.615939
07755		0.067665	-0.769172	-0.635449	0.748890	0.459990	-0.477046	0.659231	-0.443602	0.607150
07756		0.084755	-0.748752	-0.657409	0.744114	0.486351	-0.457993	0.662655	-0.450370	0.598377
07757		0.102057	-0.727046	-0.678962	0.738436	0.512698	-0.438011	0.666556	-0.456668	0.589201
07758		0.119947	-0.706044	-0.697936	0.730728	0.538680	-0.419356	0.672048	-0.459701	0.580539
07759		0.138878	-0.686427	-0.713814	0.721273	0.564021	-0.402052	0.678585	-0.459019	0.573431
07760		0.158240	-0.667460	-0.727638	0.709928	0.589086	-0.385979	0.686267	-0.455493	0.567066
07761		0.178415	-0.649265	-0.739340	0.696529	0.614068	-0.371170	0.694993	-0.448749	0.561791
07762		0.199525	-0.631683	-0.749110	0.684108	0.637133	-0.355046	0.701559	-0.441632	0.559263
07763		0.218027	-0.610418	-0.761481	0.667759	0.662325	-0.339740	0.711732	-0.434413	0.552017
07764		0.236003	-0.587413	-0.774111	0.654049	0.685184	-0.320534	0.718695	-0.430660	0.545902
07765		0.252908	-0.562557	-0.787126	0.644345	0.704829	-0.296708	0.721704	-0.432141	0.540738
07766		0.268165	-0.535212	-0.801022	0.635801	0.723003	-0.270230	0.723771	-0.436825	0.534172
07767		0.283336	-0.507570	-0.813691	0.627663	0.739646	-0.242823	0.725093	-0.441924	0.528151
07768		0.299256	-0.478633	-0.825443	0.618410	0.756094	-0.214223	0.726647	-0.446355	0.522257
07769		0.315318	-0.447724	-0.836731	0.607557	0.772566	-0.184435	0.729005	-0.450206	0.515622
07770		0.330818	-0.415167	-0.847464	0.596238	0.788034	-0.153304	0.731478	-0.454575	0.508235
07771		0.344503	-0.381702	-0.857684	0.583343	0.802859	-0.122994	0.735546	-0.457952	0.499251
07772		0.356154	-0.347664	-0.867343	0.568726	0.817137	-0.094005	0.741421	-0.459800	0.488752
07773		0.366724	-0.314016	-0.875732	0.552895	0.830609	-0.066304	0.748212	-0.459873	0.478222
07774		0.377523	-0.281278	-0.882247	0.535663	0.843498	-0.039707	0.755342	-0.457597	0.469110
07775		0.389365	-0.250611	-0.886334	0.516599	0.856094	-0.015119	0.762574	-0.451993	0.462799
07776		0.401690	-0.221458	-0.888595	0.495868	0.868363	0.007742	0.769909	-0.443736	0.458627
07777		0.413209	-0.193187	-0.889909	0.473187	0.880499	0.028570	0.778044	-0.432899	0.455243
07778		0.423406	-0.165667	-0.890664	0.449990	0.891740	0.048050	0.786280	-0.421134	0.452117
07779		0.432132	-0.139525	-0.890952	0.426717	0.901995	0.065713	0.794465	-0.408581	0.449318
07780		0.439550	-0.114598	-0.890878	0.403898	0.911114	0.082078	0.802286	-0.395901	0.446766
07781		0.446233	-0.091324	-0.890245	0.381771	0.919145	0.097074	0.809399	-0.383188	0.445018
07782		0.453035	-0.069431	-0.888785	0.361063	0.925825	0.111719	0.815103	-0.371520	0.444500
07783		0.459177	-0.049184	-0.886982	0.341995	0.931296	0.125404	0.819876	-0.360926	0.444450
07784		0.463423	-0.030506	-0.885612	0.325464	0.935417	0.138087	0.824204	-0.352228	0.443423
07785		0.465585	-0.013718	-0.884897	0.311736	0.938338	0.149473	0.828282	-0.345447	0.441152
07786		0.466033	0.000394	-0.884767	0.301468	0.940090	0.159210	0.831824	-0.340926	0.437994
07787		0.464829	0.011403	-0.885327	0.294661	0.940927	0.166827	0.834931	-0.338418	0.434009
07788		0.462080	0.019402	-0.886626	0.291931	0.940713	0.172730	0.837412	-0.338648	0.429020
07789		0.458071	0.024641	-0.888574	0.292692	0.939692	0.176945	0.839346	-0.341132	0.423234
07790		0.453320	0.027482	-0.890924	0.296069	0.938133	0.179584	0.840740	-0.345184	0.417138
07791		0.448257	0.028162	-0.893461	0.301225	0.936287	0.180639	0.841623	-0.350106	0.411214
07792		0.443180	0.026766	-0.896033	0.308149	0.934094	0.180314	0.841805	-0.356024	0.405724
07793		0.438159	0.023416	-0.898593	0.317119	0.931360	0.178899	0.841102	-0.363347	0.400657
07794		0.432648	0.018168	-0.901380	0.328068	0.928081	0.176173	0.839754	-0.371935	0.395572
07795		0.425985	0.012031	-0.904650	0.340427	0.924295	0.172594	0.838240	-0.381490	0.389640
07796		0.417869	0.005648	-0.908490	0.354699	0.919605	0.168864	0.836405	-0.392803	0.382272
07797		0.408314	-0.000726	-0.912841	0.370992	0.913821	0.165218	0.834053	-0.406117	0.373395
07798		0.397750	-0.006965	-0.917467	0.388492	0.907183	0.161536	0.831185	-0.420679	0.363538
07799		0.386525	-0.012822	-0.922190	0.406596	0.899858	0.157908	0.827815	-0.435995	0.353031
07800		0.374696	-0.018273	-0.926967	0.424649	0.892153	0.154064	0.824182	-0.451363	0.342046
07801		0.362394	-0.023024	-0.931740	0.441860	0.884454	0.150003	0.820628	-0.466059	0.330694
07802		0.349439	-0.027144	-0.936566	0.457803	0.877085	0.145390	0.817501	-0.479567	0.318915
07803		0.335585	-0.030934	-0.941502	0.472377	0.870242	0.139779	0.815011	-0.491652	0.306653
07804		0.321014	-0.034879	-0.946432	0.484878	0.864470	0.132604	0.813537	-0.501472	0.294420
07805		0.306204	-0.038750	-0.951177	0.494982	0.859965	0.124311	0.813161	-0.508880	0.282505
07806		0.290707	-0.042003	-0.955890	0.503354	0.856332	0.115453	0.813710	-0.514714	0.270084
07807		0.274327	-0.043813	-0.960638	0.510005	0.853527	0.106713	0.815255	-0.519204	0.256490
07808		0.257549	-0.044123	-0.965257	0.514915	0.851567	0.098463	0.817637	-0.522385	0.242040
07809		0.241170	-0.043049	-0.969528	0.517593	0.850777	0.090976	0.820935	-0.523761	0.227464
07810		0.225448	-0.040787	-0.973401	0.518339	0.851001	0.084394	0.824923	-0.523578	0.212997
07811		0.209985	-0.037677	-0.976978	0.517178	0.852290	0.078290	0.829719	-0.521711	0.198454
07812		0.194787	-0.033927	-0.980259	0.513986	0.854725	0.072552	0.835390	-0.517972	0.183927
07813		0.180255	-0.029704	-0.983171	0.508737	0.858284	0.067341	0.841840	-0.512314	0.169821
07814		0.166381	-0.025163	-0.985740	0.501718	0.862759	0.062660	0.848880	-0.504989	0.156171
07815		0.152684	-0.020402	-0.988064	0.492752	0.868220	0.058217	0.856670	-0.495759	0.142617
07816		0.139020	-0.015241	-0.990172	0.482225	0.874366	0.054245	0.864947	-0.485027	0.128904
07817		0.125634	-0.009940	-0.992027	0.470580	0.880896	0.050770	0.873367	-0.473206	0.115348
07818		0.112945	-0.004413	-0.993591	0.458578	0.887347	0.048187	0.881448	-0.461082	0.102245
07819		0.100917	0.001485	-0.994894	0.445728	0.893957	0.046547	0.889462	-0.448150	0.089554
07820		0.089545	0.007986	-0.995951	0.432092	0.900652	0.046071	0.897373	-0.434468	0.077198
07821		0.079158	0.014990	-0.996749	0.416919	0.907740	0.046762	0.905490	-0.419265	0.065605
07822		0.070121	0.022641	-0.997282	0.399601	0.915385	0.048878	0.914003	-0.401942	0.055140
07823		0.062122	0.030650	-0.997598	0.379404	0.923768	0.052008	0.923143	-0.381723	0.045758
07824		0.055456	0.039004	-0.997699	0.357092	0.932371	0.056299	0.932421	-0.359393	0.037778
07825		0.049922	0.047562	-0.997620	0.332257	0.941182	0.061498	0.941867	-0.334536	0.031183
07826		0.046072	0.056631	-0.997332	0.305496	0.949759	0.068042	0.951078	-0.307816	0.026457
07827		0.044152	0.066353	-0.996819	0.275944	0.958164	0.076002	0.960159	-0.278422	0.023995
07828		0.043944	0.077328	-0.996037	0.244382	0.965878	0.085768	0.968683	-0.247183	0.023547
07829		0.044699	0.089467	-0.994986	0.210308	0.972819	0.096922	0.976613	-0.213586	0.024669
07830		0.045763	0.102964	-0.993632	0.175153	0.978438	0.109457	0.983477	-0.179047	0.026742
07831		0.046511	0.117417	-0.991993	0.138423	0.982729	0.122810	0.989280	-0.143026	0.029454
07832		0.047364	0.132824	-0.990007	0.101188	0.985383	0.137045	0.993739	-0.106668	0.033232
07833		0.048228	0.148872	-0.987680	0.062988	0.986409	0.151756	0.996848	-0.069531	0.038196
07834		0.049549	0.165739	-0.984924	0.024348	0.985642	0.167085	0.998475	-0.032260	0.044802
07835		0.051435	0.182952	-0.981775	-0.015365	0.983105	0.182395	0.998558	0.005703	0.053377
07836		0.054098	0.200930	-0.978111	-0.056111	0.978609	0.197929	0.996958	0.044175	0.064216
07837		0.056906	0.219413	-0.973971	-0.097645	0.972098	0.213286	0.993593	0.082967	0.076743
07838		0.059386	0.238739	-0.969266	-0.138761	0.963527	0.228824	0.988544	0.120907	0.090348
07839		0.061309	0.258498	-0.964064	-0.179876	0.952929	0.244073	0.981777	0.158448	0.104921
07840		0.062935	0.279190	-0.958171	-0.220894	0.940160	0.259433	0.973265	0.195326	0.120841
07841		0.064242	0.300360	-0.951660	-0.261802	0.925301	0.274368	0.962981	0.231521	0.138078
07842		0.065253	0.322377	-0.944360	-0.302100	0.908347	0.289209	0.951040	0.266420	0.156663
07843		0.065927	0.344875	-0.936331	-0.341943	0.889361	0.303499	0.937405	0.300163	0.176560
07844		0.066258	0.368308	-0.927340	-0.380731	0.868397	0.317696	0.922309	0.332017	0.197764
07845		0.065760	0.392160	-0.917543	-0.418762	0.845485	0.331350	0.905712	0.362443	0.219821
07846		0.064018	0.416352	-0.906947	-0.455158	0.820962	0.344751	0.888107	0.390734	0.242062
07847		0.061407	0.440420	-0.895689	-0.490143	0.795035	0.357324	0.869477	0.417073	0.264689
07848		0.058089	0.464470	-0.883682	-0.523609	0.767827	0.369156	0.849976	0.441259	0.287803
07849		0.054392	0.488066	-0.871110	-0.555660	0.739637	0.379709	0.829629	0.463388	0.311429
07850		0.050063	0.511332	-0.857924	-0.585509	0.710933	0.389556	0.809119	0.482820	0.334981
07851		0.044976	0.533707	-0.844472	-0.613226	0.682073	0.398410	0.788626	0.499933	0.357960
07852		0.038942	0.555039	-0.830912	-0.638375	0.653545	0.406641	0.768740	0.514598	0.379773
07853		0.031844	0.575230	-0.817372	-0.661288	0.625331	0.414318	0.749456	0.527324	0.400306
07854		0.023025	0.594194	-0.803992	-0.681581	0.597665	0.422188	0.731380	0.538265	0.418753
07855		0.013706	0.611693	-0.790977	-0.699573	0.571070	0.429508	0.714430	0.547459	0.435751
07856		0.004211	0.627704	-0.778441	-0.714409	0.546585	0.436880	0.699716	0.554285	0.450739
07857		-0.005187	0.641980	-0.766704	-0.727383	0.523713	0.443439	0.686212	0.559988	0.464248
07858		-0.016093	0.652987	-0.757198	-0.739014	0.502335	0.448907	0.673497	0.566804	0.474483
07859		-0.024736	0.662509	-0.748645	-0.747848	0.484699	0.453641	0.663409	0.571094	0.483467
07860		-0.030629	0.670825	-0.740983	-0.753654	0.471455	0.457969	0.656557	0.572472	0.491130
07861		-0.034217	0.677220	-0.734985	-0.757188	0.462426	0.461333	0.652300	0.572307	0.496960
07862		-0.035454	0.681507	-0.730953	-0.758330	0.458034	0.463832	0.650906	0.570748	0.500568
07863		-0.034654	0.683292	-0.729322	-0.757830	0.457782	0.464898	0.651531	0.568813	0.501955
07864		-0.031381	0.682911	-0.729828	-0.755233	0.462092	0.464859	0.654705	0.565777	0.501256
07865		-0.025507	0.680532	-0.732274	-0.750762	0.470634	0.463530	0.660080	0.561587	0.498913
07866		-0.017290	0.675970	-0.736727	-0.744833	0.482855	0.460515	0.667026	0.556701	0.495136
07867		-0.006911	0.669364	-0.742903	-0.737145	0.498593	0.456095	0.675699	0.550779	0.489973
07868		0.005518	0.660495	-0.750810	-0.727493	0.517792	0.450161	0.686092	0.543725	0.483363
07869		0.019636	0.649295	-0.760283	-0.715478	0.540281	0.442931	0.698359	0.535268	0.475166
07870		0.035376	0.635904	-0.770957	-0.700815	0.565754	0.434489	0.712465	0.524928	0.465665
07871		0.052559	0.620361	-0.782553	-0.683210	0.593872	0.424899	0.728328	0.512316	0.455050
07872		0.070530	0.601829	-0.795504	-0.663076	0.624077	0.413349	0.745222	0.498326	0.443075
07873		0.088921	0.580454	-0.809423	-0.639762	0.656132	0.400244	0.763412	0.482248	0.429696
07874		0.107796	0.556302	-0.823959	-0.613424	0.689431	0.385222	0.782362	0.463911	0.415567
07875		0.126958	0.529678	-0.838644	-0.583616	0.723537	0.368627	0.802043	0.442646	0.400987
07876		0.146137	0.500301	-0.853430	-0.550448	0.757933	0.350063	0.821980	0.418612	0.386152
07877		0.165080	0.468380	-0.867968	-0.513628	0.792114	0.329760	0.841983	0.391376	0.371336
07878		0.183411	0.433646	-0.882219	-0.473704	0.825362	0.307217	0.861374	0.361564	0.356801
07879		0.200796	0.396299	-0.895895	-0.430403	0.857217	0.282724	0.880019	0.328826	0.342694
07880		0.216998	0.355616	-0.909093	-0.383973	0.887308	0.255441	0.897483	0.293637	0.329091
07881		0.231591	0.312332	-0.921311	-0.333722	0.915096	0.226337	0.913781	0.255044	0.316161
07882		0.244722	0.267067	-0.932087	-0.280687	0.939669	0.195544	0.928076	0.213771	0.304920
07883		0.256778	0.221003	-0.940863	-0.225622	0.960313	0.163995	0.939766	0.170169	0.296450
07884		0.267785	0.172773	-0.947861	-0.168715	0.976999	0.130419	0.948592	0.124994	0.290775
07885		0.276490	0.124148	-0.952964	-0.110951	0.989113	0.096666	0.954591	0.079005	0.287254
07886		0.281426	0.073027	-0.956800	-0.050785	0.996836	0.061145	0.958238	0.031383	0.284244
07887		0.281889	0.022452	-0.959184	0.010604	0.999592	0.026514	0.959388	-0.017646	0.281536
07888		0.279813	-0.029381	-0.959605	0.070849	0.997438	-0.009881	0.957437	-0.065222	0.281178
07889		0.275266	-0.080317	-0.958007	0.129169	0.990558	-0.045931	0.952651	-0.111101	0.283042
07890		0.267784	-0.132613	-0.954309	0.187119	0.978781	-0.083508	0.945134	-0.156207	0.286917
07891		0.257940	-0.184043	-0.948470	0.242099	0.962682	-0.120961	0.935337	-0.198423	0.292871
07892		0.246050	-0.236905	-0.939859	0.294953	0.941983	-0.160223	0.923289	-0.237792	0.301651
07893		0.232289	-0.289118	-0.928683	0.344374	0.917398	-0.199467	0.909642	-0.273480	0.312667
07894		0.215918	-0.342555	-0.914350	0.391648	0.888190	-0.240269	0.894422	-0.306225	0.325938
07895		0.197152	-0.394969	-0.897291	0.435254	0.855371	-0.280883	0.878456	-0.335172	0.340550
07896		0.174852	-0.447435	-0.877057	0.476382	0.818019	-0.322343	0.861677	-0.361452	0.356182
07897		0.149928	-0.497286	-0.854534	0.514009	0.777523	-0.362288	0.844581	-0.384921	0.372182
07898		0.122190	-0.544940	-0.829524	0.546751	0.734493	-0.401974	0.828332	-0.404426	0.387694
07899		0.092592	-0.587510	-0.803902	0.571678	0.692406	-0.440181	0.815237	-0.418816	0.399978
07900		0.061673	-0.626549	-0.776938	0.593791	0.648713	-0.476008	0.802252	-0.431982	0.412048
07901		0.030867	-0.662488	-0.748437	0.616845	0.601817	-0.507265	0.786479	-0.446012	0.427229
07902		0.001075	-0.697750	-0.716340	0.638615	0.551722	-0.536445	0.769525	-0.456889	0.446187
07903		-0.028368	-0.731567	-0.681179	0.660003	0.498083	-0.562414	0.750727	-0.465534	0.468707
07904		-0.058883	-0.764244	-0.642234	0.681470	0.439349	-0.585296	0.729474	-0.472127	0.494938
07905		-0.089085	-0.794573	-0.600597	0.700260	0.378847	-0.605071	0.708308	-0.474477	0.522658
07906		-0.121483	-0.821486	-0.557137	0.719071	0.314088	-0.619908	0.684236	-0.475930	0.552550
07907		-0.154742	-0.844187	-0.513228	0.737442	0.247001	-0.628626	0.657445	-0.475751	0.584317
07908		-0.188058	-0.863676	-0.467651	0.752337	0.179409	-0.633878	0.631366	-0.471037	0.616036
07909		-0.219189	-0.879824	-0.421742	0.767202	0.111633	-0.631616	0.602791	-0.462005	0.650534
07910		-0.248500	-0.892541	-0.376323	0.779968	0.045993	-0.624126	0.574366	-0.448615	0.684724
07911		-0.279315	-0.900663	-0.332851	0.789417	-0.018055	-0.613591	0.546629	-0.434144	0.716042
07912		-0.310278	-0.905735	-0.288741	0.795534	-0.081106	-0.600456	0.520435	-0.416012	0.745709
07913		-0.339807	-0.908345	-0.243806	0.797307	-0.140730	-0.586939	0.498832	-0.393834	0.772050
07914		-0.367172	-0.908723	-0.198513	0.792590	-0.193965	-0.578082	0.486812	-0.369595	0.791463
07915		-0.385731	-0.909461	-0.155218	0.782927	-0.233662	-0.576565	0.488095	-0.343923	0.802172
07916		-0.400919	-0.908643	-0.116755	0.774453	-0.268082	-0.573022	0.489373	-0.320157	0.811181
07917		-0.416655	-0.905065	-0.085183	0.767854	-0.300226	-0.565919	0.486620	-0.301201	0.820048
07918		-0.429963	-0.901046	-0.056991	0.761099	-0.327780	-0.559722	0.485655	-0.284036	0.826718
07919		-0.441049	-0.896916	-0.031911	0.753272	-0.350616	-0.556463	0.487912	-0.269464	0.830260
07920		-0.449993	-0.892960	-0.011348	0.747711	-0.369789	-0.551529	0.488296	-0.256669	0.834079
07921		-0.457054	-0.889431	0.003743	0.743751	-0.384494	-0.546807	0.487787	-0.247136	0.837250
07922		-0.462704	-0.886392	0.014633	0.741041	-0.395784	-0.542415	0.486584	-0.240133	0.839983
07923		-0.466976	-0.883994	0.022081	0.739573	-0.404129	-0.538248	0.484731	-0.235018	0.842497
07924		-0.470236	-0.882178	0.025305	0.737999	-0.408783	-0.536893	0.483979	-0.233791	0.843271
07925		-0.471853	-0.881319	0.025130	0.736670	-0.409749	-0.537980	0.484429	-0.235335	0.842583
07926		-0.471565	-0.881547	0.022365	0.736101	-0.407474	-0.540481	0.485573	-0.238409	0.841059
07927		-0.469507	-0.882758	0.017344	0.736925	-0.402612	-0.542997	0.486318	-0.242159	0.839556
07928		-0.465923	-0.884769	0.009970	0.739607	-0.395615	-0.544491	0.485693	-0.246317	0.838708
07929		-0.460447	-0.887687	0.000574	0.744642	-0.386601	-0.544102	0.483214	-0.250103	0.839019
07930		-0.452642	-0.891640	-0.009685	0.751949	-0.375845	-0.541584	0.479258	-0.252427	0.840591
07931		-0.442368	-0.896609	-0.020059	0.760190	-0.363008	-0.538829	0.475837	-0.253609	0.842177
07932		-0.429301	-0.902662	-0.030030	0.768737	-0.347750	-0.536762	0.474072	-0.253517	0.843199
07933		-0.412856	-0.909953	-0.039186	0.777083	-0.329478	-0.536271	0.475071	-0.251854	0.843135
07934		-0.393445	-0.918078	-0.048316	0.785032	-0.308147	-0.537373	0.478462	-0.249356	0.841959
07935		-0.371455	-0.926667	-0.057528	0.792345	-0.284095	-0.539889	0.483954	-0.246126	0.839768
07936		-0.347560	-0.935275	-0.066799	0.798745	-0.258002	-0.543544	0.491129	-0.242270	0.836718
07937		-0.322496	-0.943489	-0.076325	0.803896	-0.230423	-0.548322	0.499748	-0.238189	0.832777
07938		-0.297507	-0.950870	-0.085654	0.808379	-0.203156	-0.552496	0.507950	-0.233612	0.829103
07939		-0.272710	-0.957548	-0.093440	0.811746	-0.176873	-0.556583	0.516428	-0.227635	0.825521
07940		-0.247183	-0.963898	-0.099003	0.814518	-0.151353	-0.560047	0.524843	-0.219074	0.822524
07941		-0.220890	-0.969902	-0.102459	0.817308	-0.126759	-0.562086	0.532180	-0.207900	0.820708
07942		-0.195004	-0.975152	-0.105129	0.820193	-0.103356	-0.562674	0.537827	-0.195950	0.819967
07943		-0.169769	-0.979563	-0.107866	0.823168	-0.080776	-0.562023	0.541824	-0.184206	0.820058
07944		-0.145359	-0.983118	-0.111133	0.826689	-0.058977	-0.559560	0.543559	-0.173209	0.821305
07945		-0.121977	-0.985769	-0.115676	0.829839	-0.037350	-0.556752	0.544508	-0.163904	0.822585
07946		-0.100032	-0.987450	-0.122215	0.832522	-0.015799	-0.553766	0.544886	-0.157142	0.823654
07947		-0.078854	-0.988595	-0.128304	0.834686	0.004895	-0.550704	0.545051	-0.150519	0.824781
07948		-0.057594	-0.989665	-0.131328	0.834844	0.024393	-0.549946	0.547466	-0.141312	0.824810
07949		-0.035778	-0.990850	-0.130137	0.832531	0.042483	-0.552347	0.552821	-0.128105	0.823394
07950		-0.013418	-0.992011	-0.125433	0.828142	0.059275	-0.557375	0.560357	-0.111355	0.820731
07951		0.008959	-0.992976	-0.117974	0.821011	0.074655	-0.566010	0.570842	-0.091787	0.815913
07952		0.030754	-0.993480	-0.109780	0.810690	0.089039	-0.578666	0.584668	-0.071201	0.808142
07953		0.051406	-0.993542	-0.101149	0.797587	0.101796	-0.594552	0.601010	-0.050112	0.797669
07954		0.071152	-0.993240	-0.091710	0.784355	0.112514	-0.610023	0.616218	-0.028529	0.787059
07955		0.089948	-0.992713	-0.080190	0.772450	0.120361	-0.623565	0.628673	-0.005854	0.777648
07956		0.107591	-0.991955	-0.066710	0.762216	0.125382	-0.635064	0.638319	0.017480	0.769573
07957		0.124094	-0.990951	-0.051154	0.753069	0.127623	-0.645445	0.646133	0.041573	0.762092
07958		0.139414	-0.989626	-0.034686	0.744327	0.127831	-0.655467	0.653101	0.065564	0.754427
07959		0.153363	-0.988010	-0.017787	0.737095	0.126367	-0.663870	0.658157	0.088702	0.747637
07960		0.165841	-0.986151	-0.001455	0.731066	0.123933	-0.670957	0.661845	0.110208	0.741495
07961		0.176895	-0.984114	0.015087	0.726077	0.120133	-0.677038	0.664470	0.130719	0.735794
07962		0.186740	-0.981890	0.031945	0.722930	0.115326	-0.681229	0.665207	0.150307	0.731373
07963		0.195709	-0.979401	0.049716	0.720073	0.109103	-0.685267	0.665727	0.169912	0.726593
07964		0.203683	-0.976728	0.067197	0.717348	0.102178	-0.689182	0.666278	0.188578	0.721466
07965		0.210374	-0.973933	0.084840	0.714796	0.094033	-0.692983	0.666941	0.206429	0.715945
07966		0.215939	-0.970924	0.103326	0.714173	0.084896	-0.694802	0.665828	0.223828	0.711740
07967		0.220753	-0.967505	0.123295	0.716063	0.074941	-0.694001	0.662210	0.241490	0.709338
07968		0.224629	-0.963736	0.144068	0.718590	0.063971	-0.692485	0.658157	0.259078	0.706901
07969		0.226973	-0.959685	0.165798	0.720839	0.051068	-0.691218	0.654884	0.276401	0.703369
07970		0.227814	-0.955485	0.187482	0.723273	0.037145	-0.689562	0.651902	0.292693	0.699539
07971		0.227884	-0.950878	0.209526	0.725849	0.022466	-0.687488	0.649009	0.308751	0.695313
07972		0.227709	-0.945722	0.231858	0.727796	0.007113	-0.685757	0.646886	0.324898	0.689913
07973		0.227752	-0.939824	0.254677	0.727327	-0.009698	-0.686222	0.647398	0.341522	0.681351
07974		0.228230	-0.933304	0.277226	0.723450	-0.027987	-0.689810	0.651561	0.357994	0.668811
07975		0.228853	-0.926363	0.299127	0.717282	-0.047275	-0.695177	0.658128	0.373652	0.653645
07976		0.228936	-0.919698	0.318974	0.710002	-0.066408	-0.701062	0.665948	0.386970	0.637784
07977		0.228800	-0.913139	0.337382	0.703843	-0.084249	-0.705342	0.672500	0.398847	0.623430
07978		0.228159	-0.906786	0.354517	0.700024	-0.100290	-0.707042	0.676691	0.409489	0.611890
07979		0.226560	-0.900857	0.370308	0.696514	-0.115912	-0.708119	0.680837	0.418356	0.601198
07980		0.224483	-0.894681	0.386204	0.695080	-0.130761	-0.706941	0.682987	0.427139	0.592521
07981		0.223133	-0.887305	0.403612	0.697168	-0.144126	-0.702271	0.681300	0.438085	0.586441
07982		0.222662	-0.878693	0.422280	0.700198	-0.157251	-0.696416	0.678340	0.450745	0.580245
07983		0.222925	-0.869122	0.441511	0.701141	-0.171714	-0.692038	0.677278	0.463834	0.571097
07984		0.223146	-0.859553	0.459755	0.700271	-0.186745	-0.689018	0.678105	0.475705	0.560249
07985		0.222713	-0.851308	0.475051	0.698018	-0.200927	-0.687313	0.680566	0.484667	0.549479
07986		0.221342	-0.844555	0.487581	0.695079	-0.214064	-0.686325	0.684012	0.490819	0.539651
07987		0.219973	-0.837990	0.499384	0.693582	-0.225630	-0.684131	0.685971	0.496854	0.531582
07988		0.218770	-0.830836	0.511715	0.693875	-0.236254	-0.680237	0.686060	0.503881	0.524810
07989		0.217632	-0.823070	0.524588	0.694549	-0.247018	-0.675710	0.685739	0.511408	0.517903
07990		0.216509	-0.815265	0.537092	0.692754	-0.259347	-0.672927	0.687907	0.517767	0.508627
07991		0.215271	-0.807854	0.548662	0.689098	-0.272435	-0.671508	0.691955	0.522638	0.498043
07992		0.213857	-0.801087	0.559040	0.685554	-0.284606	-0.670086	0.695903	0.526554	0.488323
07993		0.211896	-0.794579	0.568985	0.682527	-0.296380	-0.668069	0.699470	0.529909	0.479520
07994		0.209801	-0.788029	0.578787	0.679031	-0.308486	-0.666148	0.703491	0.532773	0.470375
07995		0.207906	-0.781167	0.588687	0.674477	-0.321387	-0.664673	0.708418	0.535246	0.460061
07996		0.206254	-0.774263	0.598311	0.668549	-0.334976	-0.663953	0.714494	0.536943	0.448542
07997		0.204588	-0.767545	0.607469	0.662768	-0.348076	-0.663010	0.720335	0.538255	0.437492
07998		0.202467	-0.761250	0.616040	0.658187	-0.360015	-0.661195	0.725118	0.539340	0.428154
07999		0.199875	-0.755157	0.624329	0.654847	-0.371025	-0.658419	0.728852	0.540442	0.420354
08000		0.196409	-0.749398	0.632318	0.652592	-0.381396	-0.654722	0.731811	0.541239	0.414141
08001		0.192184	-0.743841	0.640130	0.651771	-0.390903	-0.649915	0.733662	0.542121	0.409689
08002		0.187803	-0.738274	0.647828	0.651455	-0.399986	-0.644684	0.735076	0.543104	0.405834
08003		0.184047	-0.732613	0.655290	0.650970	-0.408661	-0.639715	0.736454	0.544312	0.401696
08004		0.181489	-0.726617	0.662638	0.650281	-0.416800	-0.635148	0.737697	0.546173	0.396861
08005		0.179921	-0.720197	0.670034	0.649148	-0.424844	-0.630963	0.739077	0.548475	0.391076
08006		0.178634	-0.713977	0.676998	0.646205	-0.433731	-0.627931	0.741963	0.549649	0.383897
08007		0.177449	-0.707802	0.683760	0.641176	-0.443940	-0.625948	0.746596	0.549484	0.375049
08008		0.176796	-0.701647	0.690242	0.634082	-0.455173	-0.625105	0.752783	0.548186	0.364430
08009		0.176787	-0.695578	0.696361	0.625235	-0.467051	-0.625256	0.760150	0.545926	0.352331
08010		0.177223	-0.689924	0.701853	0.615781	-0.478571	-0.625926	0.767728	0.543116	0.340028
08011		0.177723	-0.684736	0.706789	0.607501	-0.488690	-0.626198	0.774181	0.540665	0.329127
08012		0.178092	-0.680067	0.711190	0.600896	-0.497176	-0.625891	0.779235	0.538818	0.320107
08013		0.179323	-0.675370	0.715345	0.595538	-0.504246	-0.625357	0.783057	0.538156	0.311786
08014		0.181335	-0.670771	0.719155	0.591820	-0.509602	-0.624544	0.785409	0.538862	0.304568
08015		0.183460	-0.666679	0.722414	0.589863	-0.513225	-0.623427	0.786387	0.540499	0.299093
08016		0.185886	-0.662994	0.725180	0.588879	-0.515636	-0.622368	0.786555	0.542732	0.294573
08017		0.189220	-0.659415	0.727576	0.588411	-0.517048	-0.621638	0.786109	0.545741	0.290171
08018		0.192532	-0.656295	0.729526	0.588449	-0.517716	-0.621046	0.785276	0.548861	0.286519
08019		0.195832	-0.653573	0.731090	0.588321	-0.518153	-0.620803	0.784556	0.551688	0.283040
08020		0.199342	-0.651284	0.732183	0.587041	-0.518899	-0.621392	0.784631	0.553690	0.278892
08021		0.202522	-0.649858	0.732578	0.584578	-0.519942	-0.622839	0.785654	0.554388	0.274593
08022		0.204907	-0.649215	0.732484	0.581383	-0.521309	-0.624684	0.787405	0.553856	0.270623
08023		0.207698	-0.648731	0.732127	0.577563	-0.522730	-0.627036	0.789482	0.553083	0.266113
08024		0.211585	-0.648489	0.731228	0.574597	-0.522678	-0.629799	0.790614	0.553417	0.262029
08025		0.215655	-0.649133	0.729465	0.573100	-0.520705	-0.632790	0.790601	0.554521	0.259726
08026		0.219166	-0.650522	0.727178	0.572701	-0.517628	-0.635669	0.789924	0.555773	0.259108
08027		0.221879	-0.652359	0.724705	0.573459	-0.513803	-0.638084	0.788615	0.557166	0.260100
08028		0.223779	-0.654463	0.722220	0.575407	-0.509376	-0.639877	0.786657	0.558762	0.262595
08029		0.225927	-0.656414	0.719776	0.577215	-0.504995	-0.641719	0.784717	0.560447	0.264800
08030		0.228697	-0.658450	0.717037	0.577926	-0.500890	-0.644291	0.783390	0.561741	0.265984
08031		0.231476	-0.660994	0.713796	0.577165	-0.497337	-0.647716	0.783134	0.561910	0.266381
08032		0.234001	-0.663932	0.710238	0.575247	-0.494381	-0.651674	0.783795	0.561055	0.266239
08033		0.236453	-0.667064	0.706481	0.572537	-0.491809	-0.655992	0.785042	0.559598	0.265629
08034		0.239124	-0.670298	0.702510	0.570140	-0.488717	-0.660376	0.785977	0.558441	0.265300
08035		0.241764	-0.673720	0.698321	0.568496	-0.484875	-0.664611	0.786360	0.557672	0.265782
08036		0.244264	-0.677096	0.694173	0.568014	-0.480288	-0.668344	0.785936	0.557552	0.267283
08037		0.246978	-0.680225	0.690142	0.569016	-0.474680	-0.671490	0.784361	0.558546	0.269823
08038		0.250002	-0.683273	0.686030	0.571111	-0.468090	-0.674333	0.781877	0.560384	0.273202
08039		0.252963	-0.686908	0.681298	0.573304	-0.460816	-0.677475	0.779316	0.561967	0.277237
08040		0.255200	-0.691235	0.676067	0.575113	-0.453561	-0.680829	0.777251	0.562562	0.281789
08041		0.257157	-0.695471	0.670963	0.576831	-0.446587	-0.683979	0.775330	0.562922	0.286326
08042		0.259163	-0.699111	0.666392	0.578516	-0.440135	-0.686732	0.773404	0.563494	0.290380
08043		0.261654	-0.702279	0.662074	0.580406	-0.433588	-0.689296	0.771146	0.564629	0.294157
08044		0.264888	-0.705627	0.657209	0.581976	-0.426442	-0.692424	0.768855	0.565895	0.297699
08045		0.268193	-0.709804	0.651346	0.582501	-0.419038	-0.696491	0.767311	0.566203	0.301078
08046		0.270653	-0.714221	0.645473	0.582996	-0.411957	-0.700290	0.766069	0.565844	0.304891
08047		0.272614	-0.717750	0.640715	0.583875	-0.405875	-0.703104	0.764704	0.565773	0.308429
08048		0.276735	-0.720089	0.636309	0.584881	-0.399172	-0.706099	0.762451	0.567568	0.310701
08049		0.282879	-0.723303	0.629931	0.584906	-0.390423	-0.710954	0.760174	0.569564	0.312622
08050		0.285989	-0.728306	0.622721	0.584561	-0.382330	-0.715620	0.759275	0.568678	0.316397
08051		0.288985	-0.732822	0.616003	0.583914	-0.374981	-0.720023	0.758639	0.567768	0.319541
08052		0.293723	-0.736657	0.609150	0.582672	-0.367202	-0.725021	0.757773	0.567890	0.321374
08053		0.299465	-0.740499	0.601650	0.580788	-0.358819	-0.730708	0.756972	0.568252	0.322620
08054		0.305176	-0.744434	0.593874	0.577804	-0.350966	-0.736862	0.756974	0.568015	0.323030
08055		0.310988	-0.748091	0.586214	0.573837	-0.343888	-0.743271	0.757626	0.567540	0.322337
08056		0.316959	-0.751482	0.578630	0.569829	-0.336814	-0.749567	0.758176	0.567302	0.321460
08057		0.323067	-0.754812	0.570865	0.566598	-0.328886	-0.755514	0.758021	0.567532	0.321423
08058		0.328958	-0.758205	0.562949	0.564561	-0.319969	-0.760849	0.757006	0.568106	0.322797
08059		0.334396	-0.761866	0.554743	0.563841	-0.309927	-0.765525	0.755157	0.568775	0.325932
08060		0.339594	-0.765845	0.546037	0.564036	-0.298757	-0.769810	0.752688	0.569408	0.330508
08061		0.345043	-0.769869	0.536887	0.564166	-0.287032	-0.774164	0.750108	0.570013	0.335295
08062		0.350773	-0.773820	0.527409	0.564211	-0.274865	-0.778534	0.747412	0.570659	0.340183
08063		0.356588	-0.777706	0.517704	0.564064	-0.262523	-0.782888	0.744766	0.571187	0.345064
08064		0.362222	-0.781652	0.507756	0.563717	-0.250121	-0.787186	0.742306	0.571367	0.350031
08065		0.367487	-0.785944	0.497237	0.563582	-0.237109	-0.791300	0.739817	0.571026	0.355809
08066		0.372168	-0.790736	0.486032	0.563438	-0.223655	-0.795309	0.737583	0.569838	0.362294
08067		0.376566	-0.795700	0.474404	0.562682	-0.210356	-0.799462	0.735926	0.567989	0.368513
08068		0.381144	-0.800380	0.462732	0.561246	-0.197418	-0.803759	0.734664	0.566055	0.373965
08069		0.385749	-0.804952	0.450833	0.558545	-0.185177	-0.808540	0.734320	0.563704	0.378170
08070		0.390257	-0.809721	0.438238	0.554707	-0.173116	-0.813837	0.734847	0.560699	0.381598
08071		0.394959	-0.814663	0.424654	0.550367	-0.160293	-0.819391	0.735597	0.557342	0.385055
08072		0.400235	-0.819421	0.410318	0.545578	-0.146693	-0.825122	0.736313	0.554103	0.388347
08073		0.406106	-0.823785	0.395544	0.540513	-0.132472	-0.830841	0.736834	0.551207	0.391468
08074		0.412495	-0.827585	0.380725	0.535482	-0.117827	-0.836287	0.736958	0.548836	0.394553
08075		0.418820	-0.831116	0.365835	0.530411	-0.103096	-0.841448	0.737058	0.546458	0.397655
08076		0.424726	-0.834623	0.350731	0.525911	-0.087879	-0.845988	0.736903	0.543766	0.401613
08077		0.429817	-0.838434	0.335091	0.521470	-0.072461	-0.850188	0.737107	0.540164	0.406073
08078		0.434557	-0.842604	0.318086	0.516642	-0.056077	-0.854363	0.737727	0.535606	0.410956
08079		0.438821	-0.847232	0.299391	0.510884	-0.038858	-0.858771	0.739212	0.529801	0.415785
08080		0.443330	-0.851793	0.279120	0.504114	-0.020546	-0.863393	0.741166	0.523476	0.420292
08081		0.448165	-0.855779	0.258440	0.496239	-0.002309	-0.868183	0.743570	0.517337	0.423636
08082		0.454014	-0.858529	0.238326	0.487887	0.015731	-0.872765	0.745545	0.512524	0.426008
08083		0.460030	-0.860446	0.219101	0.479603	0.033135	-0.876860	0.747231	0.508463	0.427915
08084		0.465857	-0.861957	0.200020	0.471494	0.050521	-0.880421	0.748779	0.504459	0.429943
08085		0.470498	-0.863754	0.180445	0.462983	0.067562	-0.883789	0.751185	0.499364	0.431691
08086		0.473899	-0.866013	0.159504	0.454540	0.085433	-0.886620	0.754197	0.492669	0.434124
08087		0.476162	-0.868587	0.137208	0.447126	0.104792	-0.888312	0.757198	0.484329	0.438266
08088		0.478927	-0.870438	0.113870	0.440288	0.125957	-0.888977	0.759457	0.475891	0.443568
08089		0.482666	-0.871131	0.090358	0.433542	0.148012	-0.888895	0.760970	0.468213	0.449112
08090		0.487577	-0.870508	0.066967	0.426107	0.170314	-0.888496	0.762038	0.461746	0.453971
08091		0.492767	-0.869041	0.044140	0.417886	0.191848	-0.888012	0.763251	0.456029	0.457697
08092		0.498024	-0.866895	0.021554	0.408761	0.212763	-0.887494	0.764779	0.450804	0.460315
08093		0.502497	-0.864579	-0.000999	0.398857	0.232842	-0.886960	0.767079	0.445296	0.461845
08094		0.506128	-0.862114	-0.024370	0.388833	0.253315	-0.885799	0.769834	0.438851	0.463428
08095		0.508652	-0.859595	-0.048675	0.379778	0.274746	-0.883336	0.772685	0.430825	0.466205
08096		0.510391	-0.856792	-0.073535	0.372853	0.297541	-0.878891	0.774907	0.421161	0.471320
08097		0.511865	-0.853450	-0.098071	0.367176	0.320555	-0.873170	0.776644	0.410936	0.477447
08098		0.513758	-0.849154	-0.122433	0.362084	0.343983	-0.866355	0.777784	0.400766	0.484189
08099		0.515463	-0.844247	-0.146784	0.357941	0.367766	-0.858269	0.778573	0.389866	0.491760
08100		0.517007	-0.838626	-0.171493	0.353563	0.391677	-0.849460	0.779549	0.378543	0.499007
08101		0.518184	-0.832360	-0.196625	0.347687	0.415056	-0.840739	0.781409	0.367294	0.504476
08102		0.519161	-0.825066	-0.223020	0.341371	0.439399	-0.830899	0.783542	0.355238	0.509773
08103		0.519515	-0.817063	-0.250025	0.336658	0.464672	-0.818988	0.785344	0.341304	0.516475
08104		0.519570	-0.808206	-0.277219	0.333978	0.490739	-0.804757	0.786451	0.325542	0.524897
08105		0.519813	-0.798233	-0.304333	0.333226	0.517484	-0.788144	0.786610	0.308276	0.534987
08106		0.520509	-0.786915	-0.331415	0.333718	0.544751	-0.769336	0.785941	0.289847	0.546156
08107		0.521030	-0.774681	-0.358325	0.334594	0.571588	-0.749222	0.785223	0.270474	0.557018
08108		0.520321	-0.761545	-0.386415	0.333728	0.597840	-0.728844	0.786061	0.250275	0.565217
08109		0.517724	-0.748131	-0.415044	0.332526	0.622939	-0.708077	0.788282	0.228576	0.571283
08110		0.516600	-0.733231	-0.442150	0.332820	0.647746	-0.685315	0.788895	0.206877	0.578660
08111		0.516791	-0.717196	-0.467502	0.333969	0.671699	-0.661276	0.788284	0.185611	0.586649
08112		0.517835	-0.699996	-0.491784	0.335562	0.694996	-0.635908	0.786921	0.164272	0.594786
08113		0.518681	-0.682105	-0.515463	0.338761	0.717521	-0.608609	0.784991	0.141055	0.603235
08114		0.517848	-0.663852	-0.539568	0.343699	0.739033	-0.579397	0.783393	0.114591	0.610872
08115		0.514899	-0.645474	-0.564129	0.349339	0.758939	-0.549522	0.782842	0.085876	0.616266
08116		0.510627	-0.626622	-0.588731	0.354315	0.777243	-0.519957	0.783404	0.056908	0.618903
08117		0.505548	-0.607499	-0.612671	0.359006	0.793819	-0.490883	0.784561	0.028212	0.619410
08118		0.500806	-0.587835	-0.635330	0.363786	0.808981	-0.461746	0.785400	0.000121	0.618988
08119		0.498037	-0.567108	-0.656009	0.368750	0.823204	-0.431693	0.784846	-0.026905	0.619107
08120		0.497211	-0.544871	-0.675201	0.373306	0.836845	-0.400415	0.783214	-0.052966	0.619492
08121		0.496462	-0.521893	-0.693652	0.378761	0.849243	-0.367868	0.781067	-0.080096	0.619289
08122		0.494429	-0.498823	-0.711839	0.385682	0.859810	-0.334628	0.778967	-0.109094	0.617502
08123		0.490597	-0.475955	-0.729919	0.392930	0.868489	-0.302213	0.777767	-0.138542	0.613095
08124		0.484904	-0.453716	-0.747669	0.400729	0.875145	-0.271179	0.777357	-0.168117	0.606178
08125		0.477468	-0.432932	-0.764588	0.409574	0.879527	-0.242244	0.777350	-0.197491	0.597263
