// Start Time: Unknown
// Update Rate: 100.0Hz
// Filter Profile: human (46.1)
// Option Flags: AHS Disabled ICC Disabled 
// Firmware Version: 4.0.2
PacketCounter	SampleTimeFine	Mat[1][1]	Mat[2][1]	Mat[3][1]	Mat[1][2]	Mat[2][2]	Mat[3][2]	Mat[1][3]	Mat[2][3]	Mat[3][3]
03740		-0.227514	-0.050710	-0.972454	0.818690	0.530745	-0.219216	0.527241	-0.846013	-0.079236
03741		-0.227523	-0.050770	-0.972448	0.818656	0.530784	-0.219251	0.527291	-0.845985	-0.079203
03742		-0.227578	-0.050814	-0.972433	0.818618	0.530814	-0.219319	0.527326	-0.845964	-0.079205
03743		-0.227598	-0.050893	-0.972424	0.818524	0.530940	-0.219365	0.527464	-0.845879	-0.079184
03744		-0.227582	-0.050979	-0.972424	0.818442	0.531058	-0.219385	0.527598	-0.845800	-0.079135
03745		-0.227578	-0.051081	-0.972419	0.818387	0.531125	-0.219430	0.527685	-0.845752	-0.079068
03746		-0.227532	-0.051170	-0.972425	0.818555	0.530852	-0.219463	0.527444	-0.845918	-0.078900
03747		-0.227502	-0.051274	-0.972427	0.818572	0.530812	-0.219496	0.527431	-0.845937	-0.078790
03748		-0.227448	-0.051417	-0.972432	0.818538	0.530854	-0.219522	0.527507	-0.845902	-0.078655
03749		-0.227426	-0.051519	-0.972432	0.818527	0.530856	-0.219556	0.527533	-0.845894	-0.078561
03750		-0.227452	-0.051623	-0.972420	0.818428	0.530983	-0.219621	0.527676	-0.845809	-0.078524
03751		-0.227460	-0.051672	-0.972416	0.818346	0.531099	-0.219642	0.527798	-0.845733	-0.078518
03752		-0.227523	-0.051740	-0.972397	0.818121	0.531422	-0.219701	0.528120	-0.845526	-0.078580
03753		-0.227543	-0.051761	-0.972391	0.818063	0.531504	-0.219722	0.528203	-0.845473	-0.078596
03754		-0.227594	-0.051773	-0.972379	0.818100	0.531422	-0.219778	0.528122	-0.845524	-0.078593
03755		-0.227682	-0.051770	-0.972358	0.818136	0.531333	-0.219860	0.528028	-0.845580	-0.078620
03756		-0.227758	-0.051767	-0.972341	0.818229	0.531159	-0.219938	0.527853	-0.845689	-0.078619
03757		-0.227851	-0.051783	-0.972318	0.818276	0.531045	-0.220035	0.527739	-0.845760	-0.078627
03758		-0.227908	-0.051799	-0.972304	0.818235	0.531086	-0.220088	0.527777	-0.845733	-0.078655
03759		-0.227992	-0.051823	-0.972283	0.818222	0.531072	-0.220172	0.527763	-0.845740	-0.078678
03760		-0.227974	-0.051931	-0.972281	0.818154	0.531163	-0.220206	0.527875	-0.845677	-0.078604
03761		-0.228023	-0.051989	-0.972267	0.818074	0.531260	-0.220268	0.527978	-0.845612	-0.078609
03762		-0.228039	-0.052071	-0.972259	0.818100	0.531193	-0.220331	0.527930	-0.845649	-0.078534
03763		-0.228101	-0.052114	-0.972242	0.818045	0.531250	-0.220400	0.527989	-0.845611	-0.078547
03764		-0.228168	-0.052253	-0.972219	0.817936	0.531368	-0.220519	0.528129	-0.845528	-0.078502
03765		-0.228156	-0.052274	-0.972220	0.817895	0.531433	-0.220514	0.528197	-0.845486	-0.078495
03766		-0.228223	-0.052267	-0.972205	0.818053	0.531157	-0.220592	0.527923	-0.845660	-0.078465
03767		-0.228306	-0.052291	-0.972184	0.818039	0.531144	-0.220676	0.527909	-0.845667	-0.078487
03768		-0.228350	-0.052340	-0.972171	0.818083	0.531047	-0.220748	0.527822	-0.845724	-0.078446
03769		-0.228468	-0.052375	-0.972142	0.817972	0.531174	-0.220853	0.527943	-0.845643	-0.078515
03770		-0.228631	-0.052350	-0.972104	0.818045	0.531004	-0.220994	0.527760	-0.845751	-0.078579
03771		-0.228810	-0.052350	-0.972063	0.818053	0.530925	-0.221151	0.527669	-0.845800	-0.078656
03772		-0.228946	-0.052295	-0.972033	0.818117	0.530785	-0.221250	0.527511	-0.845892	-0.078738
03773		-0.229108	-0.052243	-0.971998	0.818297	0.530449	-0.221390	0.527161	-0.846106	-0.078780
03774		-0.229266	-0.052201	-0.971963	0.818523	0.530038	-0.221540	0.526742	-0.846366	-0.078792
03775		-0.229412	-0.052143	-0.971932	0.818835	0.529496	-0.221682	0.526193	-0.846709	-0.078776
03776		-0.229525	-0.052138	-0.971905	0.819091	0.529044	-0.221817	0.525746	-0.846991	-0.078723
03777		-0.229628	-0.052074	-0.971884	0.819357	0.528591	-0.221912	0.525286	-0.847278	-0.078712
03778		-0.229722	-0.051999	-0.971866	0.819694	0.528029	-0.222005	0.524718	-0.847633	-0.078677
03779		-0.229806	-0.052023	-0.971845	0.819681	0.528015	-0.222089	0.524703	-0.847640	-0.078699
03780		-0.229814	-0.052127	-0.971837	0.819455	0.528353	-0.222119	0.525052	-0.847423	-0.078707
03781		-0.229900	-0.052189	-0.971814	0.819242	0.528651	-0.222197	0.525346	-0.847234	-0.078781
03782		-0.229908	-0.052304	-0.971806	0.818901	0.529171	-0.222214	0.525874	-0.846902	-0.078829
03783		-0.229896	-0.052352	-0.971806	0.818740	0.529423	-0.222207	0.526130	-0.846741	-0.078849
03784		-0.229841	-0.052485	-0.971812	0.818436	0.529902	-0.222185	0.526627	-0.846433	-0.078838
03785		-0.229841	-0.052491	-0.971812	0.818420	0.529926	-0.222186	0.526652	-0.846418	-0.078839
03786		-0.229835	-0.052541	-0.971810	0.818368	0.530001	-0.222200	0.526735	-0.846368	-0.078814
03787		-0.229877	-0.052512	-0.971802	0.818391	0.529955	-0.222225	0.526681	-0.846398	-0.078849
03788		-0.229898	-0.052511	-0.971797	0.818423	0.529896	-0.222247	0.526622	-0.846435	-0.078846
03789		-0.229978	-0.052469	-0.971780	0.818354	0.529987	-0.222284	0.526693	-0.846381	-0.078947
03790		-0.230024	-0.052515	-0.971767	0.818154	0.530282	-0.222319	0.526985	-0.846194	-0.079012
03791		-0.230099	-0.052513	-0.971749	0.818037	0.530441	-0.222367	0.527133	-0.846094	-0.079096
03792		-0.230129	-0.052666	-0.971734	0.817638	0.531035	-0.222416	0.527739	-0.845711	-0.079145
03793		-0.230197	-0.052666	-0.971718	0.817549	0.531154	-0.222463	0.527848	-0.845637	-0.079213
03794		-0.230176	-0.052731	-0.971719	0.817477	0.531261	-0.222469	0.527968	-0.845566	-0.079177
03795		-0.230188	-0.052740	-0.971716	0.817443	0.531309	-0.222480	0.528015	-0.845535	-0.079189
03796		-0.230173	-0.052815	-0.971715	0.817382	0.531395	-0.222498	0.528116	-0.845476	-0.079143
03797		-0.230185	-0.052841	-0.971711	0.817306	0.531507	-0.222511	0.528229	-0.845404	-0.079157
03798		-0.230150	-0.052876	-0.971717	0.817193	0.531693	-0.222484	0.528419	-0.845285	-0.079159
03799		-0.230111	-0.052857	-0.971728	0.817092	0.531873	-0.222423	0.528592	-0.845173	-0.079201
03800		-0.230015	-0.052917	-0.971747	0.816841	0.532295	-0.222335	0.529021	-0.844904	-0.079211
03801		-0.229951	-0.052851	-0.971766	0.816769	0.532448	-0.222232	0.529160	-0.844811	-0.079270
03802		-0.229900	-0.052816	-0.971780	0.816771	0.532473	-0.222168	0.529180	-0.844798	-0.079277
03803		-0.229834	-0.052767	-0.971798	0.816782	0.532490	-0.222086	0.529191	-0.844790	-0.079285
03804		-0.229784	-0.052746	-0.971811	0.816880	0.532356	-0.222044	0.529062	-0.844875	-0.079239
03805		-0.229756	-0.052772	-0.971816	0.816893	0.532339	-0.222036	0.529053	-0.844885	-0.079199
03806		-0.229739	-0.052718	-0.971823	0.817042	0.532120	-0.222015	0.528831	-0.845026	-0.079176
03807		-0.229752	-0.052727	-0.971820	0.817008	0.532168	-0.222025	0.528878	-0.844995	-0.079188
03808		-0.229730	-0.052810	-0.971821	0.816766	0.532544	-0.222016	0.529262	-0.844753	-0.079208
03809		-0.229748	-0.052807	-0.971816	0.816658	0.532710	-0.222014	0.529420	-0.844649	-0.079264
03810		-0.229743	-0.052824	-0.971817	0.816599	0.532802	-0.222009	0.529513	-0.844590	-0.079272
03811		-0.229778	-0.052842	-0.971808	0.816485	0.532967	-0.222032	0.529674	-0.844485	-0.079319
03812		-0.229895	-0.052835	-0.971780	0.816516	0.532877	-0.222136	0.529576	-0.844542	-0.079365
03813		-0.229927	-0.052873	-0.971771	0.816441	0.532976	-0.222174	0.529677	-0.844477	-0.079378
03814		-0.230003	-0.052918	-0.971750	0.816405	0.532995	-0.222260	0.529700	-0.844462	-0.079388
03815		-0.230040	-0.053003	-0.971737	0.816346	0.533056	-0.222330	0.529775	-0.844418	-0.079356
03816		-0.230044	-0.053047	-0.971733	0.816356	0.533029	-0.222359	0.529757	-0.844432	-0.079315
03817		-0.230070	-0.053056	-0.971727	0.816348	0.533029	-0.222385	0.529758	-0.844432	-0.079322
03818		-0.230079	-0.053068	-0.971724	0.816453	0.532857	-0.222415	0.529593	-0.844540	-0.079271
03819		-0.230047	-0.053089	-0.971730	0.816457	0.532857	-0.222399	0.529600	-0.844538	-0.079237
03820		-0.230020	-0.053181	-0.971732	0.816377	0.532973	-0.222414	0.529735	-0.844459	-0.079179
03821		-0.229966	-0.053180	-0.971745	0.816333	0.533063	-0.222359	0.529827	-0.844402	-0.079174
03822		-0.229903	-0.053120	-0.971763	0.816481	0.532865	-0.222294	0.529626	-0.844532	-0.079136
03823		-0.229854	-0.053106	-0.971775	0.816489	0.532873	-0.222245	0.529635	-0.844527	-0.079123
03824		-0.229753	-0.053126	-0.971798	0.816509	0.532872	-0.222170	0.529647	-0.844526	-0.079051
03825		-0.229657	-0.053115	-0.971821	0.816590	0.532781	-0.222092	0.529564	-0.844585	-0.078983
03826		-0.229588	-0.053077	-0.971840	0.816733	0.532587	-0.222033	0.529374	-0.844709	-0.078926
03827		-0.229529	-0.053026	-0.971856	0.816843	0.532445	-0.221970	0.529230	-0.844802	-0.078898
03828		-0.229502	-0.052922	-0.971868	0.817095	0.532075	-0.221926	0.528852	-0.845041	-0.078870
03829		-0.229452	-0.052880	-0.971883	0.817224	0.531897	-0.221879	0.528674	-0.845157	-0.078830
03830		-0.229322	-0.052886	-0.971913	0.817240	0.531917	-0.221771	0.528705	-0.845143	-0.078760
03831		-0.229308	-0.052852	-0.971918	0.817317	0.531808	-0.221751	0.528594	-0.845214	-0.078751
03832		-0.229256	-0.052938	-0.971925	0.817188	0.532012	-0.221735	0.528814	-0.845080	-0.078707
03833		-0.229253	-0.052938	-0.971926	0.817207	0.531984	-0.221734	0.528787	-0.845098	-0.078698
03834		-0.229252	-0.052911	-0.971928	0.817355	0.531753	-0.221741	0.528559	-0.845245	-0.078658
03835		-0.229262	-0.052896	-0.971926	0.817398	0.531685	-0.221748	0.528488	-0.845289	-0.078657
03836		-0.229268	-0.052921	-0.971924	0.817459	0.531578	-0.221776	0.528390	-0.845354	-0.078613
03837		-0.229246	-0.052934	-0.971928	0.817525	0.531479	-0.221773	0.528299	-0.845416	-0.078564
03838		-0.229271	-0.052953	-0.971921	0.817508	0.531493	-0.221803	0.528315	-0.845406	-0.078566
03839		-0.229251	-0.052946	-0.971926	0.817534	0.531460	-0.221786	0.528282	-0.845427	-0.078553
03840		-0.229241	-0.052877	-0.971932	0.817734	0.531158	-0.221769	0.527976	-0.845621	-0.078524
03841		-0.229201	-0.052845	-0.971944	0.817757	0.531144	-0.221719	0.527959	-0.845632	-0.078525
03842		-0.229204	-0.052801	-0.971945	0.817915	0.530899	-0.221721	0.527712	-0.845788	-0.078498
03843		-0.229152	-0.052807	-0.971957	0.817962	0.530842	-0.221687	0.527662	-0.845824	-0.078449
03844		-0.229023	-0.052952	-0.971980	0.817782	0.531144	-0.221626	0.527996	-0.845626	-0.078341
03845		-0.228975	-0.052966	-0.971990	0.817794	0.531139	-0.221594	0.527999	-0.845628	-0.078302
03846		-0.228864	-0.052941	-0.972018	0.817932	0.530965	-0.221503	0.527834	-0.845738	-0.078217
03847		-0.228826	-0.052888	-0.972030	0.818041	0.530816	-0.221457	0.527681	-0.845835	-0.078200
03848		-0.228711	-0.052873	-0.972057	0.818178	0.530642	-0.221369	0.527519	-0.845945	-0.078104
03849		-0.228703	-0.052854	-0.972060	0.818184	0.530639	-0.221352	0.527512	-0.845949	-0.078114
03850		-0.228690	-0.052923	-0.972060	0.818058	0.530830	-0.221360	0.527713	-0.845824	-0.078101
03851		-0.228750	-0.052985	-0.972042	0.817960	0.530951	-0.221432	0.527839	-0.845745	-0.078115
03852		-0.228768	-0.053126	-0.972030	0.817705	0.531322	-0.221487	0.528227	-0.845503	-0.078109
03853		-0.228858	-0.053267	-0.972001	0.817592	0.531438	-0.221626	0.528364	-0.845421	-0.078073
03854		-0.228896	-0.053440	-0.971983	0.817368	0.531743	-0.221720	0.528694	-0.845218	-0.078034
03855		-0.228977	-0.053528	-0.971959	0.817273	0.531844	-0.221825	0.528805	-0.845149	-0.078033
03856		-0.228998	-0.053682	-0.971945	0.817117	0.532050	-0.221905	0.529036	-0.845009	-0.077974
03857		-0.229026	-0.053758	-0.971935	0.817039	0.532147	-0.221960	0.529144	-0.844943	-0.077953
03858		-0.229035	-0.053857	-0.971927	0.816957	0.532253	-0.222009	0.529268	-0.844870	-0.077906
03859		-0.229052	-0.053914	-0.971920	0.816813	0.532463	-0.222035	0.529483	-0.844734	-0.077924
03860		-0.229053	-0.054014	-0.971914	0.816581	0.532810	-0.222056	0.529839	-0.844510	-0.077935
03861		-0.229079	-0.054066	-0.971905	0.816454	0.532991	-0.222089	0.530024	-0.844392	-0.077955
03862		-0.229134	-0.054049	-0.971893	0.816540	0.532838	-0.222140	0.529868	-0.844489	-0.077958
03863		-0.229168	-0.054081	-0.971883	0.816554	0.532796	-0.222190	0.529832	-0.844514	-0.077939
03864		-0.229196	-0.054117	-0.971875	0.816669	0.532595	-0.222250	0.529643	-0.844639	-0.077873
03865		-0.229218	-0.054160	-0.971867	0.816703	0.532523	-0.222298	0.529581	-0.844681	-0.077831
03866		-0.229244	-0.054230	-0.971857	0.816710	0.532485	-0.222361	0.529558	-0.844700	-0.077779
03867		-0.229318	-0.054289	-0.971836	0.816683	0.532488	-0.222454	0.529568	-0.844695	-0.077772
03868		-0.229358	-0.054370	-0.971822	0.816586	0.532610	-0.222519	0.529701	-0.844613	-0.077760
03869		-0.229389	-0.054382	-0.971814	0.816506	0.532722	-0.222541	0.529809	-0.844541	-0.077798
03870		-0.229544	-0.054363	-0.971779	0.816574	0.532562	-0.222675	0.529638	-0.844643	-0.077855
03871		-0.229596	-0.054399	-0.971765	0.816499	0.532655	-0.222730	0.529731	-0.844583	-0.077879
03872		-0.229662	-0.054435	-0.971747	0.816400	0.532780	-0.222793	0.529855	-0.844501	-0.077918
03873		-0.229678	-0.054450	-0.971742	0.816375	0.532810	-0.222812	0.529886	-0.844481	-0.077923
03874		-0.229665	-0.054486	-0.971743	0.816307	0.532916	-0.222810	0.529998	-0.844412	-0.077915
03875		-0.229647	-0.054417	-0.971752	0.816413	0.532768	-0.222771	0.529841	-0.844510	-0.077922
03876		-0.229653	-0.054338	-0.971755	0.816606	0.532477	-0.222762	0.529541	-0.844699	-0.077912
03877		-0.229606	-0.054291	-0.971768	0.816573	0.532558	-0.222690	0.529613	-0.844650	-0.077946
03878		-0.229603	-0.054241	-0.971772	0.816558	0.532594	-0.222658	0.529637	-0.844631	-0.077994
03879		-0.229600	-0.054169	-0.971777	0.816484	0.532729	-0.222605	0.529752	-0.844550	-0.078087
03880		-0.229553	-0.054226	-0.971784	0.816177	0.533223	-0.222550	0.530246	-0.844235	-0.078145
03881		-0.229528	-0.054159	-0.971794	0.816185	0.533235	-0.222493	0.530245	-0.844232	-0.078189
03882		-0.229469	-0.054202	-0.971806	0.815973	0.533584	-0.222433	0.530596	-0.844008	-0.078214
03883		-0.229396	-0.054124	-0.971827	0.816052	0.533503	-0.222338	0.530507	-0.844065	-0.078216
03884		-0.229291	-0.054023	-0.971858	0.816281	0.533200	-0.222225	0.530199	-0.844263	-0.078160
03885		-0.229198	-0.053902	-0.971886	0.816398	0.533074	-0.222095	0.530059	-0.844350	-0.078174
03886		-0.229124	-0.053827	-0.971908	0.816508	0.532943	-0.222005	0.529922	-0.844437	-0.078160
03887		-0.229001	-0.053759	-0.971941	0.816571	0.532904	-0.221870	0.529878	-0.844466	-0.078137
03888		-0.228943	-0.053654	-0.971960	0.816711	0.532725	-0.221782	0.529687	-0.844586	-0.078144
03889		-0.228860	-0.053616	-0.971982	0.816688	0.532801	-0.221685	0.529759	-0.844540	-0.078149
03890		-0.228834	-0.053658	-0.971985	0.816434	0.533205	-0.221648	0.530160	-0.844283	-0.078208
03891		-0.228833	-0.053641	-0.971987	0.816369	0.533313	-0.221628	0.530262	-0.844215	-0.078249
03892		-0.228867	-0.053610	-0.971980	0.816307	0.533406	-0.221632	0.530342	-0.844159	-0.078317
03893		-0.228909	-0.053567	-0.971973	0.816327	0.533368	-0.221648	0.530293	-0.844185	-0.078364
03894		-0.228998	-0.053500	-0.971956	0.816421	0.533203	-0.221703	0.530110	-0.844294	-0.078424
03895		-0.229058	-0.053490	-0.971942	0.816482	0.533086	-0.221758	0.529991	-0.844368	-0.078434
03896		-0.229096	-0.053511	-0.971932	0.816480	0.533070	-0.221802	0.529976	-0.844377	-0.078434
03897		-0.229114	-0.053491	-0.971929	0.816540	0.532972	-0.221817	0.529876	-0.844440	-0.078434
03898		-0.229117	-0.053552	-0.971925	0.816481	0.533051	-0.221844	0.529966	-0.844387	-0.078406
03899		-0.229051	-0.053518	-0.971942	0.816495	0.533062	-0.221770	0.529974	-0.844382	-0.078401
03900		-0.228994	-0.053633	-0.971949	0.816423	0.533170	-0.221773	0.530109	-0.844306	-0.078305
03901		-0.228923	-0.053643	-0.971965	0.816344	0.533320	-0.221704	0.530261	-0.844211	-0.078298
03902		-0.228835	-0.053717	-0.971982	0.816191	0.533578	-0.221645	0.530534	-0.844043	-0.078258
03903		-0.228775	-0.053730	-0.971995	0.816094	0.533751	-0.221586	0.530709	-0.843933	-0.078260
03904		-0.228726	-0.053733	-0.972007	0.816038	0.533857	-0.221536	0.530817	-0.843866	-0.078258
03905		-0.228708	-0.053724	-0.972012	0.815982	0.533954	-0.221507	0.530910	-0.843805	-0.078282
03906		-0.228731	-0.053692	-0.972008	0.816080	0.533799	-0.221524	0.530751	-0.843905	-0.078280
03907		-0.228723	-0.053688	-0.972010	0.816088	0.533789	-0.221517	0.530741	-0.843912	-0.078276
03908		-0.228739	-0.053580	-0.972012	0.816297	0.533476	-0.221502	0.530413	-0.844117	-0.078289
03909		-0.228707	-0.053584	-0.972019	0.816343	0.533413	-0.221483	0.530356	-0.844156	-0.078252
03910		-0.228653	-0.053658	-0.972028	0.816311	0.533467	-0.221472	0.530429	-0.844117	-0.078178
03911		-0.228642	-0.053632	-0.972032	0.816352	0.533412	-0.221454	0.530370	-0.844154	-0.078178
03912		-0.228656	-0.053607	-0.972030	0.816472	0.533222	-0.221470	0.530180	-0.844275	-0.078155
03913		-0.228677	-0.053609	-0.972025	0.816499	0.533170	-0.221494	0.530129	-0.844308	-0.078152
03914		-0.228671	-0.053624	-0.972026	0.816600	0.533007	-0.221511	0.529975	-0.844410	-0.078094
03915		-0.228673	-0.053611	-0.972026	0.816670	0.532898	-0.221516	0.529866	-0.844480	-0.078077
03916		-0.228692	-0.053654	-0.972019	0.816736	0.532776	-0.221567	0.529756	-0.844554	-0.078020
03917		-0.228719	-0.053644	-0.972013	0.816815	0.532642	-0.221596	0.529622	-0.844639	-0.078009
03918		-0.228689	-0.053600	-0.972023	0.817040	0.532305	-0.221579	0.529289	-0.844854	-0.077939
03919		-0.228692	-0.053556	-0.972025	0.817150	0.532138	-0.221573	0.529118	-0.844962	-0.077933
03920		-0.228689	-0.053560	-0.972025	0.817190	0.532075	-0.221579	0.529058	-0.845002	-0.077911
03921		-0.228651	-0.053518	-0.972036	0.817345	0.531849	-0.221546	0.528834	-0.845146	-0.077866
03922		-0.228657	-0.053423	-0.972040	0.817568	0.531513	-0.221532	0.528486	-0.845364	-0.077857
03923		-0.228602	-0.053363	-0.972056	0.817685	0.531359	-0.221468	0.528329	-0.845464	-0.077835
03924		-0.228466	-0.053410	-0.972086	0.817736	0.531318	-0.221382	0.528310	-0.845487	-0.077713
03925		-0.228350	-0.053340	-0.972117	0.817896	0.531119	-0.221266	0.528112	-0.845617	-0.077654
03926		-0.228240	-0.053324	-0.972144	0.817963	0.531055	-0.221171	0.528055	-0.845658	-0.077591
03927		-0.228153	-0.053305	-0.972165	0.818105	0.530864	-0.221106	0.527874	-0.845779	-0.077509
03928		-0.228067	-0.053225	-0.972190	0.818396	0.530448	-0.221029	0.527460	-0.846045	-0.077418
03929		-0.227990	-0.053199	-0.972209	0.818473	0.530358	-0.220959	0.527373	-0.846103	-0.077374
03930		-0.227969	-0.053209	-0.972213	0.818450	0.530399	-0.220943	0.527417	-0.846076	-0.077366
03931		-0.227921	-0.053133	-0.972229	0.818538	0.530294	-0.220872	0.527303	-0.846147	-0.077374
03932		-0.227888	-0.053150	-0.972236	0.818644	0.530131	-0.220868	0.527151	-0.846248	-0.077300
03933		-0.227860	-0.053058	-0.972247	0.818729	0.530026	-0.220806	0.527032	-0.846320	-0.077332
03934		-0.227806	-0.052988	-0.972264	0.818935	0.529731	-0.220750	0.526736	-0.846509	-0.077282
03935		-0.227755	-0.052887	-0.972281	0.819098	0.529509	-0.220675	0.526503	-0.846654	-0.077279
03936		-0.227644	-0.052883	-0.972307	0.819123	0.529512	-0.220579	0.526513	-0.846653	-0.077223
03937		-0.227554	-0.052784	-0.972334	0.819332	0.529231	-0.220477	0.526227	-0.846834	-0.077181
03938		-0.227432	-0.052618	-0.972371	0.819734	0.528665	-0.220339	0.525653	-0.847198	-0.077102
03939		-0.227268	-0.052538	-0.972414	0.819964	0.528373	-0.220185	0.525365	-0.847385	-0.077003
03940		-0.227150	-0.052456	-0.972446	0.820246	0.527978	-0.220079	0.524975	-0.847636	-0.076903
03941		-0.227078	-0.052375	-0.972467	0.820493	0.527625	-0.220007	0.524621	-0.847861	-0.076838
03942		-0.227033	-0.052302	-0.972482	0.820745	0.527250	-0.219966	0.524246	-0.848099	-0.076776
03943		-0.227106	-0.052201	-0.972470	0.821031	0.526784	-0.220017	0.523767	-0.848395	-0.076777
03944		-0.227229	-0.052200	-0.972441	0.821163	0.526525	-0.220143	0.523506	-0.848556	-0.076777
03945		-0.227452	-0.052082	-0.972396	0.821498	0.525926	-0.220325	0.522884	-0.848934	-0.076837
03946		-0.227740	-0.051976	-0.972334	0.821857	0.525260	-0.220573	0.522193	-0.849353	-0.076906
03947		-0.228106	-0.051872	-0.972253	0.822271	0.524475	-0.220900	0.521382	-0.849844	-0.076983
03948		-0.228504	-0.051827	-0.972163	0.822589	0.523819	-0.221272	0.520705	-0.850252	-0.077062
03949		-0.228984	-0.051672	-0.972058	0.823096	0.522846	-0.221686	0.519691	-0.850860	-0.077193
03950		-0.229459	-0.051599	-0.971950	0.823401	0.522186	-0.222111	0.518999	-0.851269	-0.077334
03951		-0.229904	-0.051390	-0.971855	0.823871	0.521293	-0.222462	0.518054	-0.851829	-0.077508
03952		-0.230410	-0.051137	-0.971749	0.824449	0.520209	-0.222859	0.516909	-0.852507	-0.077701
03953		-0.230942	-0.050851	-0.971638	0.825078	0.519034	-0.223271	0.515667	-0.853240	-0.077911
03954		-0.231682	-0.050537	-0.971478	0.825702	0.517790	-0.223853	0.514334	-0.854014	-0.078234
03955		-0.232766	-0.050266	-0.971233	0.826223	0.516569	-0.224748	0.513006	-0.854769	-0.078708
03956		-0.234222	-0.049953	-0.970899	0.826894	0.514958	-0.225977	0.511260	-0.855759	-0.079309
03957		-0.235970	-0.049868	-0.970480	0.827333	0.513555	-0.227554	0.509743	-0.856606	-0.079926
03958		-0.238055	-0.049778	-0.969975	0.828237	0.511226	-0.229504	0.507301	-0.858004	-0.080471
03959		-0.240491	-0.049786	-0.969374	0.829445	0.508188	-0.231876	0.504168	-0.859806	-0.080920
03960		-0.243432	-0.049881	-0.968635	0.831103	0.504107	-0.234828	0.500009	-0.862200	-0.081260
03961		-0.246947	-0.050256	-0.967725	0.832805	0.499573	-0.238461	0.495433	-0.864813	-0.081515
03962		-0.251221	-0.050863	-0.966593	0.834259	0.495000	-0.242874	0.490816	-0.867403	-0.081921
03963		-0.256243	-0.051736	-0.965227	0.835136	0.490951	-0.248022	0.486711	-0.869650	-0.082596
03964		-0.262121	-0.052640	-0.963598	0.835736	0.486890	-0.253937	0.482533	-0.871876	-0.083631
03965		-0.268537	-0.053825	-0.961764	0.835664	0.483593	-0.260392	0.479118	-0.873636	-0.084884
03966		-0.275612	-0.054941	-0.959698	0.835333	0.480333	-0.267394	0.475665	-0.875364	-0.086492
03967		-0.282977	-0.056381	-0.957468	0.834545	0.477532	-0.274767	0.472714	-0.876803	-0.088078
03968		-0.290860	-0.058226	-0.954992	0.833411	0.474828	-0.282781	0.469922	-0.878150	-0.089583
03969		-0.299127	-0.060691	-0.952281	0.831638	0.472746	-0.291360	0.467870	-0.879107	-0.090938
03970		-0.308027	-0.063572	-0.949251	0.829331	0.470975	-0.300655	0.466187	-0.879853	-0.092351
03971		-0.317408	-0.067157	-0.945908	0.825991	0.470412	-0.310566	0.465823	-0.879888	-0.093842
03972		-0.327374	-0.071026	-0.942221	0.822015	0.470329	-0.321063	0.465958	-0.879628	-0.095589
03973		-0.337742	-0.075279	-0.938224	0.817130	0.471274	-0.331963	0.467150	-0.878768	-0.097656
03974		-0.348641	-0.079631	-0.933867	0.811707	0.472504	-0.343325	0.468596	-0.877724	-0.100098
03975		-0.359748	-0.084551	-0.929211	0.805314	0.474820	-0.354986	0.471222	-0.876012	-0.102726
03976		-0.371239	-0.089633	-0.924201	0.798484	0.477199	-0.367021	0.473925	-0.874212	-0.105585
03977		-0.383169	-0.095272	-0.918752	0.790926	0.479918	-0.379625	0.477093	-0.872125	-0.108537
03978		-0.396051	-0.101249	-0.912629	0.782933	0.482050	-0.393247	0.479749	-0.870273	-0.111645
03979		-0.409692	-0.108185	-0.905786	0.773929	0.484403	-0.407908	0.482895	-0.868130	-0.114728
03980		-0.424519	-0.115493	-0.898023	0.764188	0.486234	-0.423785	0.485593	-0.866163	-0.118157
03981		-0.439771	-0.123959	-0.889514	0.752839	0.489189	-0.440372	0.489729	-0.863324	-0.121810
03982		-0.455642	-0.132791	-0.880203	0.740498	0.492222	-0.457581	0.494017	-0.860282	-0.125946
03983		-0.471734	-0.142333	-0.870177	0.726850	0.495906	-0.475149	0.499155	-0.856632	-0.130481
03984		-0.488266	-0.151755	-0.859399	0.712721	0.498944	-0.493036	0.503612	-0.853244	-0.135458
03985		-0.504792	-0.161866	-0.847929	0.697340	0.502516	-0.511071	0.508823	-0.849280	-0.140791
03986		-0.521892	-0.171747	-0.835543	0.681418	0.505286	-0.529486	0.513126	-0.845688	-0.146673
03987		-0.539104	-0.181952	-0.822351	0.664635	0.507818	-0.548070	0.517327	-0.842030	-0.152835
03988		-0.556653	-0.191508	-0.808370	0.647792	0.509138	-0.566696	0.520099	-0.839108	-0.159356
03989		-0.573667	-0.201521	-0.793912	0.630071	0.510757	-0.584926	0.523371	-0.835773	-0.166032
03990		-0.590701	-0.210848	-0.778855	0.612470	0.511250	-0.602913	0.525313	-0.833167	-0.172858
03991		-0.607439	-0.220400	-0.763178	0.594068	0.511761	-0.620632	0.527352	-0.830376	-0.179931
03992		-0.624281	-0.229099	-0.746851	0.575837	0.511099	-0.638115	0.527906	-0.828427	-0.187146
03993		-0.640596	-0.237672	-0.730171	0.557322	0.510222	-0.655030	0.528232	-0.826550	-0.194386
03994		-0.656732	-0.244664	-0.713332	0.539773	0.508065	-0.671204	0.526639	-0.825839	-0.201599
03995		-0.671903	-0.251168	-0.696750	0.522788	0.505539	-0.686384	0.524632	-0.825436	-0.208366
03996		-0.686551	-0.256217	-0.680441	0.507536	0.501239	-0.700833	0.520629	-0.826506	-0.214087
03997		-0.700475	-0.260549	-0.664416	0.493726	0.495326	-0.714763	0.515333	-0.828714	-0.218324
03998		-0.714059	-0.263358	-0.648662	0.481794	0.487376	-0.728244	0.507931	-0.832530	-0.221131
03999		-0.726551	-0.266489	-0.633330	0.470565	0.478673	-0.741242	0.500691	-0.836574	-0.222380
04000		-0.738186	-0.269154	-0.618577	0.460498	0.469032	-0.753625	0.492973	-0.841169	-0.222288
04001		-0.748576	-0.272618	-0.604411	0.450288	0.460093	-0.765216	0.486697	-0.844982	-0.221658
04002		-0.758074	-0.276195	-0.590796	0.440414	0.451327	-0.776106	0.480998	-0.848540	-0.220499
04003		-0.766677	-0.280545	-0.577496	0.430044	0.443494	-0.786369	0.476728	-0.851239	-0.219370
04004		-0.775276	-0.283782	-0.564283	0.419702	0.436176	-0.795990	0.472015	-0.853943	-0.219053
04005		-0.783010	-0.288632	-0.550987	0.407485	0.431234	-0.804980	0.469947	-0.854827	-0.220048
04006		-0.790731	-0.293170	-0.537397	0.394368	0.427469	-0.813477	0.468208	-0.855173	-0.222397
04007		-0.797718	-0.299655	-0.523309	0.379103	0.425665	-0.821638	0.468963	-0.853824	-0.225961
04008		-0.804268	-0.307362	-0.508607	0.362457	0.424520	-0.829704	0.470933	-0.851652	-0.230023
04009		-0.810060	-0.317504	-0.492944	0.343786	0.423853	-0.837950	0.474988	-0.848257	-0.234193
04010		-0.815146	-0.329614	-0.476332	0.323491	0.423101	-0.846368	0.480511	-0.844003	-0.238261
04011		-0.818802	-0.344865	-0.458946	0.301090	0.422693	-0.854796	0.488783	-0.838092	-0.242266
04012		-0.821233	-0.361422	-0.441532	0.277790	0.422669	-0.862661	0.498407	-0.831099	-0.246710
04013		-0.822256	-0.379347	-0.424254	0.253520	0.423263	-0.869814	0.509532	-0.822766	-0.251859
04014		-0.822216	-0.396812	-0.408045	0.230317	0.423635	-0.876064	0.520495	-0.814293	-0.256927
04015		-0.821247	-0.413930	-0.392704	0.208386	0.423123	-0.881783	0.531158	-0.805995	-0.261232
04016		-0.820203	-0.428823	-0.378654	0.189162	0.421370	-0.886941	0.539894	-0.799099	-0.264492
04017		-0.818020	-0.444131	-0.365501	0.170361	0.419855	-0.891459	0.549382	-0.791498	-0.267787
04018		-0.815198	-0.458335	-0.354091	0.152667	0.419698	-0.894733	0.558699	-0.783443	-0.272164
04019		-0.811346	-0.473040	-0.343440	0.133491	0.422059	-0.896686	0.569120	-0.773369	-0.279289
04020		-0.806442	-0.487615	-0.334490	0.114193	0.426599	-0.897203	0.580182	-0.761738	-0.288345
04021		-0.800961	-0.502088	-0.326143	0.094664	0.431683	-0.897044	0.591186	-0.749371	-0.298231
04022		-0.794480	-0.516323	-0.319705	0.077434	0.436021	-0.896599	0.602333	-0.737086	-0.306430
04023		-0.787677	-0.530174	-0.313815	0.062002	0.438565	-0.896558	0.612960	-0.725656	-0.312576
04024		-0.780666	-0.542705	-0.309890	0.050966	0.438926	-0.897077	0.622867	-0.716111	-0.314995
04025		-0.774080	-0.554210	-0.306027	0.042609	0.436685	-0.898605	0.631653	-0.708631	-0.314414
04026		-0.768485	-0.563272	-0.303573	0.039217	0.432076	-0.900984	0.638665	-0.704297	-0.309954
04027		-0.763880	-0.571115	-0.300525	0.037012	0.426136	-0.903902	0.644296	-0.701595	-0.304378
04028		-0.760730	-0.576770	-0.297701	0.035813	0.420661	-0.906511	0.648079	-0.700272	-0.299353
04029		-0.759868	-0.580168	-0.293267	0.033364	0.415727	-0.908877	0.649220	-0.700411	-0.296541
04030		-0.760780	-0.581494	-0.288233	0.030490	0.411599	-0.910855	0.648293	-0.701749	-0.295406
04031		-0.763718	-0.580742	-0.281911	0.026519	0.408107	-0.912549	0.645005	-0.704406	-0.296278
04032		-0.768712	-0.577393	-0.275134	0.022792	0.405167	-0.913959	0.639189	-0.708842	-0.298297
04033		-0.775511	-0.571863	-0.267498	0.019381	0.401939	-0.915461	0.631036	-0.715135	-0.300625
04034		-0.784210	-0.563731	-0.259272	0.017844	0.397185	-0.917565	0.620239	-0.724190	-0.301418
04035		-0.794328	-0.553495	-0.250374	0.018682	0.389694	-0.920755	0.607202	-0.736059	-0.299204
04036		-0.805901	-0.540974	-0.240564	0.021889	0.378820	-0.925212	0.591646	-0.750895	-0.293449
04037		-0.818453	-0.526520	-0.230024	0.027336	0.364202	-0.930919	0.573923	-0.768201	-0.283689
04038		-0.831791	-0.510294	-0.218455	0.034090	0.345847	-0.937671	0.554041	-0.787394	-0.270277
04039		-0.846319	-0.491514	-0.205323	0.040640	0.324753	-0.944925	0.531123	-0.808053	-0.254869
04040		-0.861762	-0.470355	-0.190083	0.045035	0.302281	-0.952154	0.505309	-0.829091	-0.239312
04041		-0.878118	-0.446126	-0.172860	0.046813	0.279446	-0.959019	0.476149	-0.850224	-0.224502
04042		-0.894509	-0.419928	-0.153345	0.045211	0.256281	-0.965544	0.444758	-0.870621	-0.210260
04043		-0.910583	-0.391697	-0.131954	0.041289	0.231449	-0.971970	0.411258	-0.890508	-0.194581
04044		-0.925151	-0.363849	-0.108214	0.034747	0.202705	-0.978623	0.378007	-0.909134	-0.174890
04045		-0.938379	-0.335624	-0.082474	0.026434	0.168237	-0.985392	0.344596	-0.926851	-0.148998
04046		-0.949904	-0.307752	-0.054505	0.015651	0.127334	-0.991736	0.312149	-0.942908	-0.116138
04047		-0.960541	-0.276988	-0.025260	0.002050	0.083765	-0.996483	0.278130	-0.957215	-0.079891
04048		-0.969686	-0.244287	0.005661	-0.016152	0.040965	-0.999030	0.243818	-0.968837	-0.043669
04049		-0.977475	-0.207567	0.038192	-0.039414	0.001752	-0.999221	0.207339	-0.978219	-0.009893
04050		-0.982971	-0.168620	0.073047	-0.068712	-0.031411	-0.997142	0.170432	-0.985181	0.019290
04051		-0.985976	-0.126449	0.108912	-0.102276	-0.057855	-0.993072	0.131874	-0.990285	0.044111
04052		-0.985846	-0.083902	0.145150	-0.138448	-0.080860	-0.987063	0.094553	-0.993188	0.068099
04053		-0.982807	-0.040402	0.180163	-0.175043	-0.106575	-0.978776	0.058745	-0.993483	0.097671
04054		-0.976939	0.003309	0.213493	-0.211849	-0.139827	-0.967248	0.026652	-0.990170	0.137304
04055		-0.968448	0.048292	0.244492	-0.249211	-0.181729	-0.951246	-0.001506	-0.982162	0.188030
04056		-0.957392	0.094447	0.272911	-0.287666	-0.228542	-0.930063	-0.025470	-0.968942	0.245973
04057		-0.943703	0.142671	0.298447	-0.327332	-0.272556	-0.904747	-0.047737	-0.951503	0.303913
04058		-0.927363	0.191954	0.321172	-0.367730	-0.309088	-0.877063	-0.069085	-0.931460	0.357224
04059		-0.908514	0.241869	0.340736	-0.407820	-0.335624	-0.849141	-0.091021	-0.910415	0.403558
04060		-0.887859	0.290413	0.356885	-0.446176	-0.353936	-0.821983	-0.112400	-0.889039	0.443820
04061		-0.866457	0.336341	0.368954	-0.481881	-0.370173	-0.794206	-0.130547	-0.865937	0.482815
04062		-0.845889	0.376632	0.377650	-0.514638	-0.390411	-0.763366	-0.140069	-0.840076	0.524074
04063		-0.827174	0.410609	0.383646	-0.545225	-0.421118	-0.724838	-0.136064	-0.808740	0.572212
04064		-0.811712	0.438811	0.385445	-0.571865	-0.462982	-0.677213	-0.118715	-0.770125	0.626749
04065		-0.802103	0.461584	0.378908	-0.589228	-0.508475	-0.627904	-0.097165	-0.726907	0.679827
04066		-0.801298	0.475505	0.363066	-0.592935	-0.550375	-0.587806	-0.079682	-0.686282	0.722958
04067		-0.808269	0.478738	0.342800	-0.585533	-0.592134	-0.553650	-0.062070	-0.648219	0.758920
04068		-0.823799	0.467211	0.321043	-0.565599	-0.639347	-0.520897	-0.038111	-0.610696	0.790948
04069		-0.845285	0.445247	0.295380	-0.534046	-0.686433	-0.493563	-0.016999	-0.574947	0.818014
04070		-0.870055	0.411661	0.271182	-0.492952	-0.728587	-0.475562	0.001809	-0.547445	0.836840
04071		-0.897523	0.365599	0.246555	-0.440536	-0.768117	-0.464676	0.019498	-0.525674	0.850462
04072		-0.921650	0.314870	0.226757	-0.386613	-0.794951	-0.467529	0.033050	-0.518565	0.854399
04073		-0.939556	0.271910	0.208086	-0.340587	-0.804584	-0.486461	0.035149	-0.527929	0.848561
04074		-0.949425	0.228839	0.214998	-0.307085	-0.819559	-0.483759	0.065501	-0.525315	0.848383
04075		-0.951519	0.202095	0.231881	-0.290539	-0.838024	-0.461846	0.100986	-0.506826	0.856113
04076		-0.951574	0.190878	0.240982	-0.283285	-0.848910	-0.446208	0.119401	-0.492867	0.861873
04077		-0.946259	0.191315	0.260755	-0.292736	-0.849404	-0.439112	0.137477	-0.491846	0.859760
04078		-0.938101	0.203988	0.279919	-0.314532	-0.840137	-0.441859	0.145036	-0.502552	0.852294
04079		-0.928750	0.224607	0.294916	-0.341730	-0.827076	-0.446280	0.143680	-0.515264	0.844902
04080		-0.919105	0.248032	0.306148	-0.368557	-0.815953	-0.445406	0.139327	-0.522207	0.841360
04081		-0.910415	0.271502	0.312140	-0.391442	-0.809485	-0.437616	0.133859	-0.520596	0.843245
04082		-0.903063	0.295276	0.311913	-0.410076	-0.808711	-0.421691	0.127732	-0.508722	0.851403
04083		-0.897358	0.319182	0.304749	-0.424822	-0.811756	-0.400723	0.119479	-0.489056	0.864031
04084		-0.892785	0.343367	0.291606	-0.437488	-0.815229	-0.379482	0.107424	-0.466370	0.878043
04085		-0.888955	0.367022	0.273962	-0.448895	-0.816874	-0.362230	0.090846	-0.444986	0.890918
04086		-0.885483	0.389973	0.252667	-0.459447	-0.816094	-0.350570	0.069487	-0.426511	0.901809
04087		-0.882408	0.411388	0.228290	-0.468358	-0.814171	-0.343172	0.044690	-0.409739	0.911107
04088		-0.879524	0.431101	0.201470	-0.475542	-0.811643	-0.339258	0.017267	-0.394193	0.918866
04089		-0.876782	0.448313	0.173982	-0.480771	-0.809189	-0.337745	-0.010631	-0.379775	0.925018
04090		-0.874132	0.462898	0.147030	-0.484203	-0.806912	-0.338291	-0.037954	-0.366904	0.929484
04091		-0.871542	0.474927	0.121896	-0.486101	-0.804372	-0.341601	-0.064186	-0.356974	0.931907
04092		-0.868956	0.484668	0.100065	-0.486844	-0.800860	-0.348721	-0.088876	-0.351739	0.931869
04093		-0.866548	0.492340	0.081825	-0.486368	-0.796244	-0.359780	-0.111982	-0.351564	0.929442
04094		-0.864420	0.498347	0.066545	-0.484607	-0.790606	-0.374296	-0.133919	-0.355798	0.924918
04095		-0.862940	0.502352	0.054565	-0.481536	-0.784805	-0.390134	-0.153162	-0.362938	0.919140
04096		-0.862345	0.504255	0.045693	-0.477063	-0.778964	-0.406972	-0.169625	-0.372748	0.912297
04097		-0.862666	0.504159	0.040394	-0.471447	-0.772624	-0.425194	-0.183156	-0.385844	0.904201
04098		-0.863793	0.502300	0.039458	-0.465195	-0.764996	-0.445393	-0.193536	-0.403082	0.894465
04099		-0.865240	0.499547	0.042574	-0.459186	-0.755508	-0.467285	-0.201266	-0.423863	0.883081
04100		-0.866699	0.496449	0.048688	-0.453769	-0.744104	-0.490308	-0.207184	-0.447043	0.870188
04101		-0.868494	0.492400	0.057102	-0.448560	-0.731639	-0.513321	-0.210981	-0.471430	0.856295
04102		-0.870855	0.486962	0.066927	-0.443301	-0.719255	-0.534936	-0.212356	-0.495521	0.842237
04103		-0.873912	0.479874	0.077445	-0.437878	-0.708016	-0.554054	-0.211044	-0.518106	0.828870
04104		-0.877408	0.471656	0.087724	-0.432388	-0.698247	-0.570518	-0.207835	-0.538508	0.816587
04105		-0.880924	0.463036	0.097832	-0.427162	-0.688956	-0.585553	-0.203730	-0.557617	0.804709
04106		-0.883696	0.455221	0.108882	-0.423645	-0.678989	-0.599583	-0.199013	-0.575976	0.792871
04107		-0.885378	0.449050	0.120244	-0.421872	-0.667490	-0.613581	-0.195267	-0.593979	0.780423
04108		-0.885914	0.444825	0.131479	-0.421879	-0.654886	-0.627010	-0.192806	-0.610946	0.767835
04109		-0.885990	0.441409	0.142054	-0.423230	-0.644605	-0.636680	-0.189467	-0.624214	0.757931
04110		-0.885835	0.438797	0.150839	-0.425486	-0.638511	-0.641300	-0.185088	-0.632266	0.752317
04111		-0.886060	0.435842	0.157925	-0.427665	-0.637072	-0.641282	-0.178888	-0.635753	0.750878
04112		-0.885810	0.434363	0.163305	-0.430812	-0.638980	-0.637264	-0.172455	-0.634849	0.753144
04113		-0.884983	0.434365	0.167727	-0.434831	-0.642153	-0.631317	-0.166516	-0.631637	0.757170
04114		-0.883620	0.435759	0.171258	-0.439247	-0.644886	-0.625448	-0.162102	-0.627883	0.761240
04115		-0.882335	0.437523	0.173373	-0.442757	-0.646836	-0.620942	-0.159533	-0.624641	0.764443
04116		-0.881578	0.438961	0.173589	-0.444779	-0.649303	-0.616909	-0.158087	-0.621063	0.767652
04117		-0.882020	0.438679	0.172049	-0.444721	-0.654267	-0.611685	-0.155768	-0.616032	0.772166
04118		-0.884105	0.435694	0.168903	-0.441765	-0.661484	-0.606039	-0.152321	-0.610418	0.777295
04119		-0.888013	0.429497	0.164208	-0.434849	-0.668339	-0.603514	-0.149461	-0.607335	0.780260
04120		-0.893622	0.420268	0.157528	-0.423390	-0.672889	-0.606599	-0.148935	-0.608765	0.779245
04121		-0.900677	0.408088	0.149146	-0.407361	-0.673741	-0.616547	-0.151120	-0.616066	0.773062
04122		-0.908969	0.393191	0.138480	-0.387022	-0.672543	-0.630793	-0.154888	-0.626966	0.763494
04123		-0.918251	0.375422	0.125989	-0.363080	-0.671171	-0.646299	-0.158075	-0.639209	0.752611
04124		-0.928370	0.354319	0.112189	-0.335994	-0.671108	-0.660850	-0.158860	-0.651208	0.742086
04125		-0.938807	0.330381	0.097419	-0.306443	-0.671989	-0.674183	-0.157273	-0.662781	0.732111
04126		-0.949298	0.303654	0.081413	-0.274175	-0.672945	-0.687003	-0.153825	-0.674492	0.722080
04127		-0.959555	0.274058	0.064390	-0.239212	-0.673142	-0.699756	-0.148430	-0.686857	0.711474
04128		-0.969144	0.242187	0.045883	-0.201555	-0.671451	-0.713112	-0.141898	-0.700357	0.699547
04129		-0.977497	0.209296	0.026365	-0.162141	-0.665484	-0.728589	-0.134945	-0.716468	0.684444
04130		-0.984247	0.176679	0.006499	-0.122370	-0.654249	-0.746314	-0.127606	-0.735352	0.665563
04131		-0.989286	0.145395	-0.013184	-0.083581	-0.638099	-0.765405	-0.119699	-0.756102	0.643414
04132		-0.992723	0.115822	-0.032950	-0.046138	-0.618596	-0.784353	-0.111228	-0.777125	0.619439
04133		-0.994637	0.088867	-0.052921	-0.010636	-0.596825	-0.802301	-0.102883	-0.797435	0.594569
04134		-0.995257	0.064060	-0.073213	0.023187	-0.574692	-0.818041	-0.094478	-0.815858	0.570481
04135		-0.994745	0.041331	-0.093665	0.055201	-0.553981	-0.830697	-0.086222	-0.831502	0.548789
04136		-0.993293	0.020698	-0.113752	0.085064	-0.535517	-0.840229	-0.078308	-0.844271	0.530165
04137		-0.991217	0.002094	-0.132228	0.111966	-0.518771	-0.847549	-0.070371	-0.854911	0.513980
04138		-0.988830	-0.014443	-0.148348	0.135443	-0.502533	-0.853883	-0.062217	-0.864437	0.498876
04139		-0.986487	-0.029797	-0.161110	0.155193	-0.485192	-0.860525	-0.052529	-0.873900	0.483260
04140		-0.984364	-0.044871	-0.170335	0.171455	-0.465752	-0.868146	-0.040380	-0.883777	0.466163
04141		-0.982475	-0.059414	-0.176671	0.184566	-0.442510	-0.877565	-0.026039	-0.894793	0.445721
04142		-0.980843	-0.072893	-0.180645	0.194537	-0.414461	-0.889032	-0.010066	-0.907143	0.420702
04143		-0.979540	-0.085129	-0.182359	0.201111	-0.380301	-0.902732	0.007497	-0.920937	0.389640
04144		-0.978603	-0.095320	-0.182348	0.204164	-0.339701	-0.918107	0.025570	-0.935691	0.351893
04145		-0.978133	-0.102656	-0.180883	0.203427	-0.291176	-0.934791	0.043293	-0.951146	0.305692
04146		-0.978217	-0.106983	-0.177895	0.198701	-0.234534	-0.951584	0.060081	-0.966203	0.250683
04147		-0.978802	-0.108868	-0.173477	0.190401	-0.171621	-0.966589	0.075458	-0.979129	0.188712
04148		-0.979732	-0.109230	-0.167909	0.179372	-0.105283	-0.978131	0.089164	-0.988425	0.122742
04149		-0.980686	-0.109513	-0.162057	0.167197	-0.039448	-0.985134	0.101492	-0.993202	0.056996
04150		-0.981430	-0.109890	-0.157227	0.155749	0.021961	-0.987553	0.111975	-0.993701	-0.004438
04151		-0.981815	-0.110871	-0.154101	0.146118	0.076891	-0.986274	0.121198	-0.990856	-0.059292
04152		-0.981782	-0.112623	-0.153036	0.138723	0.125532	-0.982343	0.129846	-0.985676	-0.107622
04153		-0.981475	-0.114571	-0.153559	0.133067	0.169002	-0.976592	0.137841	-0.978934	-0.150626
04154		-0.981162	-0.115475	-0.154873	0.128397	0.209196	-0.969408	0.144342	-0.971032	-0.190428
04155		-0.981069	-0.114516	-0.156172	0.123837	0.249030	-0.960546	0.148889	-0.961702	-0.230134
04156		-0.981158	-0.112483	-0.157088	0.118665	0.290799	-0.949397	0.152472	-0.950149	-0.271972
04157		-0.981361	-0.109538	-0.157899	0.113135	0.334863	-0.935450	0.155341	-0.935878	-0.316229
04158		-0.981542	-0.106561	-0.158808	0.107096	0.381714	-0.918055	0.158448	-0.918117	-0.363256
04159		-0.981468	-0.104615	-0.160550	0.101047	0.429335	-0.897475	0.162819	-0.897066	-0.410807
04160		-0.981273	-0.103364	-0.162540	0.094540	0.476761	-0.873934	0.167826	-0.872935	-0.458061
04161		-0.981023	-0.102332	-0.164686	0.087846	0.522609	-0.848034	0.172847	-0.846409	-0.503703
04162		-0.980825	-0.101163	-0.166577	0.081209	0.564838	-0.821196	0.177164	-0.818978	-0.545792
04163		-0.980764	-0.098984	-0.168238	0.075552	0.602211	-0.794754	0.179983	-0.792176	-0.583149
04164		-0.980811	-0.096276	-0.169530	0.070661	0.634890	-0.769365	0.181704	-0.766581	-0.615904
04165		-0.980928	-0.092826	-0.170774	0.066907	0.663647	-0.745048	0.182493	-0.742264	-0.644779
04166		-0.981181	-0.090213	-0.170719	0.063008	0.686159	-0.724717	0.182519	-0.721836	-0.667563
04167		-0.981739	-0.088381	-0.168453	0.058321	0.703044	-0.708751	0.181070	-0.705633	-0.685051
04168		-0.983153	-0.088516	-0.159921	0.047742	0.720190	-0.692132	0.176439	-0.688107	-0.703831
04169		-0.984662	-0.097697	-0.144557	0.025157	0.740371	-0.671727	0.172651	-0.665060	-0.726558
04170		-0.988079	-0.106409	-0.111257	-0.008201	0.758032	-0.652166	0.153732	-0.643479	-0.749868
04171		-0.990699	-0.118764	-0.066406	-0.047660	0.759994	-0.648180	0.127449	-0.638987	-0.758586
04172		-0.992038	-0.125875	0.004102	-0.096511	0.738877	-0.666893	0.080914	-0.661979	-0.745142
04173		-0.987576	-0.129634	0.088820	-0.154489	0.697494	-0.699740	0.028759	-0.704768	-0.708855
04174		-0.973772	-0.127960	0.188133	-0.225633	0.649503	-0.726110	-0.029280	-0.749514	-0.661340
04175		-0.947603	-0.115235	0.297943	-0.303830	0.613199	-0.729160	-0.098673	-0.781478	-0.616081
04176		-0.905765	-0.092963	0.413458	-0.386510	0.581303	-0.716029	-0.173780	-0.808360	-0.562455
04177		-0.850268	-0.067020	0.522066	-0.467739	0.551070	-0.691044	-0.241381	-0.831763	-0.499905
04178		-0.781718	-0.041131	0.622274	-0.547664	0.522556	-0.653452	-0.298295	-0.851612	-0.431018
04179		-0.701176	-0.015404	0.712822	-0.621337	0.503562	-0.600305	-0.349703	-0.863822	-0.362657
04180		-0.612826	0.009546	0.790160	-0.683910	0.494517	-0.536396	-0.395868	-0.869116	-0.296524
04181		-0.522751	0.030162	0.851951	-0.734316	0.491706	-0.467980	-0.433025	-0.870239	-0.234891
04182		-0.435058	0.048652	0.899087	-0.771684	0.494344	-0.400159	-0.463926	-0.867904	-0.177524
04183		-0.353820	0.067866	0.932848	-0.798020	0.498285	-0.338932	-0.487827	-0.864353	-0.122145
04184		-0.279949	0.091589	0.955636	-0.817044	0.499920	-0.287263	-0.504052	-0.861215	-0.065120
04185		-0.215088	0.121752	0.968976	-0.832327	0.496160	-0.247098	-0.510852	-0.859652	-0.005381
04186		-0.161870	0.154975	0.974567	-0.846827	0.485223	-0.217813	-0.506638	-0.860547	0.052695
04187		-0.118063	0.190606	0.974541	-0.860215	0.470649	-0.196265	-0.496076	-0.861487	0.108396
04188		-0.084121	0.225080	0.970702	-0.871875	0.455027	-0.181066	-0.482450	-0.861562	0.157964
04189		-0.059255	0.258076	0.964306	-0.881072	0.440580	-0.172052	-0.469257	-0.859817	0.201277
04190		-0.042751	0.288065	0.956656	-0.888204	0.427470	-0.168410	-0.457455	-0.856906	0.237586
04191		-0.033300	0.314505	0.948672	-0.893791	0.415388	-0.169084	-0.447245	-0.853545	0.267269
04192		-0.031191	0.337260	0.940895	-0.896157	0.407446	-0.175755	-0.442639	-0.848671	0.289530
04193		-0.035049	0.357944	0.933085	-0.895902	0.402488	-0.188052	-0.442867	-0.842544	0.306576
04194		-0.045810	0.375738	0.925593	-0.893915	0.398162	-0.205873	-0.445890	-0.836832	0.317638
04195		-0.063417	0.390650	0.918352	-0.890970	0.392408	-0.228449	-0.449612	-0.832712	0.323172
04196		-0.087435	0.403527	0.910780	-0.887011	0.384586	-0.255547	-0.453394	-0.830216	0.324307
04197		-0.118002	0.414388	0.902418	-0.881703	0.374332	-0.287185	-0.456810	-0.829553	0.321195
04198		-0.154145	0.424760	0.892086	-0.873966	0.362548	-0.323638	-0.460893	-0.829541	0.315341
04199		-0.194530	0.435942	0.878700	-0.863497	0.348859	-0.364241	-0.465330	-0.829610	0.308571
04200		-0.238613	0.447575	0.861824	-0.848912	0.334846	-0.408935	-0.471607	-0.829190	0.300053
04201		-0.285403	0.458888	0.841408	-0.828505	0.323202	-0.457295	-0.481792	-0.827624	0.287948
04202		-0.334748	0.468908	0.817355	-0.802647	0.312529	-0.508019	-0.493661	-0.826106	0.271750
04203		-0.386332	0.476211	0.789918	-0.772121	0.301508	-0.559395	-0.504557	-0.826024	0.251210
04204		-0.439446	0.480809	0.758755	-0.738528	0.287444	-0.609879	-0.511335	-0.828371	0.228775
04205		-0.493014	0.482791	0.723775	-0.702059	0.270579	-0.658711	-0.513858	-0.832886	0.205549
04206		-0.547025	0.481196	0.684992	-0.662759	0.250924	-0.705541	-0.511385	-0.839933	0.181655
04207		-0.600350	0.477733	0.641367	-0.620093	0.228382	-0.750550	-0.505039	-0.848300	0.159130
04208		-0.647422	0.475322	0.595746	-0.573428	0.211095	-0.791593	-0.502020	-0.854113	0.135895
04209		-0.691075	0.472676	0.546803	-0.524172	0.193133	-0.829423	-0.497654	-0.859812	0.114294
04210		-0.730646	0.470695	0.494573	-0.471604	0.175872	-0.864094	-0.493707	-0.864589	0.093481
04211		-0.765281	0.468697	0.441213	-0.418275	0.158916	-0.894311	-0.489277	-0.868947	0.074429
04212		-0.796413	0.464222	0.387589	-0.365524	0.141081	-0.920048	-0.481788	-0.874411	0.057325
04213		-0.824687	0.456541	0.333859	-0.314818	0.119858	-0.941554	-0.469873	-0.881592	0.044882
04214		-0.850019	0.445763	0.280646	-0.266238	0.096151	-0.959100	-0.454516	-0.889972	0.036949
04215		-0.872254	0.432289	0.228691	-0.219801	0.071206	-0.972943	-0.436877	-0.898919	0.032908
04216		-0.890882	0.417703	0.178477	-0.174186	0.048730	-0.983506	-0.419511	-0.907276	0.029345
04217		-0.905922	0.402923	0.130224	-0.127980	0.032620	-0.991240	-0.403641	-0.914653	0.022015
04218		-0.917906	0.387923	0.083457	-0.080219	0.024565	-0.996475	-0.388605	-0.921364	0.008571
04219		-0.926925	0.373245	0.038697	-0.031761	0.024717	-0.999190	-0.373900	-0.927403	-0.011056
04220		-0.933263	0.359177	-0.003356	0.016051	0.032367	-0.999347	-0.358834	-0.932708	-0.035972
04221		-0.937572	0.345248	-0.041989	0.060604	0.043296	-0.997222	-0.342471	-0.937512	-0.061516
04222		-0.940616	0.330528	-0.077415	0.100506	0.053324	-0.993506	-0.324253	-0.942289	-0.083378
04223		-0.942917	0.314282	-0.110159	0.136059	0.061630	-0.988782	-0.303967	-0.947327	-0.100873
04224		-0.944575	0.296453	-0.141047	0.168044	0.067516	-0.983465	-0.282028	-0.952658	-0.113591
04225		-0.945554	0.277749	-0.169654	0.196452	0.071468	-0.977905	-0.259487	-0.957992	-0.122142
04226		-0.945581	0.260519	-0.194951	0.221410	0.076113	-0.972206	-0.238439	-0.962464	-0.129652
04227		-0.944863	0.245526	-0.216680	0.243431	0.084053	-0.966269	-0.219031	-0.965739	-0.139187
04228		-0.943608	0.232612	-0.235575	0.263351	0.096181	-0.959893	-0.200625	-0.967802	-0.152016
04229		-0.942138	0.220958	-0.252097	0.281417	0.112686	-0.952946	-0.182153	-0.968752	-0.168347
04230		-0.940558	0.210115	-0.266836	0.297562	0.131054	-0.945665	-0.163729	-0.968853	-0.185786
04231		-0.939106	0.199483	-0.279797	0.311188	0.148349	-0.938698	-0.145747	-0.968607	-0.201392
04232		-0.937755	0.188760	-0.291522	0.322440	0.161350	-0.932737	-0.129027	-0.968677	-0.212171
04233		-0.936449	0.177789	-0.302415	0.331815	0.169132	-0.928059	-0.113851	-0.969425	-0.217376
04234		-0.935143	0.167183	-0.312341	0.339686	0.172781	-0.924532	-0.100600	-0.970668	-0.218364
04235		-0.933911	0.156197	-0.321578	0.346443	0.173381	-0.921909	-0.088244	-0.972390	-0.216035
04236		-0.932974	0.144509	-0.329662	0.351839	0.172871	-0.919959	-0.075954	-0.974286	-0.212128
04237		-0.932610	0.132452	-0.335702	0.355306	0.174044	-0.918404	-0.063217	-0.975789	-0.209376
04238		-0.932933	0.120446	-0.339306	0.356544	0.177876	-0.917189	-0.050117	-0.976654	-0.208891
04239		-0.933895	0.108495	-0.340688	0.355693	0.185010	-0.916108	-0.036363	-0.976729	-0.211371
04240		-0.935355	0.096511	-0.340289	0.353056	0.196251	-0.914788	-0.021505	-0.975793	-0.217638
04241		-0.937137	0.084617	-0.338546	0.348904	0.209642	-0.913409	-0.006316	-0.974110	-0.225987
04242		-0.939266	0.072265	-0.335495	0.343075	0.222963	-0.912462	0.008864	-0.972145	-0.234214
04243		-0.941651	0.059034	-0.331373	0.335758	0.233911	-0.912443	0.023647	-0.970464	-0.240083
04244		-0.944234	0.045317	-0.326142	0.327173	0.240861	-0.913753	0.037147	-0.969501	-0.242256
04245		-0.946948	0.031003	-0.319889	0.317559	0.243434	-0.916458	0.049459	-0.969422	-0.240365
04246		-0.949739	0.016907	-0.312586	0.307259	0.241411	-0.920496	0.059899	-0.970276	-0.234473
04247		-0.952656	0.004005	-0.304023	0.296395	0.235173	-0.925658	0.067791	-0.971945	-0.225226
04248		-0.955697	-0.007885	-0.294247	0.284975	0.225533	-0.931624	0.073708	-0.974204	-0.213294
04249		-0.958899	-0.019092	-0.283103	0.272734	0.213240	-0.938160	0.078280	-0.976813	-0.199269
04250		-0.962227	-0.029640	-0.270630	0.259610	0.199463	-0.944890	0.081987	-0.979457	-0.184234
04251		-0.965654	-0.040089	-0.256720	0.245286	0.185285	-0.951580	0.085714	-0.981867	-0.169088
04252		-0.969165	-0.050826	-0.241113	0.229484	0.170235	-0.958309	0.089753	-0.984092	-0.153322
04253		-0.972654	-0.060625	-0.224206	0.212892	0.153185	-0.964993	0.092847	-0.986336	-0.136089
04254		-0.976118	-0.069651	-0.205771	0.195192	0.134579	-0.971488	0.095358	-0.988452	-0.117770
04255		-0.979523	-0.076942	-0.186052	0.176745	0.113931	-0.977640	0.096418	-0.990505	-0.097999
04256		-0.982935	-0.082028	-0.164649	0.157056	0.091762	-0.983317	0.095768	-0.992397	-0.077313
04257		-0.986343	-0.084484	-0.141383	0.135705	0.069565	-0.988304	0.093331	-0.993994	-0.057150
04258		-0.989714	-0.082910	-0.116586	0.113009	0.046619	-0.992500	0.087723	-0.995466	-0.036770
04259		-0.992731	-0.078961	-0.090833	0.089425	0.021200	-0.995768	0.080552	-0.996652	-0.013985
04260		-0.995187	-0.073950	-0.064295	0.065104	-0.008585	-0.997842	0.073238	-0.997225	0.013359
04261		-0.997069	-0.066906	-0.037106	0.040089	-0.043801	-0.998236	0.065163	-0.996797	0.046355
04262		-0.998318	-0.057274	-0.009014	0.013885	-0.085242	-0.996264	0.056291	-0.994713	0.085894
04263		-0.998818	-0.044383	0.019841	-0.013881	-0.130774	-0.991315	0.046592	-0.990418	0.130003
04264		-0.998376	-0.027764	0.049753	-0.044064	-0.177313	-0.983168	0.036119	-0.983763	0.175802
04265		-0.996739	-0.006758	0.080409	-0.076918	-0.221620	-0.972095	0.024390	-0.975110	0.220377
04266		-0.993550	0.017651	0.112014	-0.112708	-0.262357	-0.958366	0.012472	-0.964809	0.262654
04267		-0.988541	0.045198	0.144025	-0.150949	-0.299849	-0.941969	0.000610	-0.952915	0.303236
04268		-0.981524	0.077046	0.175141	-0.190953	-0.336371	-0.922167	-0.012136	-0.938573	0.344868
04269		-0.972274	0.113808	0.204282	-0.232433	-0.374465	-0.897636	-0.025662	-0.920230	0.390536
04270		-0.960495	0.154598	0.231406	-0.275680	-0.414778	-0.867156	-0.038079	-0.896693	0.441012
04271		-0.945944	0.198295	0.256650	-0.320855	-0.456621	-0.829789	-0.047351	-0.867281	0.495562
04272		-0.928602	0.243158	0.280307	-0.367542	-0.498675	-0.785007	-0.051099	-0.831984	0.552441
04273		-0.909054	0.286568	0.302490	-0.414129	-0.541182	-0.731860	-0.046026	-0.790570	0.610640
04274		-0.888268	0.326905	0.322666	-0.458359	-0.585299	-0.668829	-0.029787	-0.741996	0.669742
04275		-0.868263	0.364644	0.336383	-0.496046	-0.627808	-0.599830	-0.007541	-0.687672	0.725983
04276		-0.852397	0.395482	0.342071	-0.522557	-0.667795	-0.530079	0.018797	-0.630589	0.775889
04277		-0.844557	0.413556	0.340140	-0.533717	-0.701447	-0.472355	0.043245	-0.580469	0.813134
04278		-0.843470	0.421784	0.332651	-0.533723	-0.728130	-0.430077	0.060814	-0.540301	0.839272
04279		-0.849957	0.413376	0.326639	-0.520275	-0.756220	-0.396794	0.082986	-0.507200	0.857824
04280		-0.863655	0.388178	0.321585	-0.490733	-0.793309	-0.360336	0.115242	-0.469019	0.875637
04281		-0.882260	0.347740	0.317322	-0.444897	-0.836250	-0.320549	0.153893	-0.423984	0.892499
04282		-0.903514	0.293189	0.312575	-0.382952	-0.879752	-0.281751	0.192382	-0.374267	0.907146
04283		-0.926914	0.222915	0.301892	-0.308672	-0.910396	-0.275501	0.213428	-0.348552	0.912666
04284		-0.948329	0.137800	0.285803	-0.221923	-0.931847	-0.287074	0.226766	-0.335667	0.914278
04285		-0.962899	0.059652	0.263186	-0.144018	-0.938361	-0.314224	0.228220	-0.340470	0.912138
04286		-0.965479	-0.004286	0.260444	-0.092152	-0.929583	-0.356909	0.243634	-0.368589	0.897098
04287		-0.957600	-0.059664	0.281856	-0.060735	-0.914529	-0.399934	0.281627	-0.400095	0.872129
04288		-0.951526	-0.081896	0.296466	-0.054892	-0.903207	-0.425681	0.302632	-0.421320	0.854929
04289		-0.944359	-0.083922	0.318031	-0.063731	-0.901892	-0.427234	0.322684	-0.423730	0.846361
04290		-0.936935	-0.066081	0.343201	-0.088767	-0.904773	-0.416541	0.338044	-0.420736	0.841848
04291		-0.934865	-0.032727	0.353493	-0.103839	-0.926985	-0.360440	0.339479	-0.373669	0.863207
04292		-0.929198	0.009498	0.369460	-0.136746	-0.937560	-0.319817	0.343353	-0.347695	0.872477
04293		-0.920770	0.055935	0.386074	-0.171195	-0.947217	-0.271058	0.350534	-0.315676	0.881745
04294		-0.911076	0.102162	0.399380	-0.205997	-0.952002	-0.226401	0.357080	-0.288540	0.888391
04295		-0.899647	0.146704	0.411233	-0.238323	-0.954174	-0.180983	0.365837	-0.260827	0.893383
04296		-0.887169	0.189506	0.420735	-0.269675	-0.952796	-0.139485	0.374441	-0.237209	0.896396
04297		-0.874520	0.229617	0.427189	-0.299216	-0.948650	-0.102633	0.381686	-0.217576	0.898319
04298		-0.862449	0.267763	0.429516	-0.328052	-0.941950	-0.071496	0.385439	-0.202565	0.900224
04299		-0.850608	0.303742	0.429194	-0.356943	-0.932934	-0.047176	0.386080	-0.193326	0.901979
04300		-0.838772	0.337017	0.427647	-0.386356	-0.921817	-0.031327	0.383654	-0.191500	0.903403
04301		-0.827209	0.366934	0.425540	-0.414423	-0.909840	-0.021063	0.379445	-0.193777	0.904694
04302		-0.816860	0.392718	0.422507	-0.440768	-0.897441	-0.018000	0.372106	-0.200931	0.906181
04303		-0.808062	0.414531	0.418569	-0.465804	-0.884584	-0.023199	0.360642	-0.213717	0.907889
04304		-0.801111	0.433296	0.412886	-0.490292	-0.870751	-0.037506	0.343270	-0.232481	0.910010
04305		-0.796194	0.449056	0.405492	-0.513615	-0.855873	-0.060675	0.319803	-0.256576	0.912083
04306		-0.793733	0.461318	0.396450	-0.533428	-0.841127	-0.089221	0.292306	-0.282296	0.913710
04307		-0.793624	0.468598	0.388042	-0.548507	-0.827037	-0.123081	0.263250	-0.310524	0.913386
04308		-0.796837	0.471164	0.378228	-0.557957	-0.814011	-0.161459	0.231808	-0.339692	0.911523
04309		-0.802549	0.469676	0.367859	-0.562898	-0.800417	-0.206103	0.197639	-0.372474	0.906753
04310		-0.811383	0.463335	0.356339	-0.561847	-0.786353	-0.256858	0.161197	-0.408618	0.898358
04311		-0.822565	0.452398	0.344562	-0.554958	-0.770860	-0.312726	0.124133	-0.448455	0.885144
04312		-0.836145	0.436801	0.331764	-0.541286	-0.754925	-0.370267	0.088724	-0.489175	0.867661
04313		-0.852140	0.417303	0.315776	-0.520460	-0.738743	-0.428230	0.054575	-0.529261	0.846702
04314		-0.870179	0.394463	0.295274	-0.492280	-0.721751	-0.486555	0.021186	-0.568748	0.822239
04315		-0.889283	0.368898	0.270353	-0.457204	-0.701685	-0.546445	-0.011880	-0.609551	0.792658
04316		-0.908238	0.340993	0.242544	-0.416315	-0.677792	-0.606036	-0.042260	-0.651400	0.757557
04317		-0.926196	0.311675	0.212177	-0.370755	-0.650524	-0.662842	-0.068565	-0.692587	0.718068
04318		-0.942624	0.281034	0.180220	-0.321763	-0.620780	-0.714913	-0.089038	-0.731882	0.675589
04319		-0.957401	0.248954	0.146303	-0.269652	-0.589552	-0.761392	-0.103299	-0.768408	0.631568
04320		-0.970023	0.216308	0.110749	-0.216007	-0.558689	-0.800754	-0.111335	-0.800673	0.588666
04321		-0.980179	0.184051	0.073308	-0.161855	-0.530563	-0.832049	-0.114245	-0.827422	0.549837
04322		-0.987438	0.154049	0.035143	-0.108967	-0.502856	-0.857474	-0.114421	-0.850532	0.513325
04323		-0.991809	0.127723	-0.001367	-0.059796	-0.473736	-0.878635	-0.112869	-0.871356	0.477492
04324		-0.993844	0.104979	-0.035413	-0.014467	-0.439872	-0.897944	-0.109842	-0.891904	0.438683
04325		-0.994125	0.085434	-0.066451	0.026622	-0.402087	-0.915214	-0.104909	-0.911607	0.397451
04326		-0.993121	0.068541	-0.094936	0.063538	-0.365587	-0.928606	-0.098355	-0.928250	0.358717
04327		-0.991120	0.054176	-0.121437	0.096525	-0.335012	-0.937256	-0.091460	-0.940655	0.326808
04328		-0.988396	0.042124	-0.145944	0.125688	-0.312744	-0.941485	-0.085302	-0.948903	0.303820
04329		-0.985281	0.031422	-0.168030	0.151256	-0.297715	-0.942596	-0.079644	-0.954137	0.288581
04330		-0.982123	0.021576	-0.187002	0.173197	-0.285582	-0.942574	-0.073741	-0.958111	0.276739
04331		-0.979312	0.012811	-0.201950	0.190819	-0.273704	-0.942695	-0.067351	-0.961729	0.265598
04332		-0.977164	0.004706	-0.212436	0.203825	-0.261789	-0.943357	-0.060052	-0.965114	0.254851
04333		-0.975697	-0.002984	-0.219105	0.212825	-0.250954	-0.944313	-0.052168	-0.967994	0.245490
04334		-0.974814	-0.010306	-0.222781	0.218581	-0.242441	-0.945222	-0.044270	-0.970111	0.238587
04335		-0.974435	-0.017051	-0.224024	0.221611	-0.236969	-0.945904	-0.036958	-0.971368	0.234689
04336		-0.974581	-0.023220	-0.222831	0.221988	-0.234308	-0.946478	-0.030234	-0.971885	0.233506
04337		-0.975223	-0.028852	-0.219336	0.219920	-0.233974	-0.947043	-0.023995	-0.971815	0.234522
04338		-0.976311	-0.033758	-0.213720	0.215590	-0.235566	-0.947644	-0.018354	-0.971272	0.237263
04339		-0.977790	-0.037665	-0.206174	0.209147	-0.239056	-0.948214	-0.013572	-0.970275	0.241624
04340		-0.979583	-0.040571	-0.196904	0.200808	-0.244520	-0.948623	-0.009660	-0.968795	0.247675
04341		-0.981525	-0.042477	-0.186559	0.191215	-0.252143	-0.948610	-0.006745	-0.966757	0.255607
04342		-0.983528	-0.043778	-0.175373	0.180700	-0.261921	-0.948022	-0.004432	-0.964096	0.265517
04343		-0.985528	-0.044560	-0.163549	0.169491	-0.273549	-0.946807	-0.002549	-0.960825	0.277143
04344		-0.987495	-0.045144	-0.151047	0.157648	-0.286159	-0.945124	-0.000557	-0.957118	0.289697
04345		-0.989325	-0.045821	-0.138333	0.145711	-0.298236	-0.943305	0.001968	-0.953392	0.301729
04346		-0.991004	-0.046685	-0.125427	0.133736	-0.309677	-0.941390	0.005107	-0.949695	0.313134
04347		-0.992518	-0.047786	-0.112356	0.121774	-0.320661	-0.939334	0.008859	-0.945988	0.324081
04348		-0.993875	-0.049099	-0.099003	0.109722	-0.331648	-0.937001	0.013171	-0.942125	0.335004
04349		-0.995062	-0.050243	-0.085599	0.097684	-0.342918	-0.934272	0.017587	-0.938021	0.346133
04350		-0.996079	-0.051320	-0.072058	0.085624	-0.354508	-0.931125	0.022240	-0.933644	0.357512
04351		-0.996916	-0.052232	-0.058562	0.073682	-0.366380	-0.927543	0.026991	-0.928998	0.369099
04352		-0.997578	-0.052821	-0.045252	0.061946	-0.378846	-0.923384	0.031631	-0.923951	0.381201
04353		-0.998076	-0.052979	-0.032222	0.050452	-0.391716	-0.918702	0.036050	-0.918560	0.393635
04354		-0.998430	-0.052553	-0.019408	0.039041	-0.404231	-0.913823	0.040179	-0.913146	0.405648
04355		-0.998645	-0.051597	-0.006843	0.027691	-0.415364	-0.909234	0.044072	-0.908191	0.416230
04356		-0.998729	-0.050088	0.005651	0.016185	-0.424843	-0.905123	0.047736	-0.903881	0.425113
04357		-0.998674	-0.048095	0.018337	0.004292	-0.432813	-0.901473	0.051293	-0.900200	0.432446
04358		-0.998475	-0.045618	0.031076	-0.007811	-0.440558	-0.897690	0.054642	-0.896564	0.439530
04359		-0.998124	-0.042947	0.043642	-0.019739	-0.449008	-0.893310	0.057960	-0.892495	0.447317
04360		-0.997612	-0.040183	0.056172	-0.031494	-0.459160	-0.887795	0.061466	-0.887445	0.456798
04361		-0.996970	-0.037075	0.068387	-0.042903	-0.471261	-0.880950	0.064889	-0.881214	0.468242
04362		-0.996177	-0.034035	0.080456	-0.053935	-0.484870	-0.872921	0.068721	-0.873924	0.481181
04363		-0.995238	-0.031137	0.092363	-0.064576	-0.499167	-0.864096	0.073010	-0.865946	0.494779
04364		-0.994174	-0.028020	0.104079	-0.075002	-0.513654	-0.854713	0.077410	-0.857540	0.508560
04365		-0.992943	-0.025138	0.115896	-0.085300	-0.527544	-0.845235	0.082388	-0.849156	0.521677
04366		-0.991594	-0.022248	0.127461	-0.095286	-0.540867	-0.835693	0.087532	-0.840814	0.534201
04367		-0.990080	-0.019245	0.139179	-0.105406	-0.553230	-0.826333	0.092901	-0.832806	0.545714
04368		-0.988424	-0.015950	0.150875	-0.115477	-0.565901	-0.816346	0.098400	-0.824319	0.557509
04369		-0.986624	-0.011940	0.162576	-0.125611	-0.579971	-0.804894	0.103900	-0.814549	0.570714
04370		-0.984647	-0.007764	0.174384	-0.135340	-0.596976	-0.790761	0.110243	-0.802222	0.586760
04371		-0.982494	-0.003388	0.186262	-0.144522	-0.617034	-0.773551	0.117551	-0.786929	0.605743
04372		-0.980142	0.000821	0.198295	-0.152988	-0.639345	-0.753546	0.126160	-0.768919	0.626775
04373		-0.977480	0.004773	0.210973	-0.161025	-0.663041	-0.731059	0.136394	-0.748567	0.648879
04374		-0.974530	0.007890	0.224119	-0.167918	-0.688090	-0.705929	0.148644	-0.725582	0.671889
04375		-0.971251	0.010860	0.237810	-0.174068	-0.713851	-0.678319	0.162394	-0.700213	0.695219
04376		-0.967567	0.012602	0.252301	-0.178586	-0.740508	-0.647885	0.178667	-0.671929	0.718742
04377		-0.963463	0.014399	0.267456	-0.181970	-0.767906	-0.614172	0.196537	-0.640401	0.742469
04378		-0.958914	0.015192	0.283289	-0.183223	-0.795539	-0.577535	0.216594	-0.605712	0.765637
04379		-0.953898	0.016233	0.299690	-0.182999	-0.822904	-0.537904	0.237885	-0.567949	0.787937
04380		-0.948458	0.017114	0.316440	-0.180925	-0.849054	-0.496361	0.260180	-0.528029	0.808388
04381		-0.942669	0.018031	0.333241	-0.177220	-0.873162	-0.454072	0.282786	-0.487097	0.826298
04382		-0.936441	0.018906	0.350316	-0.172274	-0.894645	-0.412228	0.305615	-0.446377	0.841039
04383		-0.929694	0.019570	0.367814	-0.166206	-0.913433	-0.371506	0.328703	-0.406519	0.852465
04384		-0.922361	0.019973	0.385812	-0.158638	-0.930164	-0.331103	0.352255	-0.366601	0.861115
04385		-0.914482	0.019679	0.404147	-0.148465	-0.945471	-0.289902	0.376405	-0.325112	0.867538
04386		-0.906124	0.018280	0.422617	-0.134655	-0.959561	-0.247206	0.401008	-0.280907	0.871943
04387		-0.897229	0.015466	0.441294	-0.117279	-0.971839	-0.204390	0.425705	-0.235139	0.873776
04388		-0.887853	0.011127	0.459992	-0.096934	-0.981795	-0.163347	0.449801	-0.189617	0.872768
04389		-0.878151	0.005387	0.478353	-0.074721	-0.989208	-0.126031	0.472511	-0.146417	0.869077
04390		-0.868020	-0.001843	0.496525	-0.051430	-0.994281	-0.093600	0.493858	-0.106783	0.862961
04391		-0.857454	-0.011056	0.514442	-0.026806	-0.997452	-0.066117	0.513862	-0.070482	0.854973
04392		-0.846372	-0.022957	0.532098	-0.000283	-0.999051	-0.043553	0.532593	-0.037012	0.845562
04393		-0.834765	-0.037775	0.549309	0.028257	-0.999268	-0.025776	0.549880	-0.005996	0.835222
04394		-0.822655	-0.055033	0.565871	0.058085	-0.998232	-0.012637	0.565566	0.022473	0.824397
04395		-0.809487	-0.074967	0.582332	0.089434	-0.995985	-0.003899	0.580286	0.048924	0.812942
04396		-0.794932	-0.097249	0.598854	0.121190	-0.992629	-0.000325	0.594471	0.072317	0.800858
04397		-0.778892	-0.121074	0.615360	0.152184	-0.988350	-0.001835	0.608414	0.092219	0.788244
04398		-0.761555	-0.146543	0.631315	0.181881	-0.983281	-0.008840	0.622056	0.108092	0.775476
04399		-0.742425	-0.173648	0.647033	0.210315	-0.977408	-0.020991	0.636060	0.120496	0.762173
04400		-0.721325	-0.201796	0.662547	0.237935	-0.970592	-0.036575	0.650444	0.131260	0.748127
04401		-0.698346	-0.230631	0.677585	0.265399	-0.962619	-0.054118	0.664738	0.142037	0.733450
04402		-0.673953	-0.259860	0.691563	0.292457	-0.953468	-0.073263	0.678422	0.152876	0.718591
04403		-0.648392	-0.289345	0.704179	0.318609	-0.943195	-0.094187	0.691431	0.163288	0.703748
04404		-0.621690	-0.319253	0.715248	0.343779	-0.931725	-0.117067	0.703788	0.173108	0.688996
04405		-0.593825	-0.348747	0.725085	0.367386	-0.919277	-0.141269	0.715821	0.182497	0.674015
04406		-0.564926	-0.377197	0.733881	0.389240	-0.906045	-0.166056	0.727565	0.191846	0.658668
04407		-0.534682	-0.404193	0.742121	0.409016	-0.892255	-0.191275	0.739474	0.201268	0.642394
04408		-0.503828	-0.429428	0.749499	0.425778	-0.878404	-0.217068	0.751579	0.209755	0.625406
04409		-0.473683	-0.452984	0.755268	0.438798	-0.864947	-0.243564	0.763597	0.216038	0.608479
04410		-0.445329	-0.475600	0.758608	0.449593	-0.851481	-0.269898	0.774305	0.220872	0.593016
04411		-0.418479	-0.497547	0.759817	0.459613	-0.837578	-0.295329	0.783346	0.225633	0.579188
04412		-0.392528	-0.518210	0.759856	0.467876	-0.823784	-0.320111	0.791842	0.229866	0.565816
04413		-0.367124	-0.537559	0.759111	0.473576	-0.810428	-0.344866	0.800591	0.232888	0.552102
04414		-0.343114	-0.555209	0.757638	0.476506	-0.797993	-0.368985	0.809454	0.234415	0.538363
04415		-0.321252	-0.570333	0.755988	0.477795	-0.786862	-0.390590	0.817624	0.235729	0.525283
04416		-0.302114	-0.582896	0.754294	0.477058	-0.777505	-0.409758	0.825314	0.236049	0.512970
04417		-0.287918	-0.592191	0.752604	0.471084	-0.771805	-0.427080	0.833776	0.231576	0.501188
04418		-0.277361	-0.597194	0.752615	0.459317	-0.770453	-0.442076	0.843860	0.223074	0.487995
04419		-0.271461	-0.597253	0.754717	0.443692	-0.773524	-0.452546	0.854076	0.212013	0.474978
04420		-0.271157	-0.592300	0.758719	0.425497	-0.780811	-0.457479	0.863381	0.198784	0.463744
04421		-0.275552	-0.582888	0.764403	0.410728	-0.790339	-0.454606	0.869122	0.188694	0.457188
04422		-0.284382	-0.570612	0.770408	0.402627	-0.800371	-0.444182	0.870068	0.183869	0.457355
04423		-0.296935	-0.556194	0.776194	0.402750	-0.809965	-0.426321	0.865807	0.186022	0.464514
04424		-0.312364	-0.539701	0.781762	0.409980	-0.818944	-0.401556	0.856939	0.195075	0.477075
04425		-0.329235	-0.520671	0.787722	0.418409	-0.828305	-0.372618	0.846486	0.206911	0.490561
04426		-0.346399	-0.498427	0.794719	0.421772	-0.839464	-0.342650	0.837924	0.216497	0.501012
04427		-0.363549	-0.472358	0.802939	0.418735	-0.852794	-0.312095	0.832162	0.222756	0.507825
04428		-0.380635	-0.442004	0.812250	0.409352	-0.868157	-0.280597	0.829185	0.225691	0.511386
04429		-0.398153	-0.408523	0.821330	0.398614	-0.883458	-0.246190	0.826185	0.229373	0.514594
04430		-0.416178	-0.374114	0.828755	0.390457	-0.896656	-0.208689	0.821182	0.236742	0.519244
04431		-0.432806	-0.342298	0.833973	0.387149	-0.906030	-0.170955	0.814122	0.248882	0.524656
04432		-0.445815	-0.314889	0.837910	0.388132	-0.911508	-0.136040	0.806599	0.264572	0.528583
04433		-0.455477	-0.292595	0.840791	0.395186	-0.912746	-0.103553	0.797727	0.285103	0.531364
04434		-0.462173	-0.275456	0.842924	0.406174	-0.910720	-0.074907	0.788301	0.307754	0.532793
04435		-0.464748	-0.264049	0.845155	0.416727	-0.907406	-0.054341	0.781248	0.326945	0.531751
04436		-0.464126	-0.258150	0.847317	0.425576	-0.903934	-0.042286	0.776835	0.340972	0.529401
04437		-0.460833	-0.259076	0.848830	0.434002	-0.900064	-0.039092	0.774129	0.350379	0.527218
04438		-0.455516	-0.265818	0.849615	0.442536	-0.895720	-0.042980	0.772442	0.356407	0.525649
04439		-0.446516	-0.278012	0.850490	0.451021	-0.890853	-0.054415	0.772790	0.359291	0.523169
04440		-0.435780	-0.294923	0.850363	0.461601	-0.884310	-0.070142	0.772671	0.361962	0.521501
04441		-0.421796	-0.314773	0.850297	0.468903	-0.878386	-0.092569	0.776027	0.359661	0.518098
04442		-0.402477	-0.339633	0.850095	0.473991	-0.871772	-0.123882	0.783163	0.353078	0.511851
04443		-0.384793	-0.366030	0.847323	0.487899	-0.859932	-0.149908	0.783511	0.355724	0.509481
04444		-0.362464	-0.391412	0.845823	0.499716	-0.847677	-0.178125	0.786705	0.358108	0.502847
04445		-0.332932	-0.424171	0.842161	0.510376	-0.832042	-0.217307	0.792888	0.357470	0.493500
04446		-0.307724	-0.461339	0.832149	0.516775	-0.815384	-0.260944	0.798905	0.349736	0.489322
04447		-0.280924	-0.493827	0.822932	0.518559	-0.799623	-0.302819	0.807575	0.341670	0.480712
04448		-0.252338	-0.522011	0.814758	0.513824	-0.785773	-0.344304	0.819945	0.331761	0.466502
04449		-0.225178	-0.553686	0.801702	0.512386	-0.767159	-0.385913	0.828707	0.323882	0.456448
04450		-0.195231	-0.583299	0.788446	0.510765	-0.746762	-0.425988	0.837260	0.319544	0.443720
04451		-0.167303	-0.610475	0.774164	0.507897	-0.726386	-0.463039	0.845015	0.315728	0.431585
04452		-0.141848	-0.635894	0.758629	0.503344	-0.706240	-0.497865	0.852364	0.311231	0.420252
04453		-0.118361	-0.659873	0.741996	0.497772	-0.686006	-0.530677	0.859193	0.306533	0.409663
04454		-0.097346	-0.681315	0.725489	0.491845	-0.666648	-0.560061	0.865224	0.302309	0.399997
04455		-0.080147	-0.698114	0.711487	0.483696	-0.651350	-0.584621	0.871559	0.297288	0.389879
04456		-0.067000	-0.710112	0.700894	0.474591	-0.640597	-0.603654	0.877653	0.292193	0.379933
04457		-0.059103	-0.717705	0.693835	0.464649	-0.634944	-0.617209	0.883520	0.285911	0.371008
04458		-0.057077	-0.721181	0.690391	0.455545	-0.634148	-0.624768	0.888381	0.278845	0.364726
04459		-0.060903	-0.721049	0.690202	0.450028	-0.637051	-0.625812	0.890935	0.272496	0.363291
04460		-0.069999	-0.717403	0.693133	0.449630	-0.642942	-0.620047	0.890468	0.268251	0.367571
04461		-0.079985	-0.710886	0.698745	0.453608	-0.650161	-0.609533	0.887605	0.268202	0.374466
04462		-0.093706	-0.703376	0.704614	0.457893	-0.658883	-0.596831	0.884055	0.266711	0.383812
04463		-0.109627	-0.693875	0.711702	0.461714	-0.669629	-0.581736	0.880228	0.264829	0.393782
04464		-0.127285	-0.683381	0.718881	0.466314	-0.680912	-0.564722	0.875414	0.263343	0.405340
04465		-0.145566	-0.672809	0.725354	0.474568	-0.690795	-0.545516	0.868099	0.264821	0.419850
04466		-0.163475	-0.662251	0.731232	0.484770	-0.699470	-0.525109	0.859229	0.268637	0.435385
04467		-0.180566	-0.651752	0.736624	0.494001	-0.707713	-0.505079	0.850505	0.272693	0.449756
04468		-0.196470	-0.641455	0.741576	0.502170	-0.715424	-0.485792	0.842155	0.276953	0.462679
04469		-0.211305	-0.631384	0.746127	0.508252	-0.723019	-0.467892	0.834883	0.280353	0.473680
04470		-0.225341	-0.621278	0.750490	0.511022	-0.731207	-0.451877	0.829504	0.281690	0.482258
04471		-0.238519	-0.610947	0.754886	0.510608	-0.740099	-0.437645	0.826068	0.281064	0.488482
04472		-0.251381	-0.600071	0.759422	0.506847	-0.750049	-0.424890	0.824568	0.278102	0.492693
04473		-0.264245	-0.588458	0.764128	0.499998	-0.761090	-0.413212	0.824728	0.272874	0.495342
04474		-0.277159	-0.576382	0.768743	0.491002	-0.772693	-0.402320	0.825893	0.265948	0.497164
04475		-0.290281	-0.563863	0.773173	0.481626	-0.784257	-0.391124	0.826906	0.258845	0.499226
04476		-0.303848	-0.550929	0.777273	0.473536	-0.795266	-0.378570	0.826705	0.253039	0.502524
04477		-0.318369	-0.537708	0.780712	0.467474	-0.805516	-0.364159	0.824688	0.249025	0.507816
04478		-0.334189	-0.524205	0.783279	0.463933	-0.814899	-0.347428	0.820417	0.247282	0.515526
04479		-0.351318	-0.510601	0.784769	0.462600	-0.823404	-0.328645	0.813988	0.247575	0.525481
04480		-0.369761	-0.496851	0.785122	0.462282	-0.831374	-0.308404	0.805960	0.248912	0.537095
04481		-0.389321	-0.482997	0.784311	0.462482	-0.838882	-0.287034	0.796580	0.250981	0.549971
04482		-0.409305	-0.469225	0.782494	0.462419	-0.846001	-0.265427	0.786535	0.253200	0.563251
04483		-0.429399	-0.455697	0.779716	0.461081	-0.852982	-0.244593	0.776545	0.254484	0.576382
04484		-0.449432	-0.442346	0.776106	0.457707	-0.860116	-0.225176	0.767147	0.254028	0.589029
04485		-0.469391	-0.429438	0.771528	0.452089	-0.867436	-0.207774	0.758477	0.251272	0.601311
04486		-0.488985	-0.417266	0.766017	0.444095	-0.874923	-0.193102	0.750781	0.245761	0.613130
04487		-0.508304	-0.405703	0.759626	0.433831	-0.882609	-0.181087	0.743920	0.237502	0.624641
04488		-0.527563	-0.394939	0.752130	0.422346	-0.890129	-0.171157	0.737090	0.227363	0.636400
04489		-0.546726	-0.385209	0.743441	0.409870	-0.897363	-0.163545	0.730135	0.215299	0.648497
04490		-0.566012	-0.376558	0.733372	0.397039	-0.904134	-0.157806	0.722489	0.201857	0.661259
04491		-0.586155	-0.369309	0.721134	0.384260	-0.910314	-0.153856	0.713279	0.186920	0.675496
04492		-0.606301	-0.363911	0.707084	0.372490	-0.915537	-0.151797	0.702602	0.171347	0.690645
04493		-0.625405	-0.360669	0.691944	0.362743	-0.919505	-0.151421	0.690859	0.156299	0.705893
04494		-0.643989	-0.359282	0.675422	0.354355	-0.922532	-0.152864	0.678019	0.140896	0.721414
04495		-0.662269	-0.359100	0.657607	0.346535	-0.924957	-0.156101	0.664314	0.124503	0.737011
04496		-0.679721	-0.360196	0.638935	0.338224	-0.926892	-0.162716	0.650833	0.105501	0.751855
04497		-0.695830	-0.362904	0.619775	0.328642	-0.928190	-0.174523	0.638604	0.082246	0.765128
04498		-0.710638	-0.367544	0.599921	0.317540	-0.928462	-0.192684	0.627824	0.053571	0.776510
04499		-0.724921	-0.374548	0.578104	0.305669	-0.927009	-0.217302	0.617297	0.019182	0.786496
04500		-0.739067	-0.383691	0.553680	0.293264	-0.923219	-0.248318	0.606445	-0.021150	0.794844
04501		-0.752824	-0.393980	0.527291	0.280689	-0.916749	-0.284228	0.595374	-0.065969	0.800736
04502		-0.766578	-0.404969	0.498356	0.268738	-0.907160	-0.323790	0.583214	-0.114283	0.804239
04503		-0.780143	-0.416815	0.466522	0.257930	-0.893688	-0.367142	0.569956	-0.166093	0.804713
04504		-0.792691	-0.429905	0.432229	0.249018	-0.875503	-0.414107	0.556445	-0.220627	0.801058
04505		-0.804211	-0.444020	0.395083	0.243698	-0.852638	-0.462189	0.542084	-0.275417	0.793908
04506		-0.814081	-0.458952	0.355860	0.242848	-0.825633	-0.509269	0.527539	-0.328166	0.783587
04507		-0.821810	-0.474734	0.315049	0.246641	-0.794871	-0.554390	0.513611	-0.377899	0.770322
04508		-0.827024	-0.491025	0.273726	0.253889	-0.760665	-0.597436	0.501570	-0.424598	0.753753
04509		-0.830218	-0.506881	0.231970	0.262911	-0.722995	-0.638870	0.491545	-0.469414	0.733508
04510		-0.831788	-0.521644	0.189781	0.273537	-0.682682	-0.677586	0.483019	-0.511696	0.710535
04511		-0.832131	-0.534883	0.146487	0.285393	-0.639495	-0.713861	0.475510	-0.552219	0.684795
04512		-0.831210	-0.546654	0.101286	0.298572	-0.592605	-0.748113	0.468982	-0.591598	0.655795
04513		-0.828879	-0.556889	0.053228	0.314011	-0.541891	-0.779584	0.462986	-0.629467	0.624032
04514		-0.824491	-0.565873	0.001503	0.332605	-0.486759	-0.807737	0.457809	-0.665472	0.589540
04515		-0.816874	-0.574348	-0.053302	0.354417	-0.426864	-0.831971	0.455088	-0.698506	0.552253
04516		-0.805308	-0.582397	-0.110874	0.379462	-0.362660	-0.851168	0.455508	-0.727525	0.513050
04517		-0.789679	-0.589299	-0.170687	0.407579	-0.295950	-0.863883	0.458570	-0.751758	0.473891
04518		-0.770214	-0.594151	-0.231850	0.438282	-0.228985	-0.869181	0.463335	-0.771071	0.436773
04519		-0.748988	-0.594134	-0.293293	0.468402	-0.161708	-0.868591	0.468632	-0.787943	0.399411
04520		-0.727689	-0.587369	-0.354212	0.495395	-0.092899	-0.863686	0.474397	-0.803970	0.358581
04521		-0.706461	-0.575757	-0.411604	0.519933	-0.027617	-0.853761	0.480191	-0.817154	0.318865
04522		-0.683802	-0.561984	-0.465391	0.542703	0.034627	-0.839211	0.487738	-0.826423	0.281313
04523		-0.658343	-0.547511	-0.516542	0.563996	0.095658	-0.820218	0.498490	-0.831313	0.245818
04524		-0.630314	-0.531262	-0.566096	0.584507	0.155151	-0.796417	0.510937	-0.832880	0.212733
04525		-0.599770	-0.512912	-0.614164	0.604703	0.212123	-0.767683	0.524032	-0.831820	0.182935
04526		-0.566675	-0.492085	-0.660857	0.625868	0.264578	-0.733681	0.535882	-0.829368	0.158050
04527		-0.531808	-0.468976	-0.705154	0.646978	0.312288	-0.695626	0.546443	-0.826158	0.137340
04528		-0.496169	-0.442618	-0.746931	0.666992	0.356427	-0.654280	0.555822	-0.822830	0.118375
04529		-0.458952	-0.415440	-0.785349	0.682390	0.401230	-0.611030	0.568952	-0.816348	0.099346
04530		-0.419687	-0.386151	-0.821432	0.693696	0.447178	-0.564640	0.585362	-0.806796	0.080196
04531		-0.379783	-0.351742	-0.855595	0.700040	0.495341	-0.514374	0.604739	-0.794301	0.058112
04532		-0.338016	-0.318621	-0.885566	0.698815	0.545302	-0.462930	0.630400	-0.775324	0.038336
04533		-0.296313	-0.286987	-0.910954	0.693191	0.591510	-0.411829	0.657028	-0.753495	0.023664
04534		-0.251716	-0.254057	-0.933860	0.688605	0.631012	-0.357276	0.680045	-0.732993	0.016109
04535		-0.209586	-0.223679	-0.951862	0.679797	0.666387	-0.306276	0.702816	-0.711264	0.012391
04536		-0.175606	-0.188993	-0.966149	0.678349	0.687998	-0.257878	0.713446	-0.700671	0.007386
04537		-0.140206	-0.157295	-0.977548	0.678601	0.703681	-0.210557	0.721002	-0.692886	0.008081
04538		-0.105236	-0.129384	-0.985995	0.686349	0.708036	-0.166164	0.719618	-0.694223	0.014292
04539		-0.076896	-0.105162	-0.991478	0.689827	0.712378	-0.129060	0.719879	-0.693872	0.017765
04540		-0.058000	-0.083877	-0.994787	0.692015	0.714837	-0.100619	0.719550	-0.694243	0.016584
04541		-0.045890	-0.067310	-0.996676	0.695296	0.714230	-0.080248	0.717257	-0.696667	0.014024
04542		-0.039940	-0.054677	-0.997705	0.697857	0.713095	-0.067016	0.715123	-0.698932	0.009676
04543		-0.039714	-0.045119	-0.998192	0.699007	0.712591	-0.060020	0.714011	-0.700127	0.003239
04544		-0.043730	-0.038596	-0.998298	0.698854	0.712895	-0.058175	0.713926	-0.700208	-0.004202
04545		-0.050684	-0.035032	-0.998100	0.699084	0.712475	-0.060507	0.713241	-0.700823	-0.011621
04546		-0.059709	-0.033930	-0.997639	0.699299	0.711770	-0.066061	0.712331	-0.701593	-0.018772
04547		-0.070155	-0.035070	-0.996919	0.698576	0.711678	-0.074196	0.712088	-0.701630	-0.025429
04548		-0.081139	-0.038065	-0.995976	0.696214	0.712907	-0.083965	0.713234	-0.700225	-0.031343
04549		-0.092025	-0.042337	-0.994856	0.692404	0.715296	-0.094488	0.715617	-0.697538	-0.036510
04550		-0.102549	-0.046752	-0.993629	0.688035	0.718071	-0.104797	0.718395	-0.694398	-0.041470
04551		-0.112310	-0.050767	-0.992376	0.684276	0.720212	-0.114285	0.720523	-0.691894	-0.046148
04552		-0.120899	-0.054057	-0.991192	0.682332	0.720700	-0.122531	0.720976	-0.691136	-0.050247
04553		-0.128207	-0.056208	-0.990153	0.682809	0.719077	-0.129231	0.719260	-0.692654	-0.053811
04554		-0.133955	-0.057157	-0.989338	0.685705	0.715406	-0.134175	0.715447	-0.696368	-0.056639
04555		-0.137961	-0.056968	-0.988798	0.690554	0.710137	-0.137262	0.710002	-0.701755	-0.058632
04556		-0.140111	-0.055944	-0.988554	0.696782	0.703767	-0.138584	0.703465	-0.708224	-0.059625
04557		-0.140325	-0.054028	-0.988630	0.703851	0.696818	-0.137985	0.696350	-0.715211	-0.059754
04558		-0.138826	-0.051431	-0.988980	0.711315	0.689646	-0.135713	0.689027	-0.722318	-0.059157
04559		-0.135691	-0.048195	-0.989578	0.718804	0.682603	-0.131807	0.681842	-0.729198	-0.057981
04560		-0.131198	-0.044519	-0.990356	0.726260	0.675665	-0.126584	0.674784	-0.735863	-0.056313
04561		-0.125692	-0.040238	-0.991253	0.733422	0.669070	-0.120158	0.668052	-0.742110	-0.054586
04562		-0.119520	-0.035656	-0.992191	0.740641	0.662327	-0.113020	0.661185	-0.748366	-0.052753
04563		-0.112832	-0.031053	-0.993129	0.748490	0.654699	-0.105509	0.653477	-0.755251	-0.050628
04564		-0.105983	-0.026729	-0.994009	0.757206	0.645768	-0.098099	0.644521	-0.763066	-0.048201
04565		-0.099054	-0.022816	-0.994820	0.766885	0.635310	-0.090930	0.634094	-0.771920	-0.045433
04566		-0.092064	-0.019713	-0.995558	0.777252	0.623527	-0.084223	0.622417	-0.781553	-0.042082
04567		-0.085184	-0.017393	-0.996213	0.787692	0.611108	-0.078023	0.610152	-0.791356	-0.038356
04568		-0.078625	-0.016100	-0.996774	0.797604	0.598798	-0.072586	0.598035	-0.800738	-0.034239
04569		-0.072708	-0.015801	-0.997228	0.806437	0.587385	-0.068104	0.586833	-0.809154	-0.029966
04570		-0.067864	-0.016647	-0.997556	0.813895	0.577364	-0.065005	0.577035	-0.816317	-0.025633
04571		-0.064271	-0.018530	-0.997760	0.819606	0.569412	-0.063370	0.569311	-0.821844	-0.021410
04572		-0.062457	-0.021461	-0.997817	0.823221	0.564140	-0.063662	0.564275	-0.825400	-0.017568
04573		-0.062500	-0.025126	-0.997729	0.824771	0.561625	-0.065809	0.562003	-0.827010	-0.014378
04574		-0.064533	-0.029633	-0.997476	0.824427	0.561620	-0.070022	0.562277	-0.826864	-0.011813
04575		-0.068601	-0.034629	-0.997043	0.822392	0.563800	-0.076166	0.564770	-0.825185	-0.010198
04576		-0.074900	-0.039984	-0.996389	0.818990	0.567575	-0.084341	0.568898	-0.822350	-0.009765
04577		-0.083203	-0.045475	-0.995495	0.814630	0.572276	-0.094228	0.573982	-0.818799	-0.010570
04578		-0.093321	-0.051282	-0.994314	0.809786	0.577114	-0.105767	0.579257	-0.815052	-0.012329
04579		-0.104916	-0.057252	-0.992832	0.804725	0.581684	-0.118581	0.584303	-0.811397	-0.014956
04580		-0.117857	-0.063349	-0.991008	0.799604	0.585720	-0.132536	0.588849	-0.808034	-0.018377
04581		-0.131838	-0.069434	-0.988837	0.794585	0.589014	-0.147298	0.592666	-0.805135	-0.022483
04582		-0.146622	-0.075534	-0.986304	0.789791	0.591405	-0.162701	0.595594	-0.802829	-0.027057
04583		-0.162023	-0.081623	-0.983405	0.785237	0.592884	-0.178583	0.597621	-0.801141	-0.031968
04584		-0.177857	-0.087600	-0.980150	0.781050	0.593322	-0.194756	0.598605	-0.800185	-0.037106
04585		-0.193754	-0.093391	-0.976595	0.777516	0.592440	-0.210911	0.598272	-0.800183	-0.042175
04586		-0.209598	-0.099054	-0.972758	0.774826	0.590002	-0.227029	0.596417	-0.801303	-0.046913
04587		-0.225107	-0.104361	-0.968729	0.772992	0.586129	-0.242766	0.593136	-0.803468	-0.051272
04588		-0.240266	-0.109416	-0.964521	0.771911	0.580941	-0.258188	0.588579	-0.806558	-0.055121
04589		-0.254834	-0.114024	-0.960239	0.771543	0.574627	-0.272991	0.582907	-0.810433	-0.058460
04590		-0.268826	-0.118256	-0.955902	0.771541	0.567660	-0.287205	0.576591	-0.814726	-0.061362
04591		-0.282261	-0.122008	-0.951548	0.771640	0.560462	-0.300757	0.570001	-0.819144	-0.064050
04592		-0.295152	-0.125511	-0.947171	0.771603	0.553335	-0.313766	0.563484	-0.823448	-0.066473
04593		-0.307436	-0.128686	-0.942827	0.771254	0.546650	-0.326101	0.557361	-0.827414	-0.068811
04594		-0.319259	-0.131510	-0.938498	0.770487	0.540561	-0.337853	0.551746	-0.830963	-0.071252
04595		-0.330468	-0.133913	-0.934269	0.769415	0.535073	-0.348851	0.546617	-0.834125	-0.073790
04596		-0.341118	-0.136062	-0.930121	0.768187	0.529933	-0.359250	0.541782	-0.837053	-0.076249
04597		-0.350991	-0.137750	-0.926191	0.767038	0.525038	-0.368766	0.537082	-0.839858	-0.078624
04598		-0.360218	-0.139064	-0.922445	0.765967	0.520332	-0.377556	0.532482	-0.842565	-0.080915
04599		-0.368613	-0.139852	-0.919003	0.765210	0.515674	-0.385401	0.527804	-0.845294	-0.083068
04600		-0.376324	-0.140381	-0.915791	0.764798	0.510845	-0.392583	0.522938	-0.848134	-0.084880
04601		-0.383199	-0.140660	-0.912893	0.764711	0.506009	-0.398964	0.518050	-0.850982	-0.086338
04602		-0.389330	-0.140776	-0.910277	0.764789	0.501361	-0.404641	0.513341	-0.853709	-0.087531
04603		-0.394611	-0.140662	-0.908018	0.765061	0.497003	-0.409475	0.508885	-0.856272	-0.088508
04604		-0.399077	-0.140352	-0.906112	0.765485	0.492999	-0.413504	0.504748	-0.858635	-0.089307
04605		-0.402843	-0.139822	-0.904526	0.766019	0.489375	-0.416805	0.500931	-0.860791	-0.090035
04606		-0.405951	-0.139003	-0.903262	0.766716	0.486069	-0.419384	0.497343	-0.862795	-0.090745
04607		-0.408356	-0.138087	-0.902318	0.767449	0.483268	-0.421277	0.494235	-0.864514	-0.091371
04608		-0.410144	-0.137085	-0.901660	0.768155	0.481031	-0.422549	0.491651	-0.865920	-0.091989
04609		-0.411293	-0.135867	-0.901320	0.768932	0.479276	-0.423129	0.489471	-0.867084	-0.092650
04610		-0.411927	-0.134449	-0.901243	0.769782	0.477904	-0.423135	0.487598	-0.868062	-0.093365
04611		-0.411993	-0.132842	-0.901451	0.770794	0.476797	-0.422541	0.485940	-0.868918	-0.094043
04612		-0.411497	-0.131025	-0.901944	0.771985	0.475930	-0.421344	0.484468	-0.869669	-0.094695
04613		-0.410346	-0.129079	-0.902749	0.773381	0.475291	-0.419501	0.483217	-0.870309	-0.095207
04614		-0.408675	-0.127095	-0.903787	0.774875	0.474910	-0.417168	0.482237	-0.870808	-0.095601
04615		-0.406386	-0.125109	-0.905095	0.776540	0.474715	-0.414284	0.481493	-0.871202	-0.095765
04616		-0.403594	-0.123150	-0.906613	0.778276	0.474767	-0.410953	0.481039	-0.871453	-0.095769
04617		-0.400359	-0.121151	-0.908314	0.779971	0.475239	-0.407176	0.480996	-0.871476	-0.095772
04618		-0.396668	-0.119137	-0.910198	0.781605	0.476155	-0.402951	0.481402	-0.871254	-0.095757
04619		-0.392567	-0.117031	-0.912247	0.783178	0.477498	-0.398282	0.482207	-0.870804	-0.095793
04620		-0.388068	-0.114888	-0.914442	0.784725	0.479151	-0.393218	0.483332	-0.870181	-0.095788
04621		-0.383229	-0.112620	-0.916762	0.786205	0.481168	-0.387762	0.484786	-0.869364	-0.095855
04622		-0.377994	-0.110304	-0.919214	0.787717	0.483360	-0.381923	0.486438	-0.868445	-0.095819
04623		-0.372378	-0.108020	-0.921774	0.789139	0.485883	-0.375735	0.488461	-0.867323	-0.095689
04624		-0.366374	-0.105714	-0.924443	0.790491	0.488708	-0.369172	0.490809	-0.866019	-0.095484
04625		-0.360084	-0.103306	-0.927182	0.791815	0.491701	-0.362298	0.493324	-0.864614	-0.095254
04626		-0.353427	-0.100818	-0.930013	0.793250	0.494646	-0.355076	0.495826	-0.863227	-0.094847
04627		-0.346393	-0.098375	-0.932917	0.794779	0.497518	-0.347565	0.498335	-0.861857	-0.094151
04628		-0.338958	-0.095919	-0.935899	0.796432	0.500286	-0.339720	0.500803	-0.860531	-0.093183
04629		-0.331285	-0.093499	-0.938887	0.798048	0.503090	-0.331691	0.503358	-0.859161	-0.092050
04630		-0.323278	-0.091073	-0.941911	0.799667	0.505926	-0.323376	0.505988	-0.857755	-0.090727
04631		-0.315070	-0.088786	-0.944906	0.801031	0.509086	-0.314931	0.509000	-0.856124	-0.089277
04632		-0.306660	-0.086455	-0.947885	0.802114	0.512659	-0.306259	0.512419	-0.854229	-0.087865
04633		-0.298213	-0.084132	-0.950784	0.802836	0.516656	-0.297526	0.516259	-0.852050	-0.086530
04634		-0.289701	-0.081816	-0.953614	0.803262	0.520971	-0.288722	0.520427	-0.849645	-0.085206
04635		-0.281264	-0.079539	-0.956329	0.803378	0.525537	-0.279989	0.524856	-0.847045	-0.083914
04636		-0.272842	-0.077296	-0.958949	0.803297	0.530202	-0.271293	0.529406	-0.844341	-0.082570
04637		-0.264471	-0.075139	-0.961462	0.803094	0.534814	-0.262705	0.533943	-0.841622	-0.081099
04638		-0.256177	-0.073055	-0.963865	0.802816	0.539299	-0.254249	0.538386	-0.838939	-0.079507
04639		-0.248126	-0.071039	-0.966120	0.802553	0.543465	-0.246079	0.542533	-0.836421	-0.077835
04640		-0.240228	-0.069125	-0.968252	0.802438	0.547153	-0.238151	0.546245	-0.834173	-0.075974
04641		-0.232670	-0.067261	-0.970227	0.802443	0.550377	-0.230589	0.549500	-0.832203	-0.074083
04642		-0.225443	-0.065473	-0.972054	0.802605	0.553100	-0.223398	0.552269	-0.830538	-0.072144
04643		-0.218599	-0.063745	-0.973730	0.802851	0.555441	-0.216599	0.554657	-0.829109	-0.070242
04644		-0.212188	-0.062245	-0.975245	0.803176	0.557379	-0.210325	0.556673	-0.827921	-0.068275
04645		-0.206251	-0.060851	-0.976605	0.803480	0.559097	-0.204525	0.558463	-0.826866	-0.066422
04646		-0.200754	-0.059661	-0.977823	0.803721	0.560665	-0.199218	0.560117	-0.825890	-0.064605
04647		-0.195774	-0.058605	-0.978896	0.803712	0.562365	-0.194406	0.561890	-0.824810	-0.062995
04648		-0.191258	-0.057679	-0.979844	0.803512	0.564138	-0.190047	0.563728	-0.823664	-0.061550
04649		-0.187230	-0.056854	-0.980669	0.803149	0.565951	-0.186148	0.565595	-0.822476	-0.060301
04650		-0.183679	-0.056119	-0.981383	0.802764	0.567616	-0.182706	0.567302	-0.821378	-0.059209
04651		-0.180638	-0.055494	-0.981983	0.802341	0.569154	-0.179757	0.568875	-0.820356	-0.058286
04652		-0.178023	-0.055018	-0.982487	0.801936	0.570508	-0.177255	0.570269	-0.819447	-0.057443
04653		-0.175773	-0.054772	-0.982906	0.801541	0.571698	-0.175197	0.571521	-0.818634	-0.056587
04654		-0.173859	-0.054637	-0.983254	0.801226	0.572658	-0.173494	0.572547	-0.817972	-0.055785
04655		-0.172339	-0.054662	-0.983520	0.800897	0.573503	-0.172213	0.573465	-0.817377	-0.055058
04656		-0.171026	-0.054927	-0.983734	0.800514	0.574330	-0.171240	0.574394	-0.816779	-0.054256
04657		-0.170004	-0.055351	-0.983888	0.799939	0.575324	-0.170586	0.575496	-0.816051	-0.053530
04658		-0.169318	-0.055887	-0.983976	0.799144	0.576525	-0.170258	0.576802	-0.815166	-0.052954
04659		-0.168927	-0.056536	-0.984006	0.798170	0.577883	-0.170226	0.578264	-0.814159	-0.052495
04660		-0.168758	-0.057284	-0.983992	0.797020	0.579410	-0.170422	0.579897	-0.813021	-0.052124
04661		-0.168850	-0.058055	-0.983930	0.795789	0.580976	-0.170843	0.581558	-0.811848	-0.051898
04662		-0.169113	-0.058864	-0.983837	0.794471	0.582607	-0.171421	0.583281	-0.810620	-0.051761
04663		-0.169551	-0.059607	-0.983717	0.793189	0.584149	-0.172108	0.584896	-0.809455	-0.051763
04664		-0.170193	-0.060315	-0.983563	0.791964	0.585561	-0.172948	0.586367	-0.808381	-0.051891
04665		-0.170975	-0.061026	-0.983384	0.790871	0.586750	-0.173916	0.587614	-0.807465	-0.052056
04666		-0.171908	-0.061763	-0.983175	0.789955	0.587650	-0.175039	0.588574	-0.806754	-0.052232
04667		-0.173007	-0.062530	-0.982934	0.789161	0.588331	-0.176328	0.589317	-0.806199	-0.052439
04668		-0.174263	-0.063311	-0.982662	0.788540	0.588730	-0.177769	0.589777	-0.805847	-0.052671
04669		-0.175818	-0.064070	-0.982335	0.788021	0.588915	-0.179450	0.590009	-0.805652	-0.053054
04670		-0.177586	-0.064824	-0.981968	0.787641	0.588851	-0.181315	0.589987	-0.805638	-0.053514
04671		-0.179534	-0.065662	-0.981558	0.787408	0.588520	-0.183392	0.589708	-0.805812	-0.053956
04672		-0.181730	-0.066529	-0.981095	0.787247	0.588013	-0.185697	0.589250	-0.806111	-0.054485
04673		-0.184099	-0.067414	-0.980593	0.787054	0.587489	-0.188152	0.588772	-0.806419	-0.055098
04674		-0.186680	-0.068375	-0.980038	0.786794	0.586977	-0.190823	0.588307	-0.806711	-0.055780
04675		-0.189475	-0.069363	-0.979433	0.786412	0.586555	-0.193674	0.587925	-0.806934	-0.056589
04676		-0.192521	-0.070421	-0.978763	0.785947	0.586148	-0.196768	0.587557	-0.807137	-0.057498
04677		-0.195587	-0.071512	-0.978076	0.785532	0.585643	-0.199903	0.587098	-0.807409	-0.058369
04678		-0.198818	-0.072677	-0.977338	0.785108	0.585070	-0.203220	0.586580	-0.807720	-0.059263
04679		-0.202063	-0.073828	-0.976586	0.784714	0.584433	-0.206545	0.585998	-0.808076	-0.060158
04680		-0.205488	-0.075140	-0.975771	0.784212	0.583837	-0.210106	0.585479	-0.808386	-0.061046
04681		-0.208997	-0.076445	-0.974924	0.783621	0.583318	-0.213725	0.585029	-0.808639	-0.062007
04682		-0.212691	-0.077756	-0.974021	0.782937	0.582843	-0.217494	0.584613	-0.808856	-0.063087
04683		-0.216446	-0.079049	-0.973089	0.782250	0.582332	-0.221303	0.584155	-0.809099	-0.064207
04684		-0.220275	-0.080218	-0.972134	0.781653	0.581673	-0.225113	0.583522	-0.809458	-0.065425
04685		-0.224092	-0.081415	-0.971161	0.781181	0.580810	-0.228945	0.582700	-0.809958	-0.066555
04686		-0.227940	-0.082563	-0.970168	0.780762	0.579847	-0.232785	0.581768	-0.810532	-0.067709
04687		-0.231723	-0.083616	-0.969182	0.780415	0.578799	-0.236526	0.580738	-0.811172	-0.068866
04688		-0.235577	-0.084677	-0.968160	0.780080	0.577679	-0.240338	0.579637	-0.811860	-0.070033
04689		-0.239382	-0.085722	-0.967134	0.779731	0.576571	-0.244101	0.578547	-0.812537	-0.071181
04690		-0.243239	-0.086772	-0.966077	0.779352	0.575456	-0.247912	0.577447	-0.813217	-0.072348
04691		-0.246998	-0.087701	-0.965039	0.779014	0.574322	-0.251579	0.576307	-0.813918	-0.073536
04692		-0.250808	-0.088606	-0.963973	0.778730	0.573069	-0.255286	0.575043	-0.814703	-0.074731
04693		-0.254537	-0.089460	-0.962916	0.778539	0.571700	-0.258913	0.573661	-0.815571	-0.075870
04694		-0.258250	-0.090299	-0.961849	0.778488	0.570113	-0.262541	0.572070	-0.816589	-0.076935
04695		-0.261855	-0.091104	-0.960798	0.778473	0.568496	-0.266070	0.570449	-0.817626	-0.077941
04696		-0.265397	-0.091943	-0.959745	0.778330	0.567048	-0.269553	0.569005	-0.818537	-0.078931
04697		-0.268743	-0.092703	-0.958740	0.778165	0.565707	-0.272826	0.567659	-0.819379	-0.079892
04698		-0.271981	-0.093417	-0.957758	0.777996	0.564408	-0.275983	0.566348	-0.820193	-0.080830
04699		-0.275072	-0.093992	-0.956818	0.777854	0.563147	-0.278942	0.565048	-0.820994	-0.081794
04700		-0.278059	-0.094529	-0.955901	0.777772	0.561834	-0.281803	0.563697	-0.821831	-0.082701
04701		-0.280785	-0.094987	-0.955059	0.777758	0.560539	-0.284409	0.562363	-0.822662	-0.083514
04702		-0.283396	-0.095458	-0.954240	0.777709	0.559325	-0.286921	0.561119	-0.823434	-0.084272
04703		-0.285678	-0.095744	-0.953531	0.777751	0.558165	-0.289060	0.559903	-0.824187	-0.084990
04704		-0.287775	-0.095983	-0.952876	0.777837	0.557024	-0.291021	0.558708	-0.824931	-0.085638
04705		-0.289603	-0.096127	-0.952307	0.778016	0.555887	-0.292712	0.557513	-0.825681	-0.086199
04706		-0.291230	-0.096224	-0.951801	0.778217	0.554815	-0.294207	0.556384	-0.826390	-0.086695
04707		-0.292557	-0.096161	-0.951401	0.778439	0.553894	-0.295355	0.555377	-0.827015	-0.087190
04708		-0.293659	-0.096038	-0.951074	0.778686	0.553052	-0.296279	0.554447	-0.827593	-0.087625
04709		-0.294538	-0.095861	-0.950820	0.779033	0.552179	-0.296994	0.553493	-0.828196	-0.087959
04710		-0.295146	-0.095597	-0.950658	0.779534	0.551227	-0.297449	0.552464	-0.828860	-0.088171
04711		-0.295501	-0.095318	-0.950575	0.780161	0.550205	-0.297696	0.551387	-0.829572	-0.088222
04712		-0.295614	-0.095056	-0.950567	0.780850	0.549195	-0.297753	0.550350	-0.830270	-0.088125
04713		-0.295510	-0.094800	-0.950624	0.781522	0.548310	-0.297623	0.549452	-0.830884	-0.087942
04714		-0.295282	-0.094494	-0.950726	0.782102	0.547636	-0.297341	0.548748	-0.831364	-0.087803
04715		-0.294928	-0.094102	-0.950874	0.782566	0.547223	-0.296880	0.548278	-0.831680	-0.087751
04716		-0.294486	-0.093689	-0.951052	0.782893	0.547064	-0.296308	0.548047	-0.831831	-0.087754
04717		-0.293976	-0.093212	-0.951257	0.783130	0.547094	-0.295627	0.547983	-0.831865	-0.087835
04718		-0.293360	-0.092673	-0.951500	0.783323	0.547260	-0.294810	0.548038	-0.831816	-0.087951
04719		-0.292673	-0.092107	-0.951766	0.783542	0.547424	-0.293920	0.548092	-0.831771	-0.088047
04720		-0.291938	-0.091529	-0.952048	0.783758	0.547618	-0.292981	0.548174	-0.831707	-0.088134
04721		-0.291088	-0.090941	-0.952364	0.784035	0.547774	-0.291945	0.548231	-0.831669	-0.088149
04722		-0.290168	-0.090391	-0.952697	0.784366	0.547868	-0.290879	0.548245	-0.831667	-0.088074
04723		-0.289153	-0.089820	-0.953060	0.784790	0.547867	-0.289734	0.548174	-0.831730	-0.087928
04724		-0.288057	-0.089264	-0.953444	0.785248	0.547846	-0.288532	0.548095	-0.831804	-0.087717
04725		-0.286802	-0.088635	-0.953881	0.785785	0.547795	-0.287162	0.547984	-0.831904	-0.087461
04726		-0.285484	-0.088078	-0.954328	0.786277	0.547817	-0.285772	0.547968	-0.831949	-0.087139
04727		-0.283989	-0.087407	-0.954835	0.786803	0.547896	-0.284168	0.547989	-0.831967	-0.086824
04728		-0.282425	-0.086776	-0.955356	0.787269	0.548080	-0.282517	0.548128	-0.831912	-0.086475
04729		-0.280754	-0.086131	-0.955907	0.787701	0.548362	-0.280760	0.548365	-0.831794	-0.086110
04730		-0.279005	-0.085454	-0.956480	0.788092	0.548744	-0.278912	0.548696	-0.831612	-0.085756
04731		-0.277142	-0.084811	-0.957079	0.788435	0.549231	-0.276977	0.549148	-0.831356	-0.085347
04732		-0.275174	-0.084121	-0.957707	0.788725	0.549848	-0.274918	0.549720	-0.831018	-0.084956
04733		-0.273194	-0.083379	-0.958339	0.789022	0.550468	-0.272819	0.550282	-0.830682	-0.084597
04734		-0.271152	-0.082689	-0.958978	0.789325	0.551079	-0.270700	0.550856	-0.830346	-0.084157
04735		-0.269004	-0.081986	-0.959643	0.789712	0.551602	-0.268495	0.551354	-0.830068	-0.083638
04736		-0.266828	-0.081308	-0.960308	0.790166	0.552021	-0.266291	0.551762	-0.829857	-0.083047
04737		-0.264646	-0.080677	-0.960965	0.790610	0.552432	-0.264109	0.552176	-0.829644	-0.082415
04738		-0.262376	-0.080168	-0.961630	0.790978	0.552951	-0.261912	0.552731	-0.829348	-0.081671
04739		-0.260106	-0.079661	-0.962289	0.791205	0.553671	-0.259697	0.553479	-0.828916	-0.080985
04740		-0.257829	-0.079178	-0.962941	0.791286	0.554594	-0.257470	0.554428	-0.828345	-0.080338
04741		-0.255568	-0.078731	-0.963580	0.791307	0.555581	-0.255271	0.555444	-0.827727	-0.079688
04742		-0.253318	-0.078293	-0.964210	0.791303	0.556585	-0.253086	0.556480	-0.827093	-0.079040
04743		-0.251136	-0.077930	-0.964810	0.791310	0.557515	-0.251007	0.557457	-0.826501	-0.078345
04744		-0.248990	-0.077556	-0.965396	0.791337	0.558395	-0.248957	0.558381	-0.825942	-0.077662
04745		-0.246862	-0.077192	-0.965971	0.791397	0.559209	-0.246935	0.559241	-0.825426	-0.076958
04746		-0.244792	-0.076809	-0.966528	0.791523	0.559896	-0.244963	0.559971	-0.824995	-0.076262
04747		-0.242771	-0.076355	-0.967074	0.791736	0.560449	-0.243005	0.560550	-0.824662	-0.075608
04748		-0.240842	-0.075870	-0.967594	0.792081	0.560773	-0.241126	0.560895	-0.824486	-0.074962
04749		-0.238958	-0.075402	-0.968098	0.792481	0.560988	-0.239304	0.561135	-0.824383	-0.074298
04750		-0.237158	-0.074968	-0.968574	0.792919	0.561103	-0.237578	0.561280	-0.824344	-0.073627
04751		-0.235458	-0.074574	-0.969019	0.793358	0.561164	-0.235961	0.561375	-0.824338	-0.072967
04752		-0.233854	-0.074209	-0.969436	0.793767	0.561224	-0.234438	0.561468	-0.824331	-0.072340
04753		-0.232371	-0.073890	-0.969817	0.794142	0.561275	-0.233042	0.561553	-0.824325	-0.071744
04754		-0.231063	-0.073604	-0.970151	0.794477	0.561312	-0.231809	0.561619	-0.824325	-0.071222
04755		-0.229874	-0.073285	-0.970457	0.794805	0.561322	-0.230656	0.561643	-0.824346	-0.070786
04756		-0.228865	-0.073008	-0.970717	0.795143	0.561243	-0.229681	0.561576	-0.824425	-0.070397
04757		-0.227950	-0.072741	-0.970952	0.795485	0.561122	-0.228793	0.561465	-0.824531	-0.070044
04758		-0.227157	-0.072580	-0.971150	0.795858	0.560885	-0.228074	0.561257	-0.824706	-0.069645
04759		-0.226497	-0.072458	-0.971313	0.796192	0.560651	-0.227485	0.561050	-0.824876	-0.069295
04760		-0.225985	-0.072358	-0.971440	0.796456	0.560462	-0.227025	0.560883	-0.825013	-0.069026
04761		-0.225607	-0.072264	-0.971535	0.796637	0.560347	-0.226672	0.560777	-0.825100	-0.068850
04762		-0.225338	-0.072189	-0.971602	0.796797	0.560222	-0.226421	0.560658	-0.825191	-0.068719
04763		-0.225159	-0.072124	-0.971649	0.796963	0.560054	-0.226251	0.560494	-0.825311	-0.068621
04764		-0.225087	-0.072103	-0.971667	0.797101	0.559880	-0.226195	0.560326	-0.825431	-0.068548
04765		-0.225128	-0.072092	-0.971658	0.797170	0.559767	-0.226232	0.560212	-0.825508	-0.068549
04766		-0.225282	-0.072117	-0.971621	0.797218	0.559638	-0.226383	0.560082	-0.825593	-0.068584
04767		-0.225550	-0.072188	-0.971554	0.797251	0.559480	-0.226655	0.559926	-0.825694	-0.068638
04768		-0.225953	-0.072250	-0.971455	0.797255	0.559322	-0.227034	0.559759	-0.825796	-0.068779
04769		-0.226373	-0.072336	-0.971351	0.797261	0.559147	-0.227441	0.559581	-0.825907	-0.068905
04770		-0.226876	-0.072433	-0.971226	0.797297	0.558897	-0.227928	0.559325	-0.826067	-0.069049
04771		-0.227424	-0.072444	-0.971097	0.797384	0.558576	-0.228412	0.558978	-0.826284	-0.069268
04772		-0.228071	-0.072519	-0.970940	0.797452	0.558233	-0.229013	0.558618	-0.826509	-0.069487
04773		-0.228804	-0.072564	-0.970764	0.797446	0.557974	-0.229662	0.558327	-0.826680	-0.069801
04774		-0.229641	-0.072651	-0.970560	0.797339	0.557818	-0.230411	0.558135	-0.826777	-0.070170
04775		-0.230592	-0.072756	-0.970327	0.797186	0.557684	-0.231263	0.557961	-0.826859	-0.070597
04776		-0.231657	-0.072889	-0.970063	0.796987	0.557572	-0.232220	0.557806	-0.826923	-0.071073
04777		-0.232762	-0.073024	-0.969788	0.796805	0.557415	-0.233216	0.557605	-0.827016	-0.071559
04778		-0.233907	-0.073237	-0.969497	0.796653	0.557180	-0.234296	0.557344	-0.827156	-0.071984
04779		-0.235092	-0.073452	-0.969194	0.796519	0.556900	-0.235413	0.557036	-0.827325	-0.072417
04780		-0.236295	-0.073657	-0.968886	0.796437	0.556538	-0.236547	0.556645	-0.827551	-0.072844
04781		-0.237470	-0.073891	-0.968581	0.796370	0.556152	-0.237676	0.556241	-0.827789	-0.073225
04782		-0.238690	-0.074152	-0.968261	0.796330	0.555701	-0.238864	0.555775	-0.828069	-0.073591
04783		-0.239894	-0.074384	-0.967945	0.796229	0.555350	-0.240013	0.555401	-0.828283	-0.073998
04784		-0.241121	-0.074635	-0.967621	0.796069	0.555071	-0.241186	0.555099	-0.828448	-0.074425
04785		-0.242310	-0.074875	-0.967305	0.795890	0.554835	-0.242317	0.554839	-0.828584	-0.074850
04786		-0.243547	-0.075081	-0.966979	0.795688	0.554620	-0.243469	0.554586	-0.828709	-0.075335
04787		-0.244766	-0.075300	-0.966654	0.795519	0.554357	-0.244616	0.554291	-0.828866	-0.075785
04788		-0.245971	-0.075449	-0.966336	0.795411	0.554024	-0.245720	0.553913	-0.829075	-0.076261
04789		-0.247122	-0.075543	-0.966035	0.795382	0.553605	-0.246758	0.553443	-0.829346	-0.076722
04790		-0.248276	-0.075641	-0.965732	0.795378	0.553142	-0.247805	0.552931	-0.829646	-0.077168
04791		-0.249345	-0.075666	-0.965454	0.795470	0.552585	-0.248751	0.552317	-0.830015	-0.077594
04792		-0.250415	-0.075697	-0.965175	0.795625	0.551929	-0.249711	0.551610	-0.830448	-0.077985
04793		-0.251410	-0.075743	-0.964912	0.795871	0.551157	-0.250631	0.550801	-0.830957	-0.078285
04794		-0.252390	-0.075817	-0.964651	0.796139	0.550348	-0.251555	0.549966	-0.831486	-0.078542
04795		-0.253292	-0.075936	-0.964405	0.796331	0.549669	-0.252429	0.549273	-0.831924	-0.078756
04796		-0.254178	-0.075967	-0.964169	0.796452	0.549126	-0.253229	0.548688	-0.832280	-0.079071
04797		-0.254988	-0.076074	-0.963947	0.796539	0.548642	-0.254003	0.548184	-0.832590	-0.079302
04798		-0.255774	-0.076133	-0.963734	0.796593	0.548229	-0.254724	0.547740	-0.832856	-0.079575
04799		-0.256516	-0.076191	-0.963532	0.796617	0.547878	-0.255402	0.547358	-0.833081	-0.079844
04800		-0.257213	-0.076195	-0.963346	0.796566	0.547673	-0.256001	0.547105	-0.833216	-0.080174
04801		-0.257859	-0.076182	-0.963175	0.796469	0.547563	-0.256538	0.546942	-0.833289	-0.080517
04802		-0.258501	-0.076147	-0.963005	0.796349	0.547495	-0.257056	0.546814	-0.833337	-0.080888
04803		-0.259042	-0.076099	-0.962864	0.796335	0.547308	-0.257496	0.546578	-0.833464	-0.081175
04804		-0.259620	-0.076071	-0.962710	0.796342	0.547069	-0.257982	0.546294	-0.833624	-0.081451
04805		-0.260003	-0.075989	-0.962613	0.796434	0.546795	-0.258281	0.545978	-0.833811	-0.081648
04806		-0.260385	-0.075903	-0.962517	0.796551	0.546482	-0.258582	0.545625	-0.834024	-0.081835
04807		-0.260607	-0.075775	-0.962467	0.796784	0.546068	-0.258737	0.545179	-0.834306	-0.081932
04808		-0.260766	-0.075626	-0.962435	0.797082	0.545586	-0.258836	0.544666	-0.834636	-0.081990
04809		-0.260832	-0.075474	-0.962429	0.797384	0.545136	-0.258853	0.544192	-0.834943	-0.082007
04810		-0.260826	-0.075283	-0.962446	0.797652	0.544780	-0.258779	0.543803	-0.835193	-0.082044
04811		-0.260742	-0.075100	-0.962483	0.797863	0.544539	-0.258635	0.543533	-0.835366	-0.082065
04812		-0.260561	-0.074830	-0.962553	0.798073	0.544363	-0.258356	0.543311	-0.835505	-0.082120
04813		-0.260331	-0.074604	-0.962633	0.798285	0.544193	-0.258060	0.543110	-0.835637	-0.082115
04814		-0.260045	-0.074339	-0.962731	0.798464	0.544106	-0.257689	0.542984	-0.835717	-0.082135
04815		-0.259706	-0.074064	-0.962843	0.798664	0.544011	-0.257269	0.542852	-0.835803	-0.082131
