// Start Time: Unknown
// Update Rate: 100.0Hz
// Filter Profile: human (46.1)
// Option Flags: AHS Disabled ICC Disabled 
// Firmware Version: 4.0.2
PacketCounter	SampleTimeFine	Mat[1][1]	Mat[2][1]	Mat[3][1]	Mat[1][2]	Mat[2][2]	Mat[3][2]	Mat[1][3]	Mat[2][3]	Mat[3][3]
51869		-0.129411	-0.170608	-0.976804	-0.597201	-0.772981	0.214128	-0.791583	0.611059	-0.001855
51870		-0.129427	-0.170476	-0.976825	-0.597130	-0.773062	0.214034	-0.791634	0.610993	-0.001741
51871		-0.129433	-0.170402	-0.976837	-0.596790	-0.773340	0.213979	-0.791889	0.610663	-0.001599
51872		-0.129506	-0.170269	-0.976850	-0.596709	-0.773419	0.213919	-0.791939	0.610599	-0.001439
51873		-0.129574	-0.170188	-0.976855	-0.596646	-0.773474	0.213896	-0.791975	0.610552	-0.001320
51874		-0.129678	-0.170090	-0.976859	-0.596564	-0.773541	0.213883	-0.792020	0.610494	-0.001158
51875		-0.129808	-0.170006	-0.976856	-0.596575	-0.773529	0.213895	-0.791990	0.610533	-0.001011
51876		-0.129947	-0.169940	-0.976849	-0.596511	-0.773569	0.213928	-0.792015	0.610501	-0.000848
51877		-0.130094	-0.169930	-0.976831	-0.596398	-0.773634	0.214010	-0.792077	0.610421	-0.000701
51878		-0.130177	-0.169970	-0.976813	-0.596354	-0.773645	0.214092	-0.792096	0.610396	-0.000651
51879		-0.130294	-0.170027	-0.976788	-0.596199	-0.773732	0.214209	-0.792193	0.610270	-0.000557
51880		-0.130401	-0.170099	-0.976761	-0.596187	-0.773707	0.214331	-0.792184	0.610282	-0.000518
51881		-0.130496	-0.170284	-0.976716	-0.595893	-0.773877	0.214536	-0.792390	0.610014	-0.000483
51882		-0.130627	-0.170375	-0.976683	-0.595847	-0.773870	0.214688	-0.792403	0.609998	-0.000429
51883		-0.130720	-0.170503	-0.976648	-0.595663	-0.773968	0.214846	-0.792526	0.609838	-0.000389
51884		-0.130826	-0.170581	-0.976620	-0.595559	-0.774013	0.214973	-0.792587	0.609759	-0.000330
51885		-0.130920	-0.170662	-0.976593	-0.595429	-0.774079	0.215094	-0.792669	0.609652	-0.000275
51886		-0.131054	-0.170718	-0.976566	-0.595382	-0.774080	0.215220	-0.792682	0.609635	-0.000197
51887		-0.131167	-0.170797	-0.976536	-0.595305	-0.774103	0.215352	-0.792721	0.609584	-0.000139
51888		-0.131243	-0.170834	-0.976520	-0.595294	-0.774090	0.215428	-0.792717	0.609590	-0.000103
51889		-0.131262	-0.170957	-0.976496	-0.595002	-0.774285	0.215537	-0.792933	0.609309	-0.000085
51890		-0.131302	-0.170989	-0.976485	-0.595066	-0.774221	0.215586	-0.792878	0.609380	-0.000094
51891		-0.131379	-0.171008	-0.976471	-0.595379	-0.773963	0.215648	-0.792630	0.609703	-0.000132
51892		-0.131414	-0.171030	-0.976463	-0.595358	-0.773969	0.215687	-0.792641	0.609689	-0.000113
51893		-0.131433	-0.171058	-0.976455	-0.595285	-0.774016	0.215721	-0.792693	0.609622	-0.000097
51894		-0.131429	-0.171069	-0.976454	-0.595179	-0.774095	0.215727	-0.792773	0.609518	-0.000078
51895		-0.131408	-0.171080	-0.976455	-0.594973	-0.774255	0.215723	-0.792931	0.609312	-0.000045
51896		-0.131441	-0.171051	-0.976455	-0.594936	-0.774284	0.215720	-0.792953	0.609283	0.000008
51897		-0.131438	-0.171051	-0.976456	-0.594848	-0.774352	0.215718	-0.793019	0.609197	0.000030
51898		-0.131452	-0.171066	-0.976451	-0.594927	-0.774286	0.215738	-0.792958	0.609276	0.000010
51899		-0.131491	-0.171088	-0.976442	-0.595057	-0.774174	0.215780	-0.792854	0.609412	-0.000010
51900		-0.131529	-0.171096	-0.976436	-0.595220	-0.774041	0.215809	-0.792725	0.609579	-0.000031
51901		-0.131530	-0.171160	-0.976424	-0.595225	-0.774023	0.215860	-0.792721	0.609585	-0.000072
51902		-0.131547	-0.171159	-0.976422	-0.595277	-0.773980	0.215871	-0.792680	0.609638	-0.000072
51903		-0.131514	-0.171203	-0.976419	-0.594981	-0.774203	0.215886	-0.792907	0.609343	-0.000044
51904		-0.131534	-0.171208	-0.976415	-0.594960	-0.774216	0.215901	-0.792920	0.609326	-0.000027
51905		-0.131559	-0.171203	-0.976413	-0.595038	-0.774152	0.215913	-0.792857	0.609408	-0.000026
51906		-0.131602	-0.171247	-0.976399	-0.595188	-0.774020	0.215974	-0.792737	0.609564	-0.000062
51907		-0.131653	-0.171318	-0.976380	-0.595394	-0.773837	0.216061	-0.792574	0.609776	-0.000123
51908		-0.131707	-0.171389	-0.976360	-0.595643	-0.773620	0.216150	-0.792378	0.610031	-0.000195
51909		-0.131698	-0.171497	-0.976342	-0.595868	-0.773425	0.216230	-0.792210	0.610248	-0.000331
51910		-0.131737	-0.171570	-0.976324	-0.596092	-0.773230	0.216311	-0.792035	0.610475	-0.000409
51911		-0.131738	-0.171633	-0.976313	-0.596223	-0.773114	0.216362	-0.791936	0.610604	-0.000483
51912		-0.131749	-0.171630	-0.976312	-0.596308	-0.773048	0.216366	-0.791871	0.610689	-0.000497
51913		-0.131727	-0.171650	-0.976312	-0.596240	-0.773099	0.216368	-0.791925	0.610618	-0.000506
51914		-0.131734	-0.171609	-0.976318	-0.596357	-0.773017	0.216341	-0.791836	0.610733	-0.000508
51915		-0.131741	-0.171607	-0.976317	-0.596352	-0.773020	0.216343	-0.791839	0.610730	-0.000500
51916		-0.131772	-0.171560	-0.976321	-0.596552	-0.772871	0.216325	-0.791683	0.610932	-0.000502
51917		-0.131801	-0.171540	-0.976321	-0.596704	-0.772753	0.216327	-0.791563	0.611087	-0.000509
51918		-0.131846	-0.171504	-0.976321	-0.596977	-0.772542	0.216326	-0.791350	0.611363	-0.000527
51919		-0.131855	-0.171504	-0.976320	-0.597123	-0.772428	0.216331	-0.791239	0.611507	-0.000560
51920		-0.131876	-0.171456	-0.976326	-0.597337	-0.772270	0.216306	-0.791074	0.611721	-0.000573
51921		-0.131850	-0.171475	-0.976326	-0.597204	-0.772373	0.216305	-0.791178	0.611585	-0.000568
51922		-0.131854	-0.171417	-0.976335	-0.597327	-0.772290	0.216262	-0.791085	0.611706	-0.000562
51923		-0.131863	-0.171369	-0.976343	-0.597430	-0.772219	0.216229	-0.791005	0.611809	-0.000554
51924		-0.131836	-0.171297	-0.976359	-0.597528	-0.772164	0.216155	-0.790936	0.611899	-0.000556
51925		-0.131864	-0.171260	-0.976362	-0.597726	-0.772014	0.216143	-0.790782	0.612098	-0.000566
51926		-0.131866	-0.171196	-0.976372	-0.597921	-0.771877	0.216094	-0.790634	0.612289	-0.000578
51927		-0.131855	-0.171214	-0.976371	-0.597943	-0.771858	0.216101	-0.790619	0.612308	-0.000602
51928		-0.131836	-0.171143	-0.976386	-0.598238	-0.771648	0.216033	-0.790399	0.612592	-0.000653
51929		-0.131860	-0.171127	-0.976385	-0.598594	-0.771372	0.216034	-0.790126	0.612944	-0.000723
51930		-0.131864	-0.171095	-0.976390	-0.598829	-0.771196	0.216012	-0.789947	0.613175	-0.000764
51931		-0.131850	-0.171112	-0.976389	-0.598941	-0.771108	0.216016	-0.789864	0.613281	-0.000815
51932		-0.131863	-0.171088	-0.976392	-0.599070	-0.771010	0.216005	-0.789764	0.613410	-0.000826
51933		-0.131880	-0.171103	-0.976387	-0.599022	-0.771041	0.216028	-0.789798	0.613367	-0.000809
51934		-0.131853	-0.171083	-0.976394	-0.599114	-0.770979	0.215995	-0.789732	0.613451	-0.000843
51935		-0.131805	-0.171088	-0.976400	-0.599062	-0.771027	0.215969	-0.789780	0.613390	-0.000867
51936		-0.131821	-0.171101	-0.976395	-0.599159	-0.770945	0.215990	-0.789703	0.613488	-0.000890
51937		-0.131836	-0.171093	-0.976395	-0.599383	-0.770771	0.215993	-0.789531	0.613710	-0.000935
51938		-0.131852	-0.171068	-0.976397	-0.599532	-0.770658	0.215982	-0.789416	0.613858	-0.000948
51939		-0.131829	-0.171068	-0.976400	-0.599613	-0.770598	0.215967	-0.789357	0.613933	-0.000988
51940		-0.131819	-0.171044	-0.976406	-0.599751	-0.770499	0.215943	-0.789255	0.614065	-0.001017
51941		-0.131847	-0.171008	-0.976408	-0.600003	-0.770305	0.215932	-0.789058	0.614318	-0.001043
51942		-0.131833	-0.170954	-0.976419	-0.600080	-0.770259	0.215880	-0.789002	0.614390	-0.001041
51943		-0.131788	-0.170955	-0.976425	-0.600039	-0.770299	0.215853	-0.789040	0.614341	-0.001064
51944		-0.131748	-0.170975	-0.976427	-0.600074	-0.770274	0.215844	-0.789020	0.614366	-0.001115
51945		-0.131742	-0.170944	-0.976433	-0.600192	-0.770190	0.215816	-0.788932	0.614479	-0.001133
51946		-0.131740	-0.170961	-0.976431	-0.600244	-0.770146	0.215828	-0.788893	0.614530	-0.001159
51947		-0.131749	-0.170980	-0.976426	-0.600387	-0.770029	0.215849	-0.788782	0.614671	-0.001204
51948		-0.131770	-0.171017	-0.976417	-0.600405	-0.770003	0.215891	-0.788765	0.614694	-0.001216
51949		-0.131787	-0.171047	-0.976409	-0.600446	-0.769962	0.215925	-0.788731	0.614737	-0.001233
51950		-0.131800	-0.171050	-0.976407	-0.600457	-0.769950	0.215935	-0.788721	0.614750	-0.001229
51951		-0.131836	-0.171089	-0.976395	-0.600524	-0.769883	0.215987	-0.788664	0.614824	-0.001245
51952		-0.131880	-0.171093	-0.976389	-0.600514	-0.769883	0.216017	-0.788664	0.614823	-0.001211
51953		-0.131930	-0.171141	-0.976373	-0.600517	-0.769861	0.216087	-0.788653	0.614837	-0.001205
51954		-0.131974	-0.171178	-0.976361	-0.600528	-0.769837	0.216142	-0.788638	0.614857	-0.001198
51955		-0.131991	-0.171235	-0.976349	-0.600422	-0.769904	0.216198	-0.788715	0.614757	-0.001192
51956		-0.132081	-0.171283	-0.976328	-0.600482	-0.769830	0.216292	-0.788654	0.614836	-0.001173
51957		-0.132161	-0.171364	-0.976303	-0.600551	-0.769745	0.216404	-0.788588	0.614920	-0.001183
51958		-0.132247	-0.171448	-0.976277	-0.600613	-0.769663	0.216523	-0.788527	0.614999	-0.001188
51959		-0.132355	-0.171576	-0.976240	-0.600588	-0.769636	0.216691	-0.788528	0.614998	-0.001181
51960		-0.132435	-0.171677	-0.976211	-0.600657	-0.769545	0.216819	-0.788462	0.615083	-0.001204
51961		-0.132503	-0.171748	-0.976189	-0.600673	-0.769506	0.216917	-0.788438	0.615113	-0.001203
51962		-0.132568	-0.171818	-0.976168	-0.600696	-0.769461	0.217012	-0.788410	0.615149	-0.001205
51963		-0.132618	-0.171835	-0.976158	-0.600920	-0.769274	0.217056	-0.788231	0.615378	-0.001240
51964		-0.132598	-0.171857	-0.976157	-0.600927	-0.769267	0.217061	-0.788229	0.615381	-0.001270
51965		-0.132578	-0.171882	-0.976156	-0.600916	-0.769273	0.217068	-0.788240	0.615366	-0.001298
51966		-0.132511	-0.171879	-0.976165	-0.601038	-0.769191	0.217024	-0.788159	0.615470	-0.001379
51967		-0.132402	-0.171853	-0.976185	-0.601067	-0.769192	0.216937	-0.788155	0.615475	-0.001453
51968		-0.132342	-0.171852	-0.976193	-0.601155	-0.769134	0.216900	-0.788098	0.615548	-0.001521
51969		-0.132228	-0.171867	-0.976206	-0.601165	-0.769143	0.216840	-0.788109	0.615533	-0.001619
51970		-0.132147	-0.171853	-0.976219	-0.601215	-0.769121	0.216779	-0.788085	0.615564	-0.001683
51971		-0.132043	-0.171867	-0.976231	-0.601142	-0.769193	0.216727	-0.788158	0.615471	-0.001749
51972		-0.131962	-0.171826	-0.976249	-0.601079	-0.769266	0.216645	-0.788220	0.615391	-0.001767
51973		-0.131898	-0.171796	-0.976263	-0.601001	-0.769344	0.216582	-0.788289	0.615302	-0.001774
51974		-0.131792	-0.171776	-0.976281	-0.600901	-0.769445	0.216502	-0.788384	0.615181	-0.001813
51975		-0.131670	-0.171790	-0.976295	-0.600650	-0.769659	0.216438	-0.788596	0.614909	-0.001845
51976		-0.131551	-0.171733	-0.976321	-0.600595	-0.769735	0.216320	-0.788657	0.614830	-0.001883
51977		-0.131483	-0.171722	-0.976332	-0.600668	-0.769691	0.216270	-0.788613	0.614887	-0.001947
51978		-0.131389	-0.171762	-0.976337	-0.600707	-0.769669	0.216243	-0.788599	0.614905	-0.002052
51979		-0.131325	-0.171871	-0.976327	-0.600734	-0.769635	0.216290	-0.788589	0.614917	-0.002177
51980		-0.131309	-0.171976	-0.976310	-0.600796	-0.769566	0.216363	-0.788544	0.614974	-0.002271
51981		-0.131317	-0.172079	-0.976291	-0.600945	-0.769425	0.216448	-0.788429	0.615121	-0.002371
51982		-0.131329	-0.172207	-0.976267	-0.600921	-0.769414	0.216556	-0.788446	0.615099	-0.002436
51983		-0.131278	-0.172401	-0.976240	-0.600462	-0.769737	0.216679	-0.788804	0.614640	-0.002471
51984		-0.131330	-0.172518	-0.976212	-0.600336	-0.769801	0.216804	-0.788891	0.614528	-0.002471
51985		-0.131322	-0.172721	-0.976177	-0.599903	-0.770094	0.216961	-0.789222	0.614104	-0.002485
51986		-0.131373	-0.172832	-0.976151	-0.599849	-0.770102	0.217080	-0.789254	0.614062	-0.002503
51987		-0.131431	-0.172934	-0.976125	-0.599781	-0.770123	0.217195	-0.789296	0.614007	-0.002504
51988		-0.131511	-0.173035	-0.976096	-0.599850	-0.770033	0.217324	-0.789231	0.614092	-0.002527
51989		-0.131582	-0.173155	-0.976065	-0.599901	-0.769954	0.217462	-0.789180	0.614157	-0.002563
51990		-0.131662	-0.173203	-0.976046	-0.599975	-0.769872	0.217549	-0.789110	0.614246	-0.002554
51991		-0.131770	-0.173266	-0.976020	-0.600027	-0.769798	0.217665	-0.789052	0.614321	-0.002528
51992		-0.131839	-0.173268	-0.976011	-0.600028	-0.769785	0.217709	-0.789040	0.614336	-0.002477
51993		-0.131907	-0.173269	-0.976001	-0.599865	-0.769900	0.217752	-0.789153	0.614192	-0.002383
51994		-0.131984	-0.173240	-0.975996	-0.599812	-0.769934	0.217776	-0.789180	0.614157	-0.002292
51995		-0.132069	-0.173240	-0.975984	-0.599681	-0.770022	0.217829	-0.789266	0.614048	-0.002193
51996		-0.132148	-0.173223	-0.975977	-0.599694	-0.770002	0.217864	-0.789243	0.614077	-0.002127
51997		-0.132208	-0.173212	-0.975971	-0.599885	-0.769845	0.217891	-0.789088	0.614277	-0.002127
51998		-0.132345	-0.173187	-0.975957	-0.599979	-0.769753	0.217956	-0.788993	0.614399	-0.002035
51999		-0.132419	-0.173198	-0.975944	-0.600037	-0.769693	0.218010	-0.788936	0.614472	-0.002003
52000		-0.132481	-0.173106	-0.975952	-0.600128	-0.769632	0.217975	-0.788857	0.614574	-0.001924
52001		-0.132513	-0.173062	-0.975956	-0.599964	-0.769764	0.217960	-0.788976	0.614421	-0.001827
52002		-0.132540	-0.172950	-0.975972	-0.599872	-0.769856	0.217889	-0.789042	0.614337	-0.001711
52003		-0.132508	-0.172833	-0.975997	-0.599706	-0.770017	0.217778	-0.789173	0.614169	-0.001615
52004		-0.132474	-0.172699	-0.976025	-0.599702	-0.770055	0.217651	-0.789182	0.614158	-0.001556
52005		-0.132420	-0.172611	-0.976048	-0.599653	-0.770123	0.217548	-0.789228	0.614098	-0.001527
52006		-0.132380	-0.172539	-0.976067	-0.599744	-0.770075	0.217467	-0.789166	0.614178	-0.001537
52007		-0.132298	-0.172561	-0.976074	-0.599624	-0.770178	0.217434	-0.789271	0.614043	-0.001579
52008		-0.132230	-0.172572	-0.976081	-0.599791	-0.770057	0.217401	-0.789155	0.614192	-0.001683
52009		-0.132171	-0.172607	-0.976083	-0.599885	-0.769986	0.217391	-0.789093	0.614271	-0.001775
52010		-0.132137	-0.172624	-0.976084	-0.599959	-0.769931	0.217384	-0.789043	0.614335	-0.001831
52011		-0.132053	-0.172645	-0.976092	-0.599867	-0.770013	0.217349	-0.789127	0.614227	-0.001882
52012		-0.132018	-0.172616	-0.976102	-0.599853	-0.770036	0.217305	-0.789144	0.614206	-0.001886
52013		-0.131913	-0.172603	-0.976118	-0.599637	-0.770225	0.217230	-0.789325	0.613972	-0.001896
52014		-0.131867	-0.172535	-0.976137	-0.599689	-0.770208	0.217149	-0.789294	0.614013	-0.001902
52015		-0.131795	-0.172517	-0.976150	-0.599656	-0.770250	0.217090	-0.789331	0.613965	-0.001935
52016		-0.131748	-0.172423	-0.976172	-0.599806	-0.770162	0.216987	-0.789225	0.614101	-0.001954
52017		-0.131684	-0.172317	-0.976200	-0.600056	-0.770002	0.216863	-0.789045	0.614332	-0.002003
52018		-0.131626	-0.172223	-0.976224	-0.600219	-0.769906	0.216753	-0.788930	0.614479	-0.002032
52019		-0.131549	-0.172178	-0.976243	-0.600250	-0.769905	0.216671	-0.788920	0.614492	-0.002069
52020		-0.131476	-0.172133	-0.976260	-0.600244	-0.769932	0.216590	-0.788937	0.614471	-0.002094
52021		-0.131407	-0.172082	-0.976279	-0.600232	-0.769965	0.216507	-0.788957	0.614444	-0.002110
52022		-0.131396	-0.172078	-0.976281	-0.600112	-0.770061	0.216499	-0.789050	0.614325	-0.002083
52023		-0.131323	-0.172099	-0.976287	-0.599769	-0.770336	0.216471	-0.789324	0.613974	-0.002056
52024		-0.131280	-0.172075	-0.976297	-0.599696	-0.770405	0.216426	-0.789386	0.613894	-0.002054
52025		-0.131285	-0.172039	-0.976303	-0.599806	-0.770327	0.216399	-0.789301	0.614003	-0.002058
52026		-0.131256	-0.172026	-0.976309	-0.599806	-0.770335	0.216372	-0.789306	0.613996	-0.002071
52027		-0.131251	-0.171998	-0.976314	-0.599982	-0.770205	0.216347	-0.789173	0.614167	-0.002106
52028		-0.131225	-0.171985	-0.976320	-0.600001	-0.770198	0.216320	-0.789163	0.614180	-0.002122
52029		-0.131136	-0.172034	-0.976323	-0.599732	-0.770412	0.216305	-0.789383	0.613897	-0.002146
52030		-0.131092	-0.172025	-0.976331	-0.599706	-0.770442	0.216270	-0.789410	0.613863	-0.002166
52031		-0.131077	-0.172020	-0.976334	-0.599785	-0.770383	0.216258	-0.789352	0.613937	-0.002195
52032		-0.131040	-0.171993	-0.976344	-0.599752	-0.770422	0.216213	-0.789384	0.613896	-0.002197
52033		-0.130989	-0.172053	-0.976340	-0.599463	-0.770641	0.216231	-0.789611	0.613604	-0.002194
52034		-0.130965	-0.172045	-0.976345	-0.599410	-0.770689	0.216209	-0.789656	0.613546	-0.002192
52035		-0.130920	-0.172102	-0.976340	-0.599164	-0.770874	0.216228	-0.789849	0.613297	-0.002195
52036		-0.130909	-0.172106	-0.976341	-0.599183	-0.770861	0.216224	-0.789837	0.613313	-0.002210
52037		-0.130890	-0.172148	-0.976336	-0.599150	-0.770881	0.216246	-0.789866	0.613276	-0.002242
52038		-0.130851	-0.172136	-0.976344	-0.599163	-0.770880	0.216212	-0.789862	0.613280	-0.002266
52039		-0.130811	-0.172212	-0.976336	-0.598914	-0.771064	0.216248	-0.790058	0.613028	-0.002277
52040		-0.130792	-0.172167	-0.976346	-0.598878	-0.771104	0.216202	-0.790087	0.612990	-0.002253
52041		-0.130753	-0.172226	-0.976341	-0.598712	-0.771227	0.216224	-0.790220	0.612819	-0.002274
52042		-0.130750	-0.172198	-0.976346	-0.598677	-0.771261	0.216201	-0.790247	0.612784	-0.002249
52043		-0.130768	-0.172215	-0.976341	-0.598668	-0.771261	0.216225	-0.790251	0.612780	-0.002244
52044		-0.130770	-0.172237	-0.976337	-0.598667	-0.771257	0.216244	-0.790251	0.612779	-0.002255
52045		-0.130793	-0.172324	-0.976318	-0.598547	-0.771326	0.216327	-0.790338	0.612667	-0.002260
52046		-0.130792	-0.172361	-0.976312	-0.598572	-0.771298	0.216355	-0.790319	0.612691	-0.002291
52047		-0.130784	-0.172408	-0.976305	-0.598542	-0.771313	0.216388	-0.790344	0.612659	-0.002318
52048		-0.130827	-0.172479	-0.976286	-0.598572	-0.771267	0.216470	-0.790314	0.612698	-0.002339
52049		-0.130824	-0.172569	-0.976271	-0.598577	-0.771243	0.216539	-0.790310	0.612702	-0.002398
52050		-0.130844	-0.172620	-0.976259	-0.598641	-0.771179	0.216592	-0.790258	0.612769	-0.002433
52051		-0.130855	-0.172690	-0.976245	-0.598671	-0.771138	0.216653	-0.790234	0.612800	-0.002477
52052		-0.130860	-0.172743	-0.976235	-0.598710	-0.771096	0.216698	-0.790204	0.612839	-0.002518
52053		-0.130865	-0.172805	-0.976224	-0.598772	-0.771033	0.216750	-0.790156	0.612900	-0.002569
52054		-0.130895	-0.172876	-0.976207	-0.598796	-0.770993	0.216825	-0.790133	0.612930	-0.002598
52055		-0.130923	-0.172902	-0.976199	-0.598947	-0.770865	0.216861	-0.790014	0.613084	-0.002635
52056		-0.130923	-0.172945	-0.976191	-0.598900	-0.770892	0.216896	-0.790049	0.613038	-0.002649
52057		-0.130888	-0.172993	-0.976187	-0.598829	-0.770942	0.216912	-0.790109	0.612961	-0.002687
52058		-0.130853	-0.173004	-0.976190	-0.598764	-0.770997	0.216900	-0.790164	0.612889	-0.002701
52059		-0.130787	-0.173034	-0.976194	-0.598545	-0.771171	0.216884	-0.790341	0.612661	-0.002710
52060		-0.130759	-0.173028	-0.976198	-0.598472	-0.771234	0.216862	-0.790401	0.612584	-0.002706
52061		-0.130810	-0.172988	-0.976199	-0.598566	-0.771161	0.216862	-0.790321	0.612687	-0.002669
52062		-0.130760	-0.172962	-0.976210	-0.598526	-0.771206	0.216811	-0.790359	0.612638	-0.002680
52063		-0.130733	-0.172909	-0.976223	-0.598484	-0.771255	0.216752	-0.790396	0.612591	-0.002655
52064		-0.130677	-0.172794	-0.976251	-0.598462	-0.771308	0.216627	-0.790422	0.612557	-0.002619
52065		-0.130613	-0.172782	-0.976262	-0.598193	-0.771530	0.216579	-0.790636	0.612281	-0.002585
52066		-0.130562	-0.172690	-0.976285	-0.598092	-0.771637	0.216476	-0.790721	0.612172	-0.002539
52067		-0.130524	-0.172574	-0.976310	-0.598136	-0.771635	0.216361	-0.790694	0.612207	-0.002506
52068		-0.130481	-0.172498	-0.976329	-0.598068	-0.771712	0.216275	-0.790752	0.612131	-0.002472
52069		-0.130387	-0.172451	-0.976350	-0.597810	-0.771938	0.216181	-0.790963	0.611859	-0.002443
52070		-0.130357	-0.172340	-0.976374	-0.597727	-0.772032	0.216075	-0.791030	0.611772	-0.002373
52071		-0.130277	-0.172279	-0.976395	-0.597302	-0.772388	0.215979	-0.791365	0.611340	-0.002278
52072		-0.130241	-0.172186	-0.976417	-0.597227	-0.772473	0.215883	-0.791428	0.611259	-0.002226
52073		-0.130161	-0.172090	-0.976444	-0.597024	-0.772664	0.215759	-0.791594	0.611044	-0.002171
52074		-0.130148	-0.171963	-0.976468	-0.596919	-0.772775	0.215651	-0.791675	0.610939	-0.002073
52075		-0.130131	-0.171857	-0.976489	-0.596862	-0.772846	0.215557	-0.791721	0.610879	-0.002004
52076		-0.130112	-0.171713	-0.976517	-0.596744	-0.772972	0.215432	-0.791813	0.610761	-0.001896
52077		-0.130099	-0.171623	-0.976535	-0.596689	-0.773037	0.215353	-0.791857	0.610704	-0.001834
52078		-0.130058	-0.171499	-0.976562	-0.596553	-0.773176	0.215230	-0.791966	0.610563	-0.001750
52079		-0.129987	-0.171406	-0.976588	-0.596201	-0.773479	0.215114	-0.792242	0.610204	-0.001650
52080		-0.129952	-0.171332	-0.976605	-0.596099	-0.773580	0.215034	-0.792324	0.610098	-0.001603
52081		-0.129940	-0.171288	-0.976614	-0.596001	-0.773667	0.214992	-0.792400	0.610000	-0.001558
52082		-0.129906	-0.171246	-0.976626	-0.595940	-0.773729	0.214938	-0.792451	0.609933	-0.001540
52083		-0.129841	-0.171252	-0.976634	-0.595751	-0.773885	0.214903	-0.792605	0.609734	-0.001542
52084		-0.129811	-0.171213	-0.976645	-0.595637	-0.773986	0.214855	-0.792695	0.609616	-0.001509
52085		-0.129776	-0.171165	-0.976658	-0.595651	-0.773992	0.214795	-0.792690	0.609623	-0.001509
52086		-0.129717	-0.171116	-0.976674	-0.595440	-0.774175	0.214721	-0.792859	0.609404	-0.001466
52087		-0.129653	-0.171097	-0.976686	-0.595156	-0.774408	0.214667	-0.793082	0.609113	-0.001425
52088		-0.129626	-0.171029	-0.976702	-0.594949	-0.774586	0.214597	-0.793242	0.608905	-0.001348
52089		-0.129524	-0.171000	-0.976720	-0.594728	-0.774779	0.214513	-0.793424	0.608667	-0.001346
52090		-0.129441	-0.170947	-0.976741	-0.594597	-0.774905	0.214420	-0.793536	0.608522	-0.001340
52091		-0.129381	-0.170946	-0.976749	-0.594441	-0.775035	0.214383	-0.793662	0.608357	-0.001343
52092		-0.129325	-0.170942	-0.976757	-0.594337	-0.775126	0.214347	-0.793750	0.608243	-0.001354
52093		-0.129279	-0.170950	-0.976762	-0.594239	-0.775206	0.214325	-0.793831	0.608137	-0.001367
52094		-0.129204	-0.170964	-0.976769	-0.594136	-0.775295	0.214290	-0.793920	0.608021	-0.001405
52095		-0.129139	-0.170987	-0.976774	-0.593917	-0.775468	0.214269	-0.794094	0.607793	-0.001408
52096		-0.129091	-0.171004	-0.976777	-0.593753	-0.775598	0.214254	-0.794225	0.607623	-0.001412
52097		-0.129107	-0.171038	-0.976769	-0.593698	-0.775630	0.214291	-0.794264	0.607572	-0.001406
52098		-0.129132	-0.171099	-0.976755	-0.593636	-0.775660	0.214355	-0.794305	0.607517	-0.001408
52099		-0.129131	-0.171219	-0.976734	-0.593421	-0.775798	0.214450	-0.794466	0.607307	-0.001425
52100		-0.129185	-0.171356	-0.976703	-0.593499	-0.775700	0.214592	-0.794400	0.607394	-0.001491
52101		-0.129264	-0.171533	-0.976661	-0.593522	-0.775630	0.214780	-0.794369	0.607433	-0.001547
52102		-0.129317	-0.171631	-0.976637	-0.593651	-0.775500	0.214890	-0.794264	0.607571	-0.001604
52103		-0.129400	-0.171730	-0.976609	-0.593762	-0.775380	0.215018	-0.794168	0.607697	-0.001633
52104		-0.129438	-0.171756	-0.976599	-0.593685	-0.775426	0.215063	-0.794219	0.607630	-0.001599
52105		-0.129433	-0.171834	-0.976586	-0.593354	-0.775664	0.215121	-0.794467	0.607305	-0.001562
52106		-0.129457	-0.171829	-0.976584	-0.593231	-0.775755	0.215132	-0.794555	0.607190	-0.001508
52107		-0.129443	-0.171843	-0.976583	-0.593134	-0.775828	0.215135	-0.794630	0.607092	-0.001500
52108		-0.129435	-0.171845	-0.976584	-0.593171	-0.775800	0.215132	-0.794603	0.607127	-0.001517
52109		-0.129435	-0.171874	-0.976579	-0.593384	-0.775632	0.215155	-0.794445	0.607334	-0.001594
52110		-0.129461	-0.171916	-0.976568	-0.593579	-0.775469	0.215204	-0.794295	0.607530	-0.001653
52111		-0.129397	-0.172066	-0.976550	-0.593533	-0.775482	0.215284	-0.794340	0.607471	-0.001781
52112		-0.129417	-0.172144	-0.976533	-0.593709	-0.775326	0.215358	-0.794204	0.607648	-0.001863
52113		-0.129396	-0.172179	-0.976530	-0.593854	-0.775211	0.215372	-0.794100	0.607784	-0.001940
52114		-0.129341	-0.172168	-0.976539	-0.593841	-0.775233	0.215330	-0.794118	0.607760	-0.001971
52115		-0.129265	-0.172210	-0.976542	-0.593561	-0.775450	0.215318	-0.794340	0.607471	-0.001978
52116		-0.129196	-0.172149	-0.976562	-0.593528	-0.775501	0.215227	-0.794376	0.607423	-0.001984
52117		-0.129175	-0.172085	-0.976576	-0.593626	-0.775443	0.215164	-0.794306	0.607515	-0.001986
52118		-0.129153	-0.172044	-0.976586	-0.593782	-0.775337	0.215117	-0.794193	0.607662	-0.002020
52119		-0.129172	-0.171943	-0.976601	-0.594333	-0.774934	0.215047	-0.793778	0.608204	-0.002091
52120		-0.129216	-0.171942	-0.976596	-0.594624	-0.774704	0.215073	-0.793552	0.608498	-0.002137
52121		-0.129175	-0.171968	-0.976597	-0.594728	-0.774625	0.215068	-0.793481	0.608591	-0.002212
52122		-0.129161	-0.171941	-0.976603	-0.594916	-0.774489	0.215038	-0.793342	0.608772	-0.002257
52123		-0.129119	-0.171911	-0.976614	-0.594925	-0.774496	0.214989	-0.793343	0.608771	-0.002272
52124		-0.129082	-0.171851	-0.976629	-0.594870	-0.774558	0.214918	-0.793390	0.608709	-0.002247
52125		-0.128938	-0.171710	-0.976673	-0.594637	-0.774792	0.214720	-0.793588	0.608452	-0.002205
52126		-0.128872	-0.171568	-0.976707	-0.594515	-0.774928	0.214567	-0.793690	0.608319	-0.002134
52127		-0.128745	-0.171356	-0.976761	-0.594270	-0.775183	0.214322	-0.793894	0.608053	-0.002031
52128		-0.128632	-0.171228	-0.976798	-0.594210	-0.775276	0.214152	-0.793957	0.607970	-0.002020
52129		-0.128617	-0.171236	-0.976799	-0.594064	-0.775389	0.214150	-0.794069	0.607825	-0.001997
52130		-0.128698	-0.171278	-0.976781	-0.594230	-0.775239	0.214232	-0.793932	0.608003	-0.002007
52131		-0.128883	-0.171484	-0.976720	-0.594605	-0.774876	0.214507	-0.793621	0.608409	-0.002097
52132		-0.129212	-0.171814	-0.976619	-0.594791	-0.774605	0.214969	-0.793428	0.608660	-0.002105
52133		-0.129702	-0.172323	-0.976464	-0.594584	-0.774568	0.215670	-0.793503	0.608563	-0.001997
52134		-0.130358	-0.173055	-0.976247	-0.594157	-0.774622	0.216652	-0.793716	0.608286	-0.001844
52135		-0.131275	-0.173930	-0.975969	-0.593721	-0.774606	0.217904	-0.793891	0.608058	-0.001580
52136		-0.132499	-0.175025	-0.975608	-0.592854	-0.774813	0.219519	-0.794335	0.607479	-0.001102
52137		-0.134288	-0.176438	-0.975108	-0.592184	-0.774697	0.221728	-0.794534	0.607219	-0.000451
52138		-0.136575	-0.178194	-0.974471	-0.591756	-0.774222	0.224512	-0.794463	0.607312	0.000292
52139		-0.139434	-0.180441	-0.973652	-0.591538	-0.773359	0.228034	-0.794129	0.607748	0.001094
52140		-0.142946	-0.183234	-0.972621	-0.591777	-0.771878	0.232389	-0.793326	0.608794	0.001903
52141		-0.147200	-0.186788	-0.971310	-0.592118	-0.769965	0.237803	-0.792293	0.610134	0.002739
52142		-0.152514	-0.191369	-0.969596	-0.592293	-0.767672	0.244681	-0.791157	0.611602	0.003734
52143		-0.158862	-0.197090	-0.967429	-0.591931	-0.765219	0.253096	-0.790178	0.612858	0.004900
52144		-0.166128	-0.204052	-0.964761	-0.591042	-0.762543	0.263056	-0.789349	0.613915	0.006076
52145		-0.174153	-0.212149	-0.961594	-0.587507	-0.761290	0.274360	-0.790257	0.612724	0.007942
52146		-0.182725	-0.221029	-0.957997	-0.580351	-0.762280	0.286568	-0.793602	0.608338	0.011013
52147		-0.191581	-0.230571	-0.954009	-0.568998	-0.765909	0.299373	-0.799711	0.600184	0.015539
52148		-0.200993	-0.240525	-0.949605	-0.554224	-0.771400	0.312694	-0.807736	0.589143	0.021741
52149		-0.211289	-0.250610	-0.944750	-0.535945	-0.778606	0.326399	-0.817386	0.575298	0.030198
52150		-0.222907	-0.260295	-0.939446	-0.515856	-0.786213	0.340238	-0.827167	0.560460	0.040978
52151		-0.235695	-0.270332	-0.933471	-0.493815	-0.793972	0.354618	-0.837015	0.544544	0.053641
52152		-0.249667	-0.280713	-0.926750	-0.471957	-0.800412	0.369591	-0.845531	0.529661	0.067352
52153		-0.264628	-0.292145	-0.919034	-0.451460	-0.804595	0.385760	-0.852148	0.516990	0.081027
52154		-0.280545	-0.304701	-0.910193	-0.434600	-0.805177	0.403500	-0.855814	0.508770	0.093465
52155		-0.296602	-0.319216	-0.900071	-0.419268	-0.803272	0.423047	-0.858045	0.502848	0.104415
52156		-0.313303	-0.334702	-0.888716	-0.406792	-0.798326	0.444068	-0.858115	0.500651	0.113964
52157		-0.330156	-0.351354	-0.876098	-0.394016	-0.792116	0.466158	-0.857758	0.499101	0.123083
52158		-0.347463	-0.368253	-0.862357	-0.380528	-0.785151	0.488607	-0.857011	0.497924	0.132680
52159		-0.364861	-0.385422	-0.847541	-0.364284	-0.778634	0.510908	-0.856839	0.495156	0.143690
52160		-0.382735	-0.402178	-0.831726	-0.346431	-0.772105	0.532765	-0.856446	0.492043	0.156184
52161		-0.400979	-0.418847	-0.814729	-0.325823	-0.765999	0.554153	-0.856187	0.487661	0.170679
52162		-0.419757	-0.435172	-0.796511	-0.303251	-0.759894	0.574978	-0.855478	0.482894	0.187005
52163		-0.438489	-0.451770	-0.776937	-0.278031	-0.753883	0.595280	-0.854650	0.477037	0.204964
52164		-0.457125	-0.468246	-0.756163	-0.251729	-0.747313	0.614944	-0.853035	0.471455	0.223745
52165		-0.475008	-0.485273	-0.734083	-0.223869	-0.740116	0.634122	-0.851029	0.465551	0.242923
52166		-0.492447	-0.502382	-0.710710	-0.196055	-0.731568	0.652971	-0.847973	0.460891	0.261764
52167		-0.509267	-0.519744	-0.685939	-0.168174	-0.721572	0.671603	-0.844017	0.457383	0.280066
52168		-0.525524	-0.537219	-0.659712	-0.139725	-0.710394	0.689795	-0.839227	0.454682	0.298266
52169		-0.541163	-0.554691	-0.632029	-0.110658	-0.698085	0.707413	-0.833605	0.452765	0.316397
52170		-0.556110	-0.571971	-0.602985	-0.080624	-0.684971	0.724096	-0.827189	0.451292	0.334805
52171		-0.570317	-0.589109	-0.572441	-0.049054	-0.671219	0.739634	-0.819959	0.449906	0.353909
52172		-0.583774	-0.605785	-0.540585	-0.015682	-0.657277	0.753486	-0.811765	0.448342	0.374201
52173		-0.596182	-0.622090	-0.507514	0.019369	-0.643101	0.765536	-0.802615	0.446569	0.395455
52174		-0.607646	-0.637811	-0.473248	0.055487	-0.628511	0.775819	-0.792267	0.445164	0.417303
52175		-0.617858	-0.653041	-0.437937	0.092369	-0.613392	0.784358	-0.780845	0.444171	0.439310
52176		-0.626782	-0.667728	-0.401601	0.129618	-0.597573	0.791269	-0.768338	0.443899	0.461097
52177		-0.634170	-0.681942	-0.364394	0.167137	-0.581048	0.796522	-0.754913	0.444227	0.482461
52178		-0.639990	-0.695515	-0.326607	0.204714	-0.564032	0.799975	-0.740611	0.445115	0.503357
52179		-0.644064	-0.708597	-0.288221	0.242314	-0.546351	0.801738	-0.725579	0.446531	0.523589
52180		-0.646496	-0.721010	-0.249373	0.279669	-0.528088	0.801816	-0.709808	0.448629	0.543051
52181		-0.647230	-0.732804	-0.209980	0.316840	-0.509145	0.800240	-0.693329	0.451409	0.561716
52182		-0.646637	-0.743560	-0.170234	0.353544	-0.489900	0.796872	-0.675920	0.455101	0.579668
52183		-0.644508	-0.753373	-0.130533	0.389694	-0.470548	0.791658	-0.657836	0.459362	0.596857
52184		-0.641080	-0.762058	-0.091015	0.425350	-0.451503	0.784361	-0.638822	0.464125	0.613591
52185		-0.636129	-0.769852	-0.051656	0.460469	-0.432500	0.775186	-0.619119	0.469332	0.629618
52186		-0.629820	-0.776637	-0.012708	0.494634	-0.413634	0.764359	-0.598886	0.475122	0.644666
52187		-0.622136	-0.782486	0.025725	0.527595	-0.394749	0.752208	-0.578437	0.481548	0.658424
52188		-0.613247	-0.787325	0.063615	0.559237	-0.375888	0.738893	-0.557837	0.488700	0.670813
52189		-0.602987	-0.791351	0.100845	0.589667	-0.356988	0.724467	-0.537307	0.496309	0.681893
52190		-0.591586	-0.794459	0.137335	0.618702	-0.338124	0.709140	-0.516947	0.504487	0.691563
52191		-0.578944	-0.796860	0.172735	0.646250	-0.319272	0.693128	-0.497177	0.512912	0.699811
52192		-0.565087	-0.798684	0.206835	0.672284	-0.300441	0.676586	-0.478237	0.521382	0.706718
52193		-0.550069	-0.799955	0.239782	0.696801	-0.281375	0.659770	-0.460318	0.530000	0.712185
52194		-0.534049	-0.800677	0.271491	0.719953	-0.262340	0.642530	-0.443236	0.538604	0.716552
52195		-0.517191	-0.800786	0.302084	0.741818	-0.243381	0.624878	-0.426872	0.547272	0.719912
52196		-0.499853	-0.800135	0.331557	0.762423	-0.224871	0.606749	-0.410924	0.556072	0.722444
52197		-0.481714	-0.799009	0.359911	0.781779	-0.206259	0.588455	-0.395946	0.564838	0.724006
52198		-0.462941	-0.797431	0.387025	0.799890	-0.187707	0.570036	-0.381917	0.573471	0.724755
52199		-0.443563	-0.795484	0.412864	0.816831	-0.169236	0.551494	-0.368834	0.581863	0.724843
52200		-0.423832	-0.793072	0.437497	0.832721	-0.151184	0.532653	-0.356289	0.590068	0.724484
52201		-0.403673	-0.790374	0.460823	0.847489	-0.133270	0.513810	-0.344688	0.597954	0.723630
52202		-0.383351	-0.787366	0.482802	0.861061	-0.115588	0.495190	-0.334089	0.605553	0.722281
52203		-0.362832	-0.784085	0.503552	0.873440	-0.097843	0.477000	-0.324740	0.612893	0.720352
52204		-0.342222	-0.780611	0.523002	0.884708	-0.080203	0.459194	-0.316505	0.619850	0.718060
52205		-0.321369	-0.777038	0.541233	0.894963	-0.062449	0.441748	-0.309456	0.626348	0.715490
52206		-0.300237	-0.773428	0.558272	0.904392	-0.044777	0.424346	-0.303203	0.632301	0.712926
52207		-0.278886	-0.769773	0.574171	0.913065	-0.027295	0.406899	-0.297547	0.637734	0.710465
52208		-0.257380	-0.766172	0.588843	0.921000	-0.010092	0.389433	-0.292430	0.642557	0.708241
52209		-0.235656	-0.762753	0.602225	0.928110	0.007154	0.372238	-0.288234	0.646651	0.706232
52210		-0.213774	-0.759497	0.614381	0.934374	0.024536	0.355447	-0.285036	0.650048	0.704410
52211		-0.191726	-0.756435	0.625338	0.939844	0.042041	0.339008	-0.282727	0.652717	0.702870
52212		-0.169501	-0.753623	0.635076	0.944609	0.059527	0.322754	-0.281040	0.654606	0.701789
52213		-0.147013	-0.751150	0.643553	0.948678	0.077097	0.306702	-0.279995	0.655614	0.701266
52214		-0.124289	-0.749027	0.650777	0.952009	0.094859	0.290999	-0.279699	0.655714	0.701290
52215		-0.101146	-0.747316	0.656726	0.954671	0.112844	0.275443	-0.279950	0.654817	0.702027
52216		-0.077589	-0.746169	0.661220	0.956724	0.130846	0.259919	-0.280461	0.652773	0.703725
52217		-0.053631	-0.745470	0.664378	0.958186	0.148860	0.244378	-0.281076	0.649704	0.706315
52218		-0.029444	-0.745303	0.666076	0.959141	0.166525	0.228731	-0.281392	0.645596	0.709947
52219		-0.005110	-0.745477	0.666511	0.959485	0.184114	0.213283	-0.281712	0.640598	0.714334
52220		0.019116	-0.745990	0.665682	0.959276	0.201358	0.198102	-0.281823	0.634786	0.719460
52221		0.043219	-0.746697	0.663759	0.958589	0.218187	0.183035	-0.281495	0.628361	0.725205
52222		0.067144	-0.747631	0.660711	0.957593	0.234251	0.167754	-0.280190	0.621429	0.731656
52223		0.090659	-0.748783	0.656586	0.956272	0.249546	0.152549	-0.278074	0.614044	0.738664
52224		0.113754	-0.750113	0.651452	0.954404	0.264659	0.138086	-0.275993	0.606041	0.746017
52225		0.136387	-0.751613	0.645350	0.951981	0.279680	0.124542	-0.274099	0.597376	0.753666
52226		0.158397	-0.753193	0.638444	0.949015	0.294617	0.112120	-0.272545	0.588134	0.761458
52227		0.179719	-0.754717	0.630954	0.945650	0.309248	0.100553	-0.271010	0.578591	0.769276
52228		0.200096	-0.756140	0.623068	0.942113	0.323111	0.089564	-0.269043	0.569080	0.777023
52229		0.219338	-0.757376	0.615038	0.938548	0.335980	0.079027	-0.266494	0.559909	0.784527
52230		0.237068	-0.758331	0.607234	0.935186	0.347418	0.068764	-0.263110	0.551575	0.791542
52231		0.252986	-0.758986	0.599949	0.932201	0.357144	0.058727	-0.258841	0.544416	0.797880
52232		0.266601	-0.759304	0.593617	0.929744	0.364906	0.049197	-0.253969	0.538796	0.803242
52233		0.277873	-0.759240	0.588507	0.927787	0.370911	0.040447	-0.248993	0.534770	0.807480
52234		0.286702	-0.758765	0.584874	0.926373	0.375190	0.032635	-0.244201	0.532455	0.810468
52235		0.293169	-0.757855	0.582845	0.925486	0.377898	0.025852	-0.239848	0.531836	0.812172
52236		0.297261	-0.756591	0.582414	0.925111	0.379151	0.020368	-0.236233	0.532743	0.812637
52237		0.298923	-0.754974	0.583661	0.925287	0.378920	0.016251	-0.233430	0.535195	0.811835
52238		0.298193	-0.753023	0.586547	0.925970	0.377349	0.013698	-0.231648	0.539041	0.809799
52239		0.295059	-0.750811	0.590950	0.927137	0.374500	0.012892	-0.230990	0.544088	0.806605
52240		0.289754	-0.748225	0.596827	0.928638	0.370726	0.013922	-0.231676	0.550202	0.802249
52241		0.282526	-0.745239	0.603985	0.930383	0.366211	0.016651	-0.233595	0.557233	0.796822
52242		0.273427	-0.741918	0.612205	0.932405	0.360815	0.020827	-0.236345	0.565128	0.790425
52243		0.262695	-0.738279	0.621237	0.934646	0.354613	0.026199	-0.239641	0.573754	0.783185
52244		0.250443	-0.734347	0.630883	0.937129	0.347471	0.032441	-0.243037	0.583094	0.775199
52245		0.236784	-0.730192	0.640901	0.939844	0.339328	0.039373	-0.246225	0.593024	0.766613
52246		0.221704	-0.725858	0.651135	0.942704	0.330274	0.047197	-0.249312	0.603364	0.757493
52247		0.205375	-0.721321	0.661451	0.945642	0.320390	0.055775	-0.252154	0.614042	0.747911
52248		0.188002	-0.716657	0.671609	0.948483	0.310024	0.065312	-0.255021	0.624731	0.738022
52249		0.169637	-0.711830	0.681558	0.951171	0.299220	0.075767	-0.257869	0.635426	0.727831
52250		0.150374	-0.706765	0.691282	0.953746	0.287812	0.086790	-0.260299	0.646257	0.717354
52251		0.130341	-0.701589	0.700560	0.956076	0.276047	0.098572	-0.262544	0.656941	0.706753
52252		0.109708	-0.696271	0.709346	0.958003	0.264294	0.111257	-0.264941	0.667350	0.696025
52253		0.088564	-0.690897	0.717508	0.959434	0.252738	0.124939	-0.267661	0.677337	0.685254
52254		0.067036	-0.685451	0.725026	0.960267	0.241629	0.139652	-0.270912	0.686857	0.674414
52255		0.045251	-0.680142	0.731683	0.960500	0.230937	0.155267	-0.274576	0.695755	0.663726
52256		0.023309	-0.674882	0.737557	0.960144	0.220656	0.171562	-0.278531	0.704162	0.653128
52257		0.001418	-0.669868	0.742479	0.959238	0.210732	0.188291	-0.282594	0.711948	0.642862
52258		-0.020270	-0.665148	0.746436	0.957899	0.200938	0.205068	-0.286388	0.719168	0.633072
52259		-0.041869	-0.660793	0.749399	0.956205	0.190970	0.221814	-0.289686	0.725867	0.623858
52260		-0.063462	-0.656730	0.751451	0.954191	0.180678	0.238487	-0.292392	0.732162	0.615179
52261		-0.085115	-0.652986	0.752572	0.951816	0.170055	0.255201	-0.294621	0.738032	0.607048
52262		-0.106425	-0.649654	0.752744	0.949014	0.159552	0.271875	-0.296726	0.743299	0.599550
52263		-0.127068	-0.646923	0.751894	0.945819	0.149326	0.288319	-0.298798	0.747792	0.592898
52264		-0.146898	-0.644971	0.749955	0.942188	0.139609	0.304617	-0.301170	0.751347	0.587176
52265		-0.165877	-0.643698	0.747086	0.938179	0.130392	0.320653	-0.303818	0.754089	0.582275
52266		-0.184121	-0.642980	0.743422	0.933941	0.121299	0.336217	-0.306357	0.756216	0.578172
52267		-0.201376	-0.642688	0.739189	0.929621	0.112381	0.350964	-0.308632	0.757841	0.574825
52268		-0.217474	-0.642766	0.734545	0.925333	0.103696	0.364700	-0.310586	0.759012	0.572222
52269		-0.232238	-0.643187	0.729641	0.921054	0.095672	0.377500	-0.312609	0.759708	0.570192
52270		-0.245371	-0.643859	0.724734	0.917021	0.088321	0.388938	-0.314430	0.760030	0.568760
52271		-0.256696	-0.644762	0.719992	0.913377	0.081724	0.398828	-0.315990	0.760002	0.567933
52272		-0.266397	-0.645642	0.715667	0.910198	0.075786	0.407180	-0.317130	0.759870	0.567473
52273		-0.274450	-0.646326	0.711997	0.907568	0.070602	0.413926	-0.317800	0.759788	0.567209
52274		-0.281008	-0.646598	0.709186	0.905493	0.066215	0.419164	-0.317990	0.759952	0.566883
52275		-0.286058	-0.646335	0.707405	0.904087	0.062554	0.422745	-0.317485	0.760486	0.566449
52276		-0.289677	-0.645535	0.706663	0.903405	0.059465	0.424646	-0.316145	0.761412	0.565953
52277		-0.291952	-0.644188	0.706956	0.903403	0.056970	0.424991	-0.314049	0.762743	0.565328
52278		-0.292997	-0.642352	0.708192	0.904073	0.054902	0.423836	-0.311134	0.764440	0.564648
52279		-0.292819	-0.640142	0.710264	0.905307	0.053431	0.421384	-0.307696	0.766396	0.563879
52280		-0.291395	-0.637528	0.713195	0.907032	0.052748	0.417745	-0.303944	0.768619	0.562888
52281		-0.288801	-0.634460	0.716976	0.909282	0.052633	0.412838	-0.299666	0.771161	0.561703
52282		-0.285092	-0.631005	0.721495	0.912068	0.052852	0.406618	-0.294711	0.773976	0.560452
52283		-0.280365	-0.627187	0.726658	0.915198	0.053653	0.399417	-0.289497	0.777018	0.558958
52284		-0.274601	-0.623144	0.732315	0.918528	0.055288	0.391472	-0.284431	0.780151	0.557193
52285		-0.267767	-0.618959	0.738370	0.921938	0.058013	0.382968	-0.279876	0.783278	0.555108
52286		-0.260000	-0.614781	0.744610	0.925352	0.061702	0.374055	-0.275905	0.786281	0.552846
52287		-0.251380	-0.610555	0.751019	0.928783	0.066164	0.364670	-0.272341	0.789205	0.550441
52288		-0.242099	-0.606485	0.757340	0.932232	0.070963	0.354835	-0.268945	0.791922	0.548205
52289		-0.232159	-0.602616	0.763515	0.935641	0.076191	0.344631	-0.265854	0.794385	0.546144
52290		-0.221667	-0.598985	0.769468	0.938969	0.081764	0.334145	-0.263063	0.796575	0.544304
52291		-0.210472	-0.595797	0.775067	0.942188	0.087830	0.323369	-0.260736	0.798318	0.542867
52292		-0.198487	-0.593117	0.780266	0.945376	0.094181	0.312080	-0.258586	0.799589	0.542025
52293		-0.185538	-0.591186	0.784905	0.948543	0.100833	0.300166	-0.256598	0.800208	0.542056
52294		-0.171729	-0.590016	0.788917	0.951534	0.108051	0.287937	-0.255131	0.800129	0.542865
52295		-0.157007	-0.589594	0.792293	0.954264	0.116100	0.275502	-0.254419	0.799312	0.544399
52296		-0.141563	-0.589841	0.795014	0.956748	0.124665	0.262854	-0.254152	0.797839	0.546681
52297		-0.125411	-0.590771	0.797033	0.959022	0.133544	0.249884	-0.254063	0.795711	0.549815
52298		-0.108708	-0.592290	0.798358	0.961038	0.142704	0.236730	-0.254141	0.792987	0.553700
52299		-0.091501	-0.594361	0.798976	0.962810	0.152023	0.223353	-0.254215	0.789699	0.558346
52300		-0.073980	-0.597007	0.798818	0.964325	0.161332	0.209881	-0.254175	0.785847	0.563773
52301		-0.056213	-0.600128	0.797926	0.965547	0.170709	0.196414	-0.254086	0.781476	0.569856
52302		-0.038190	-0.603669	0.796320	0.966536	0.179985	0.182795	-0.253674	0.776653	0.576594
52303		-0.020074	-0.607564	0.794017	0.967166	0.189447	0.169412	-0.253352	0.771347	0.583812
52304		-0.001912	-0.611705	0.791084	0.967367	0.199308	0.156453	-0.253373	0.765567	0.591362
52305		0.016366	-0.616191	0.787426	0.967165	0.209518	0.143854	-0.253622	0.759217	0.599388
52306		0.034597	-0.621045	0.783011	0.966552	0.220015	0.131798	-0.254127	0.752261	0.607884
52307		0.052874	-0.626085	0.777960	0.965526	0.230895	0.120196	-0.254880	0.744785	0.616710
52308		0.071175	-0.631442	0.772150	0.964219	0.241747	0.108814	-0.255375	0.736776	0.626055
52309		0.089364	-0.637100	0.765583	0.962534	0.252820	0.098037	-0.256014	0.728139	0.635823
52310		0.107323	-0.643165	0.758169	0.960410	0.264253	0.088218	-0.257087	0.718686	0.646063
52311		0.125114	-0.649466	0.750027	0.957971	0.275774	0.078997	-0.258144	0.708620	0.656673
52312		0.142668	-0.656013	0.741143	0.955432	0.286806	0.069944	-0.258449	0.698133	0.667694
52313		0.159884	-0.662716	0.731604	0.952810	0.297351	0.061125	-0.258052	0.687307	0.678983
52314		0.176623	-0.669538	0.721473	0.950054	0.307576	0.052854	-0.257295	0.676103	0.690423
52315		0.192828	-0.676256	0.710982	0.947111	0.317691	0.045305	-0.256511	0.664643	0.701749
52316		0.208468	-0.682685	0.700344	0.944127	0.327374	0.038085	-0.255275	0.653274	0.712788
52317		0.223370	-0.688735	0.689746	0.941333	0.336078	0.030739	-0.252980	0.642415	0.723398
52318		0.237051	-0.694288	0.679538	0.938946	0.343282	0.023190	-0.249374	0.632552	0.733274
52319		0.249214	-0.699155	0.670130	0.936967	0.349064	0.015735	-0.244920	0.623968	0.742077
52320		0.259771	-0.703380	0.661647	0.935411	0.353460	0.008500	-0.239844	0.616704	0.749768
52321		0.268708	-0.706961	0.654219	0.934283	0.356528	0.001532	-0.234330	0.610814	0.756304
52322		0.275983	-0.709862	0.648020	0.933625	0.358214	-0.005220	-0.228424	0.606448	0.761606
52323		0.281851	-0.712038	0.643088	0.933406	0.358620	-0.012020	-0.222066	0.603651	0.765698
52324		0.286247	-0.713517	0.639497	0.933570	0.357916	-0.018534	-0.215662	0.602321	0.768570
52325		0.289152	-0.714198	0.637427	0.933919	0.356677	-0.024013	-0.210205	0.602249	0.770137
52326		0.290575	-0.714142	0.636841	0.934318	0.355352	-0.027821	-0.206435	0.603097	0.770493
52327		0.290396	-0.713281	0.637887	0.934752	0.354062	-0.029633	-0.204715	0.604872	0.769560
52328		0.288743	-0.711833	0.640251	0.935246	0.352761	-0.029581	-0.204798	0.607334	0.767596
52329		0.285544	-0.709839	0.643888	0.935880	0.351216	-0.027844	-0.206379	0.610553	0.764613
52330		0.280905	-0.707391	0.648606	0.936730	0.349168	-0.024875	-0.208876	0.614557	0.760718
52331		0.274971	-0.704528	0.654241	0.937857	0.346375	-0.021174	-0.211695	0.619407	0.755990
52332		0.267747	-0.701301	0.660673	0.939376	0.342458	-0.017179	-0.214205	0.625220	0.750478
52333		0.259372	-0.697722	0.667765	0.941258	0.337436	-0.013028	-0.216238	0.631919	0.744258
52334		0.249888	-0.693905	0.675316	0.943455	0.331390	-0.008596	-0.217828	0.639278	0.737478
52335		0.239491	-0.689832	0.683210	0.945883	0.324484	-0.003939	-0.218973	0.647180	0.730212
52336		0.228171	-0.685660	0.691237	0.948472	0.316860	0.001222	-0.219863	0.655340	0.722627
52337		0.216122	-0.681343	0.699330	0.951009	0.309078	0.007226	-0.221071	0.663508	0.714762
52338		0.203518	-0.677006	0.707279	0.953426	0.301299	0.014056	-0.222618	0.671478	0.706795
52339		0.190314	-0.672666	0.715053	0.955717	0.293485	0.021721	-0.224468	0.679255	0.698733
52340		0.176467	-0.668373	0.722590	0.957888	0.285551	0.030196	-0.226519	0.686832	0.690617
52341		0.161879	-0.664251	0.729771	0.959986	0.277260	0.039421	-0.228521	0.694189	0.682554
52342		0.146660	-0.660134	0.736691	0.961970	0.268678	0.049248	-0.230443	0.701452	0.674434
52343		0.130919	-0.656131	0.743204	0.963744	0.260039	0.059805	-0.232502	0.708429	0.666387
52344		0.114711	-0.652259	0.749266	0.965300	0.251311	0.070988	-0.234602	0.715123	0.658454
52345		0.098133	-0.648512	0.754853	0.966585	0.242613	0.082776	-0.236818	0.721506	0.650650
52346		0.081117	-0.644904	0.759947	0.967565	0.233967	0.095270	-0.239243	0.727570	0.642966
52347		0.063739	-0.641451	0.764512	0.968146	0.225617	0.108584	-0.242138	0.733238	0.635399
52348		0.046217	-0.638205	0.768478	0.968180	0.218030	0.122842	-0.245950	0.738348	0.627974
52349		0.028738	-0.635302	0.771729	0.967619	0.211371	0.137972	-0.250775	0.742774	0.620804
52350		0.011387	-0.632864	0.774180	0.966569	0.205300	0.153608	-0.256152	0.746549	0.614044
52351		-0.005999	-0.631090	0.775687	0.965200	0.199152	0.169492	-0.261444	0.749710	0.607933
52352		-0.023112	-0.629766	0.776441	0.963636	0.192778	0.185046	-0.266217	0.752484	0.602409
52353		-0.039930	-0.628985	0.776391	0.961963	0.185952	0.200122	-0.270245	0.754851	0.597635
52354		-0.056670	-0.628629	0.775638	0.960169	0.178593	0.214896	-0.273613	0.756922	0.593469
52355		-0.073221	-0.628801	0.774111	0.958201	0.170894	0.229448	-0.276568	0.758554	0.590005
52356		-0.089668	-0.629627	0.771706	0.955899	0.163169	0.244198	-0.279672	0.759570	0.587228
52357		-0.105822	-0.630939	0.768581	0.953156	0.155896	0.259212	-0.283366	0.760008	0.584886
52358		-0.121830	-0.632549	0.764879	0.950140	0.148533	0.274174	-0.287038	0.760145	0.582914
52359		-0.137698	-0.634555	0.760513	0.946988	0.140673	0.288835	-0.290265	0.759968	0.581545
52360		-0.153087	-0.637006	0.755505	0.943719	0.132584	0.303013	-0.293189	0.759371	0.580857
52361		-0.167599	-0.639872	0.749983	0.940499	0.124318	0.316240	-0.295589	0.758359	0.580963
52362		-0.181361	-0.643175	0.743932	0.937360	0.115735	0.328576	-0.297431	0.756922	0.581896
52363		-0.194409	-0.646910	0.737369	0.934250	0.106997	0.340189	-0.298968	0.755023	0.583574
52364		-0.206558	-0.650954	0.730474	0.931191	0.098396	0.351000	-0.300360	0.752713	0.585839
52365		-0.217852	-0.655279	0.723291	0.928123	0.090129	0.361200	-0.301876	0.749991	0.588545
52366		-0.228412	-0.659801	0.715885	0.924937	0.082421	0.371076	-0.303841	0.746907	0.591448
52367		-0.238325	-0.664417	0.708345	0.921676	0.075171	0.380609	-0.306130	0.743572	0.594461
52368		-0.247498	-0.669108	0.700742	0.918618	0.067886	0.389272	-0.308036	0.740058	0.597853
52369		-0.255918	-0.673827	0.693155	0.915786	0.060639	0.397063	-0.309584	0.736397	0.601562
52370		-0.263502	-0.678605	0.685611	0.913146	0.053681	0.404083	-0.311017	0.732539	0.605520
52371		-0.270356	-0.683331	0.678208	0.910676	0.047053	0.410434	-0.312374	0.728591	0.609572
52372		-0.276633	-0.687896	0.671024	0.908182	0.041114	0.416551	-0.314133	0.724644	0.613361
52373		-0.282402	-0.692240	0.664118	0.905603	0.035986	0.422597	-0.316438	0.720769	0.616732
52374		-0.287643	-0.696373	0.657515	0.903121	0.031306	0.428244	-0.318801	0.716997	0.619904
52375		-0.292541	-0.700180	0.651282	0.900873	0.026616	0.433266	-0.320699	0.713471	0.622986
52376		-0.296933	-0.703699	0.645475	0.898871	0.022154	0.437653	-0.322276	0.710152	0.625957
52377		-0.300812	-0.706890	0.640171	0.896963	0.018337	0.441725	-0.323990	0.707086	0.628538
52378		-0.304072	-0.709835	0.635354	0.895108	0.015393	0.445584	-0.326071	0.704200	0.630698
52379		-0.306677	-0.712574	0.631022	0.893382	0.013211	0.449103	-0.328356	0.701473	0.632549
52380		-0.308737	-0.715065	0.627187	0.891929	0.011379	0.452031	-0.330369	0.698965	0.634275
52381		-0.310449	-0.717301	0.623779	0.890790	0.009546	0.454315	-0.331835	0.696698	0.636001
52382		-0.311863	-0.719353	0.620703	0.889972	0.007592	0.455952	-0.332703	0.694603	0.637837
52383		-0.313098	-0.721243	0.617883	0.889354	0.005590	0.457184	-0.333194	0.692660	0.639690
52384		-0.314126	-0.723030	0.615266	0.888866	0.003693	0.458152	-0.333530	0.690806	0.641517
52385		-0.314805	-0.724792	0.612841	0.888508	0.002069	0.458857	-0.333844	0.688964	0.643332
52386		-0.315124	-0.726594	0.610539	0.888322	0.000605	0.459220	-0.334036	0.687067	0.645259
52387		-0.315087	-0.728403	0.608399	0.888290	-0.000633	0.459283	-0.334158	0.685148	0.647233
52388		-0.314758	-0.730250	0.606351	0.888291	-0.001523	0.459279	-0.334465	0.683178	0.649154
52389		-0.314202	-0.732106	0.604399	0.888238	-0.001965	0.459379	-0.335126	0.681188	0.650902
52390		-0.313459	-0.733947	0.602549	0.888220	-0.002183	0.459412	-0.335869	0.679203	0.652591
52391		-0.312566	-0.735772	0.600784	0.888186	-0.002133	0.459479	-0.336790	0.677225	0.654170
52392		-0.311540	-0.737559	0.599124	0.888095	-0.001743	0.459658	-0.337981	0.675280	0.655565
52393		-0.310395	-0.739304	0.597565	0.887905	-0.000954	0.460027	-0.339530	0.673371	0.656728
52394		-0.309185	-0.740985	0.596108	0.887632	0.000131	0.460554	-0.341342	0.671521	0.657682
52395		-0.307880	-0.742599	0.594775	0.887345	0.001423	0.461103	-0.343261	0.669735	0.658504
52396		-0.306525	-0.744154	0.593529	0.887091	0.002754	0.461586	-0.345125	0.668002	0.659289
52397		-0.305109	-0.745672	0.592352	0.886895	0.004076	0.461953	-0.346880	0.666301	0.660089
52398		-0.303720	-0.747144	0.591211	0.886830	0.005129	0.462068	-0.348264	0.664643	0.661031
52399		-0.302362	-0.748511	0.590176	0.886882	0.005981	0.461958	-0.349311	0.663095	0.662033
52400		-0.301111	-0.749840	0.589128	0.886965	0.006638	0.461788	-0.350178	0.661586	0.663083
52401		-0.299922	-0.751047	0.588196	0.887025	0.007337	0.461663	-0.351047	0.660207	0.663997
52402		-0.298829	-0.752235	0.587235	0.887058	0.007954	0.461589	-0.351894	0.658847	0.664899
52403		-0.297700	-0.753388	0.586328	0.887128	0.008573	0.461443	-0.352672	0.657520	0.665800
52404		-0.296546	-0.754573	0.585389	0.887254	0.009097	0.461191	-0.353327	0.656153	0.666800
52405		-0.295286	-0.755754	0.584502	0.887414	0.009710	0.460871	-0.353980	0.654784	0.667799
52406		-0.293953	-0.756944	0.583633	0.887602	0.010367	0.460495	-0.354620	0.653398	0.668817
52407		-0.292486	-0.758208	0.582728	0.887755	0.011215	0.460179	-0.355447	0.651916	0.669823
52408		-0.290905	-0.759547	0.581776	0.887868	0.012236	0.459935	-0.356461	0.650338	0.670818
52409		-0.289028	-0.760881	0.580967	0.888059	0.013533	0.459529	-0.357510	0.648750	0.671796
52410		-0.286982	-0.762278	0.580150	0.888322	0.014882	0.458980	-0.358504	0.647079	0.672877
52411		-0.284851	-0.763653	0.579391	0.888627	0.016280	0.458341	-0.359446	0.645421	0.673966
52412		-0.282640	-0.765035	0.578651	0.889009	0.017637	0.457550	-0.360248	0.643748	0.675137
52413		-0.280300	-0.766381	0.578007	0.889426	0.019125	0.456678	-0.361044	0.642102	0.676279
52414		-0.278025	-0.767684	0.577376	0.889855	0.020524	0.455782	-0.361747	0.640500	0.677421
52415		-0.275712	-0.768903	0.576863	0.890489	0.021667	0.454489	-0.361957	0.638998	0.678726
52416		-0.273448	-0.769973	0.576513	0.891306	0.022525	0.452843	-0.361663	0.637679	0.680122
52417		-0.271149	-0.770929	0.576321	0.892238	0.023310	0.450963	-0.361095	0.636494	0.681532
52418		-0.268749	-0.771756	0.576339	0.893342	0.024022	0.448735	-0.360159	0.635465	0.682986
52419		-0.266146	-0.772434	0.576638	0.894628	0.024793	0.446124	-0.358898	0.634610	0.684443
52420		-0.263268	-0.773104	0.577062	0.896089	0.025617	0.443134	-0.357371	0.633762	0.686026
52421		-0.260094	-0.773740	0.577648	0.897655	0.026660	0.439891	-0.355761	0.632942	0.687618
52422		-0.256577	-0.774359	0.578392	0.899219	0.028154	0.436591	-0.354362	0.632120	0.689095
52423		-0.252645	-0.774948	0.579332	0.900722	0.030302	0.433337	-0.353369	0.631298	0.690358
52424		-0.248397	-0.775527	0.580394	0.902168	0.032940	0.430125	-0.352691	0.630455	0.691473
52425		-0.243856	-0.776070	0.581593	0.903674	0.035835	0.426720	-0.352006	0.629628	0.692575
52426		-0.239157	-0.776545	0.582908	0.905355	0.038617	0.422896	-0.350908	0.628877	0.693813
52427		-0.234266	-0.776880	0.584445	0.907409	0.041016	0.418242	-0.348896	0.628311	0.695340
52428		-0.229188	-0.777099	0.586165	0.909979	0.042730	0.412446	-0.345558	0.627926	0.697351
52429		-0.223909	-0.777187	0.588086	0.913037	0.043803	0.405519	-0.340924	0.627743	0.699793
52430		-0.218469	-0.777164	0.590158	0.916373	0.044510	0.397844	-0.335458	0.627722	0.702448
52431		-0.212760	-0.776974	0.592490	0.919724	0.045489	0.389922	-0.329911	0.627887	0.704923
52432		-0.206805	-0.776578	0.595113	0.922915	0.047053	0.382118	-0.324746	0.628262	0.706984
52433		-0.200550	-0.776000	0.598000	0.925913	0.049308	0.374506	-0.320103	0.628803	0.708619
52434		-0.194076	-0.775258	0.601091	0.928637	0.052299	0.367284	-0.316176	0.629476	0.709783
52435		-0.187363	-0.774376	0.604348	0.931173	0.055866	0.360271	-0.312748	0.630254	0.710612
52436		-0.180417	-0.773408	0.607692	0.933694	0.059614	0.353074	-0.309298	0.631099	0.711372
52437		-0.173333	-0.772256	0.611210	0.936286	0.063292	0.345490	-0.305492	0.632151	0.712081
52438		-0.166129	-0.770896	0.614915	0.939000	0.066757	0.337377	-0.301133	0.633453	0.712780
52439		-0.158733	-0.769299	0.618857	0.941820	0.070110	0.328725	-0.296276	0.635031	0.713412
52440		-0.151230	-0.767583	0.622853	0.944550	0.073581	0.320017	-0.291470	0.636712	0.713893
52441		-0.143492	-0.765785	0.626884	0.947065	0.077563	0.311530	-0.287189	0.638402	0.714119
52442		-0.135624	-0.763941	0.630872	0.949338	0.081992	0.303373	-0.283486	0.640055	0.714118
52443		-0.127634	-0.762083	0.634775	0.951390	0.086800	0.295504	-0.280296	0.641635	0.713960
52444		-0.119620	-0.760276	0.638492	0.953340	0.091593	0.287670	-0.277190	0.643111	0.713845
52445		-0.111513	-0.758503	0.642058	0.955249	0.096310	0.279686	-0.273979	0.644513	0.713819
52446		-0.103329	-0.756813	0.645413	0.957123	0.100896	0.271543	-0.270627	0.645797	0.713938
52447		-0.095113	-0.755154	0.648611	0.958868	0.105551	0.263499	-0.267444	0.646994	0.714054
52448		-0.086880	-0.753517	0.651663	0.960439	0.110382	0.255681	-0.264592	0.648096	0.714117
52449		-0.078615	-0.751896	0.654578	0.961794	0.115521	0.248208	-0.262244	0.649082	0.714087
52450		-0.070376	-0.750410	0.657215	0.962847	0.121098	0.241374	-0.260717	0.649784	0.714008
52451		-0.062131	-0.749104	0.659533	0.963572	0.127209	0.235258	-0.260131	0.650124	0.713912
52452		-0.053763	-0.748033	0.661480	0.964017	0.133833	0.229697	-0.260349	0.650027	0.713921
52453		-0.045267	-0.747183	0.663075	0.964145	0.141064	0.224778	-0.261486	0.649475	0.714008
52454		-0.036688	-0.746550	0.664317	0.964002	0.148747	0.220398	-0.263353	0.648488	0.714218
52455		-0.028162	-0.746135	0.665199	0.963686	0.156517	0.216360	-0.265549	0.647136	0.714632
52456		-0.019707	-0.745931	0.665731	0.963260	0.164217	0.212515	-0.267846	0.645460	0.715290
52457		-0.011376	-0.745938	0.665919	0.962762	0.171724	0.208806	-0.270110	0.643496	0.716207
52458		-0.003200	-0.746092	0.665835	0.962256	0.178897	0.205084	-0.272127	0.641360	0.717359
52459		0.004623	-0.746339	0.665550	0.961766	0.185572	0.201417	-0.273832	0.639172	0.718662
52460		0.012257	-0.746743	0.665000	0.961143	0.192219	0.198131	-0.275778	0.636731	0.720083
52461		0.019672	-0.747258	0.664243	0.960248	0.199154	0.195604	-0.278453	0.633990	0.721471
52462		0.027009	-0.748081	0.663058	0.959001	0.206585	0.194011	-0.282114	0.630633	0.722989
52463		0.034436	-0.749194	0.661455	0.957351	0.214704	0.193342	-0.286868	0.626587	0.724635
52464		0.042154	-0.750646	0.659358	0.955287	0.223592	0.193475	-0.292659	0.621721	0.726508
52465		0.050176	-0.752465	0.656718	0.952743	0.233315	0.194539	-0.299606	0.615922	0.728613
52466		0.058406	-0.754744	0.653414	0.949861	0.243410	0.196254	-0.307169	0.609190	0.731118
52467		0.066761	-0.757267	0.649684	0.946828	0.253478	0.198157	-0.314739	0.601910	0.733924
52468		0.075256	-0.759900	0.645669	0.943841	0.263187	0.199741	-0.321715	0.594377	0.737031
52469		0.083620	-0.762466	0.641603	0.941010	0.272272	0.200920	-0.327885	0.586953	0.740255
52470		0.091773	-0.764931	0.637541	0.938351	0.280716	0.201732	-0.333279	0.579723	0.743536
52471		0.099757	-0.767265	0.633524	0.935832	0.288654	0.202231	-0.338034	0.572698	0.746827
52472		0.107498	-0.769460	0.629584	0.933325	0.296296	0.202765	-0.342563	0.565809	0.750007
52473		0.115072	-0.771455	0.625792	0.930664	0.303986	0.203612	-0.347310	0.558971	0.752946
52474		0.122352	-0.773290	0.622135	0.927763	0.311775	0.205065	-0.352541	0.552104	0.755577
52475		0.129295	-0.774859	0.618770	0.924617	0.319671	0.207106	-0.358281	0.545348	0.757780
52476		0.135967	-0.776156	0.615706	0.921240	0.327677	0.209629	-0.364458	0.538711	0.759580
52477		0.142308	-0.777157	0.613005	0.917880	0.335404	0.212134	-0.370466	0.532477	0.761067
52478		0.148278	-0.777977	0.610545	0.914727	0.342544	0.214329	-0.375882	0.526702	0.762429
52479		0.153812	-0.778515	0.608487	0.911777	0.349150	0.216235	-0.380796	0.521545	0.763535
52480		0.158798	-0.778898	0.606713	0.909042	0.355135	0.217995	-0.385261	0.516911	0.764446
52481		0.163221	-0.779070	0.605317	0.906550	0.360510	0.219544	-0.389263	0.512916	0.765109
52482		0.167002	-0.779110	0.604234	0.904455	0.365035	0.220704	-0.392520	0.509645	0.765631
52483		0.170076	-0.779069	0.603428	0.902663	0.368817	0.221753	-0.395315	0.506977	0.765964
52484		0.172540	-0.779038	0.602768	0.901025	0.372074	0.222966	-0.397974	0.504639	0.766131
52485		0.174550	-0.778940	0.602316	0.899495	0.374982	0.224271	-0.400551	0.502634	0.766106
52486		0.176195	-0.778918	0.601865	0.897908	0.377739	0.225998	-0.403381	0.500600	0.765953
52487		0.177570	-0.778910	0.601472	0.896271	0.380402	0.228019	-0.406407	0.498592	0.765662
52488		0.178650	-0.778966	0.601079	0.894619	0.382896	0.230318	-0.409561	0.496591	0.765282
52489		0.179482	-0.779063	0.600706	0.893099	0.385079	0.232569	-0.412505	0.494748	0.764895
52490		0.180133	-0.779271	0.600241	0.891827	0.386819	0.234554	-0.414966	0.493060	0.764654
52491		0.180568	-0.779511	0.599798	0.890848	0.388086	0.236177	-0.416876	0.491683	0.764502
52492		0.180756	-0.779830	0.599327	0.890102	0.388924	0.237606	-0.418385	0.490514	0.764428
52493		0.180789	-0.780135	0.598920	0.889558	0.389454	0.238771	-0.419525	0.489607	0.764384
52494		0.180658	-0.780545	0.598425	0.889119	0.389740	0.239936	-0.420511	0.488725	0.764407
52495		0.180602	-0.780926	0.597944	0.888700	0.390047	0.240988	-0.421420	0.487870	0.764453
52496		0.180581	-0.781331	0.597421	0.888323	0.390310	0.241952	-0.422224	0.487011	0.764557
52497		0.180677	-0.781783	0.596801	0.887964	0.390585	0.242825	-0.422938	0.486065	0.764764
52498		0.180852	-0.782283	0.596092	0.887503	0.390991	0.243854	-0.423830	0.484932	0.764990
52499		0.181191	-0.782793	0.595319	0.886956	0.391564	0.244919	-0.424827	0.483645	0.765252
52500		0.181517	-0.783407	0.594412	0.886323	0.392184	0.246220	-0.426009	0.482147	0.765539
52501		0.181964	-0.784024	0.593461	0.885651	0.392895	0.247501	-0.427214	0.480563	0.765864
52502		0.182534	-0.784716	0.592370	0.884990	0.393614	0.248720	-0.428340	0.478841	0.766313
52503		0.183189	-0.785354	0.591321	0.884342	0.394374	0.249816	-0.429395	0.477167	0.766767
52504		0.183838	-0.786054	0.590189	0.883664	0.395133	0.251012	-0.430513	0.475383	0.767248
52505		0.184554	-0.786707	0.589094	0.883028	0.395891	0.252056	-0.431511	0.473669	0.767747
52506		0.185276	-0.787393	0.587950	0.882435	0.396585	0.253039	-0.432413	0.471946	0.768301
52507		0.185888	-0.788026	0.586907	0.881851	0.397235	0.254055	-0.433342	0.470339	0.768763
52508		0.186487	-0.788750	0.585744	0.881298	0.397801	0.255086	-0.434209	0.468644	0.769308
52509		0.187073	-0.789493	0.584555	0.880808	0.398279	0.256029	-0.434949	0.466984	0.769899
52510		0.187503	-0.790428	0.583152	0.880454	0.398450	0.256980	-0.435481	0.465254	0.770646
52511		0.187902	-0.791471	0.581607	0.880185	0.398463	0.257878	-0.435852	0.463466	0.771513
52512		0.188143	-0.792816	0.579693	0.880002	0.398172	0.258950	-0.436118	0.461412	0.772593
52513		0.188364	-0.794282	0.577612	0.879911	0.397717	0.259959	-0.436206	0.459280	0.773813
52514		0.188520	-0.795989	0.575206	0.879905	0.397025	0.261033	-0.436151	0.456916	0.775242
52515		0.188682	-0.797819	0.572612	0.879924	0.396249	0.262148	-0.436043	0.454392	0.776785
52516		0.188815	-0.799861	0.569711	0.879939	0.395356	0.263439	-0.435954	0.451570	0.778479
52517		0.189026	-0.802099	0.566486	0.879911	0.394446	0.264894	-0.435920	0.448386	0.780336
52518		0.189233	-0.804602	0.562856	0.879906	0.393373	0.266501	-0.435839	0.444829	0.782413
52519		0.189534	-0.807305	0.558869	0.880000	0.392136	0.268011	-0.435519	0.441007	0.784752
52520		0.189733	-0.810258	0.554512	0.880375	0.390429	0.269267	-0.434673	0.437090	0.787408
52521		0.189855	-0.813386	0.549871	0.881144	0.388190	0.269989	-0.433060	0.433257	0.790410
52522		0.189682	-0.816705	0.544990	0.882482	0.385130	0.269999	-0.430402	0.429730	0.793780
52523		0.189256	-0.820137	0.539961	0.884375	0.381322	0.269211	-0.426688	0.426578	0.797476
52524		0.188510	-0.823804	0.534613	0.886789	0.376698	0.267777	-0.421983	0.423611	0.801551
52525		0.187534	-0.827722	0.528874	0.889589	0.371419	0.265855	-0.416488	0.420624	0.805986
52526		0.186187	-0.832060	0.522505	0.892677	0.365418	0.263815	-0.410442	0.417309	0.810796
52527		0.184591	-0.836671	0.515663	0.896063	0.358804	0.261403	-0.403730	0.413813	0.815942
52528		0.182344	-0.841796	0.508065	0.899809	0.351166	0.258894	-0.396351	0.409954	0.821489
52529		0.179288	-0.847179	0.500143	0.903996	0.342437	0.255986	-0.388134	0.406232	0.827241
52530		0.174860	-0.853028	0.491698	0.908364	0.332436	0.253695	-0.379867	0.402279	0.832990
52531		0.169072	-0.859155	0.482977	0.912726	0.321413	0.252242	-0.371950	0.398178	0.838515
52532		0.161781	-0.865701	0.473697	0.916948	0.309293	0.252080	-0.364737	0.393574	0.843840
52533		0.153658	-0.872512	0.463802	0.920905	0.296612	0.252894	-0.358223	0.388259	0.849077
52534		0.144846	-0.879633	0.453062	0.924290	0.283712	0.255335	-0.353141	0.381777	0.854130
52535		0.135982	-0.886982	0.441330	0.926983	0.271103	0.259240	-0.349587	0.373853	0.859083
52536		0.126615	-0.894682	0.428385	0.929274	0.258060	0.264300	-0.347013	0.364622	0.864079
52537		0.116423	-0.902643	0.414344	0.931452	0.244032	0.269901	-0.344737	0.354519	0.869179
52538		0.104700	-0.910924	0.399068	0.933477	0.228419	0.276489	-0.343015	0.343572	0.874242
52539		0.091567	-0.919214	0.382965	0.935224	0.211468	0.283966	-0.342010	0.332156	0.879034
52540		0.076667	-0.927449	0.366005	0.936855	0.192633	0.291883	-0.341212	0.320516	0.883654
52541		0.060432	-0.935458	0.348233	0.938383	0.172171	0.299657	-0.340272	0.308667	0.888223
52542		0.042972	-0.943254	0.329281	0.939609	0.150167	0.307546	-0.339541	0.296180	0.892743
52543		0.024853	-0.950679	0.309180	0.939994	0.127498	0.316475	-0.340286	0.282762	0.896801
52544		0.005982	-0.957670	0.287807	0.939319	0.104101	0.326868	-0.342992	0.268387	0.900181
52545		-0.013085	-0.964049	0.265402	0.937283	0.080636	0.339113	-0.348323	0.253194	0.902532
52546		-0.032647	-0.969701	0.242104	0.933845	0.056731	0.353150	-0.356185	0.237617	0.903698
52547		-0.052481	-0.974483	0.218242	0.929180	0.032420	0.368203	-0.365883	0.222109	0.903768
52548		-0.073558	-0.978355	0.193420	0.924079	0.006074	0.382152	-0.375055	0.206845	0.903631
52549		-0.096205	-0.981145	0.167630	0.919072	-0.022902	0.393424	-0.382167	0.191913	0.903946
52550		-0.120562	-0.982715	0.140486	0.914374	-0.054832	0.401140	-0.386503	0.176819	0.905180
52551		-0.146222	-0.982864	0.112236	0.909252	-0.088833	0.406658	-0.389719	0.161513	0.906660
52552		-0.172867	-0.981420	0.083258	0.902354	-0.123921	0.412797	-0.394810	0.146487	0.907010
52553		-0.199074	-0.978486	0.054169	0.892960	-0.158347	0.421366	-0.403723	0.132254	0.905272
52554		-0.223575	-0.974363	0.025129	0.880905	-0.190962	0.433059	-0.417158	0.118957	0.901015
52555		-0.245426	-0.969410	-0.003118	0.866647	-0.220848	0.447380	-0.434384	0.107096	0.894338
52556		-0.264490	-0.963907	-0.030480	0.850713	-0.248084	0.463402	-0.454238	0.096635	0.885624
52557		-0.280679	-0.958166	-0.056013	0.834915	-0.272527	0.478170	-0.473431	0.087446	0.876479
52558		-0.294557	-0.952302	-0.079738	0.820431	-0.294787	0.489891	-0.490030	0.078881	0.868129
52559		-0.306344	-0.946586	-0.100643	0.807131	-0.314344	0.499727	-0.504671	0.071856	0.860316
52560		-0.316385	-0.941241	-0.118175	0.794792	-0.331021	0.508656	-0.517886	0.067007	0.852821
52561		-0.324845	-0.936474	-0.132257	0.784097	-0.344863	0.516006	-0.528837	0.063919	0.846313
52562		-0.331904	-0.932409	-0.143015	0.775609	-0.356035	0.521219	-0.536908	0.062071	0.841354
52563		-0.337402	-0.929187	-0.150900	0.769117	-0.364530	0.524954	-0.542788	0.061061	0.837647
52564		-0.341278	-0.926863	-0.156378	0.764229	-0.370466	0.527930	-0.547251	0.060662	0.834767
52565		-0.343740	-0.925356	-0.159873	0.760966	-0.374238	0.529978	-0.550249	0.060517	0.832805
52566		-0.345026	-0.924555	-0.161724	0.759240	-0.376225	0.531047	-0.551827	0.060437	0.831766
52567		-0.345511	-0.924297	-0.162163	0.758674	-0.376834	0.531422	-0.552301	0.060583	0.831441
52568		-0.345475	-0.924419	-0.161542	0.758960	-0.376478	0.531266	-0.551930	0.060935	0.831661
52569		-0.345059	-0.924770	-0.160420	0.759725	-0.375558	0.530824	-0.551137	0.061290	0.832161
52570		-0.344499	-0.925197	-0.159157	0.760808	-0.374469	0.530041	-0.549992	0.061510	0.832902
52571		-0.344058	-0.925545	-0.158082	0.761896	-0.373592	0.529097	-0.548761	0.061598	0.833707
52572		-0.343781	-0.925749	-0.157491	0.762762	-0.373112	0.528186	-0.547730	0.061452	0.834395
52573		-0.343743	-0.925783	-0.157374	0.763235	-0.373065	0.527537	-0.547096	0.061224	0.834828
52574		-0.344074	-0.925614	-0.157646	0.763144	-0.373498	0.527362	-0.547014	0.061145	0.834888
52575		-0.344794	-0.925255	-0.158176	0.762484	-0.374352	0.527711	-0.547481	0.061345	0.834567
52576		-0.345622	-0.924844	-0.158777	0.761411	-0.375294	0.528591	-0.548452	0.061798	0.833895
52577		-0.346681	-0.924309	-0.159580	0.759907	-0.376503	0.529893	-0.549867	0.062438	0.832915
52578		-0.347783	-0.923754	-0.160389	0.758297	-0.377742	0.531317	-0.551392	0.063161	0.831852
52579		-0.348813	-0.923226	-0.161191	0.756747	-0.378919	0.532686	-0.552869	0.063827	0.830820
52580		-0.349674	-0.922771	-0.161931	0.755396	-0.379935	0.533878	-0.554171	0.064362	0.829911
52581		-0.350345	-0.922412	-0.162528	0.754450	-0.380752	0.534633	-0.555035	0.064687	0.829308
52582		-0.350825	-0.922157	-0.162935	0.754053	-0.381358	0.534762	-0.555271	0.064746	0.829145
52583		-0.351165	-0.922015	-0.163011	0.754166	-0.381709	0.534351	-0.554902	0.064708	0.829395
52584		-0.351253	-0.922008	-0.162855	0.754726	-0.381761	0.533523	-0.554085	0.064491	0.829959
52585		-0.351108	-0.922174	-0.162230	0.755732	-0.381391	0.532363	-0.552804	0.064315	0.830826
52586		-0.350604	-0.922553	-0.161159	0.757155	-0.380502	0.530975	-0.551174	0.064139	0.831922
52587		-0.349753	-0.923118	-0.159769	0.758864	-0.379162	0.529492	-0.549362	0.063949	0.833134
52588		-0.348581	-0.923825	-0.158236	0.760794	-0.377489	0.527916	-0.547434	0.063636	0.834426
52589		-0.347260	-0.924595	-0.156637	0.762804	-0.375659	0.526319	-0.545473	0.063286	0.835735
52590		-0.345934	-0.925372	-0.154971	0.764736	-0.373779	0.524851	-0.543608	0.063052	0.836968
52591		-0.344751	-0.926096	-0.153273	0.766383	-0.371975	0.523728	-0.542036	0.063090	0.837984
52592		-0.343694	-0.926778	-0.151518	0.767851	-0.370231	0.522813	-0.540628	0.063344	0.838874
52593		-0.342823	-0.927419	-0.149556	0.769129	-0.368513	0.522149	-0.539364	0.063977	0.839639
52594		-0.341968	-0.928077	-0.147415	0.770150	-0.366680	0.521933	-0.538448	0.064953	0.840152
52595		-0.340955	-0.928793	-0.145237	0.770967	-0.364666	0.522139	-0.537922	0.066053	0.840403
52596		-0.339829	-0.929525	-0.143175	0.771771	-0.362617	0.522378	-0.537481	0.067021	0.840608
52597		-0.338712	-0.930239	-0.141169	0.772602	-0.360612	0.522538	-0.536993	0.067923	0.840848
52598		-0.337650	-0.930938	-0.139093	0.773597	-0.358639	0.522423	-0.536228	0.068794	0.841265
52599		-0.336742	-0.931603	-0.136825	0.774632	-0.356701	0.522217	-0.535304	0.069863	0.841765
52600		-0.335881	-0.932255	-0.134476	0.775606	-0.354753	0.522097	-0.534433	0.071062	0.842218
52601		-0.335172	-0.932821	-0.132306	0.776377	-0.353016	0.522129	-0.533759	0.072284	0.842542
52602		-0.334558	-0.933307	-0.130421	0.777037	-0.351508	0.522164	-0.533183	0.073353	0.842814
52603		-0.334185	-0.933668	-0.128779	0.777609	-0.350339	0.522099	-0.532583	0.074338	0.843107
52604		-0.333898	-0.933985	-0.127221	0.778127	-0.349287	0.522032	-0.532006	0.075311	0.843385
52605		-0.333704	-0.934260	-0.125700	0.778604	-0.348332	0.521959	-0.531431	0.076309	0.843658
52606		-0.333575	-0.934496	-0.124279	0.779071	-0.347493	0.521821	-0.530826	0.077244	0.843954
52607		-0.333571	-0.934679	-0.122902	0.779394	-0.346768	0.521821	-0.530354	0.078275	0.844155
52608		-0.333537	-0.934870	-0.121534	0.779684	-0.346016	0.521886	-0.529949	0.079310	0.844313
52609		-0.333411	-0.935087	-0.120208	0.779963	-0.345206	0.522007	-0.529618	0.080285	0.844428
52610		-0.333218	-0.935311	-0.118992	0.780259	-0.344401	0.522096	-0.529303	0.081127	0.844545
52611		-0.333087	-0.935509	-0.117797	0.780629	-0.343674	0.522022	-0.528840	0.081923	0.844759
52612		-0.333036	-0.935667	-0.116683	0.781074	-0.343076	0.521749	-0.528214	0.082623	0.845082
52613		-0.333067	-0.935818	-0.115371	0.781624	-0.342459	0.521330	-0.527380	0.083462	0.845520
52614		-0.333042	-0.936017	-0.113824	0.782142	-0.341658	0.521079	-0.526627	0.084514	0.845885
52615		-0.332886	-0.936284	-0.112067	0.782583	-0.340612	0.521102	-0.526071	0.085766	0.846105
52616		-0.332489	-0.936644	-0.110222	0.783030	-0.339303	0.521285	-0.525657	0.087014	0.846235
52617		-0.331900	-0.937079	-0.108285	0.783513	-0.337778	0.521549	-0.525309	0.088259	0.846322
52618		-0.331102	-0.937595	-0.106242	0.784051	-0.336015	0.521880	-0.525011	0.089496	0.846377
52619		-0.330211	-0.938146	-0.104129	0.784470	-0.334111	0.522472	-0.524946	0.090840	0.846274
52620		-0.329083	-0.938800	-0.101782	0.784798	-0.331847	0.523421	-0.525164	0.092371	0.845973
52621		-0.327707	-0.939587	-0.098917	0.785136	-0.329074	0.524663	-0.525518	0.094272	0.845544
52622		-0.325840	-0.940591	-0.095479	0.785508	-0.325542	0.526308	-0.526123	0.096493	0.844916
52623		-0.323433	-0.941798	-0.091694	0.785947	-0.321340	0.528232	-0.526952	0.098781	0.844135
52624		-0.320460	-0.943191	-0.087732	0.786571	-0.316562	0.530184	-0.527837	0.100895	0.843332
52625		-0.316900	-0.944759	-0.083691	0.787676	-0.311306	0.531653	-0.528337	0.102559	0.842817
52626		-0.312630	-0.946535	-0.079589	0.789379	-0.305498	0.532496	-0.528341	0.103648	0.842682
52627		-0.307899	-0.948416	-0.075533	0.791101	-0.299312	0.533452	-0.528542	0.104495	0.842451
52628		-0.302806	-0.950360	-0.071581	0.792807	-0.292864	0.534498	-0.528929	0.105099	0.842133
52629		-0.297507	-0.952323	-0.067602	0.794913	-0.286304	0.534924	-0.528776	0.105406	0.842191
52630		-0.291763	-0.954373	-0.063612	0.797613	-0.279467	0.534521	-0.527910	0.105216	0.842758
52631		-0.285690	-0.956464	-0.059641	0.800684	-0.272430	0.533560	-0.526579	0.104679	0.843657
52632		-0.279035	-0.958653	-0.055899	0.804053	-0.265069	0.532200	-0.525012	0.103557	0.844771
52633		-0.272097	-0.960837	-0.052488	0.807580	-0.257675	0.530488	-0.523238	0.101956	0.846066
52634		-0.264898	-0.963011	-0.049386	0.811322	-0.250266	0.528321	-0.521139	0.099884	0.847607
52635		-0.257385	-0.965170	-0.046896	0.815285	-0.242954	0.525628	-0.518714	0.097055	0.849421
52636		-0.249730	-0.967269	-0.045017	0.818872	-0.235772	0.523317	-0.516802	0.093824	0.850948
52637		-0.242263	-0.969212	-0.044001	0.822069	-0.229147	0.521242	-0.515277	0.090106	0.852274
52638		-0.234537	-0.971126	-0.043662	0.825884	-0.222747	0.517976	-0.512745	0.085425	0.854280
52639		-0.226585	-0.973001	-0.043904	0.830420	-0.216544	0.513333	-0.508981	0.079855	0.857066
52640		-0.218378	-0.974837	-0.044767	0.835383	-0.210456	0.507782	-0.504427	0.073491	0.860321
52641		-0.210092	-0.976583	-0.046335	0.840771	-0.204656	0.501218	-0.498964	0.066345	0.864079
52642		-0.201661	-0.978236	-0.048858	0.846564	-0.199171	0.493619	-0.492607	0.058182	0.868305
52643		-0.193341	-0.979748	-0.052085	0.852562	-0.194040	0.485270	-0.485549	0.049417	0.872811
52644		-0.185156	-0.981138	-0.055553	0.858486	-0.189003	0.476739	-0.478247	0.040579	0.877288
52645		-0.176991	-0.982445	-0.058952	0.863951	-0.183777	0.468843	-0.471447	0.032049	0.881312
52646		-0.168432	-0.983739	-0.062349	0.868777	-0.178036	0.462094	-0.465680	0.023664	0.884637
52647		-0.159407	-0.984994	-0.066156	0.872933	-0.171935	0.456538	-0.461062	0.015026	0.887241
52648		-0.149940	-0.986180	-0.070473	0.876988	-0.165573	0.451085	-0.456519	0.005832	0.889694
52649		-0.140018	-0.987261	-0.075566	0.881868	-0.159044	0.443863	-0.450227	-0.004491	0.892903
52650		-0.129760	-0.988182	-0.081606	0.887575	-0.152448	0.434707	-0.442010	-0.016024	0.896867
52651		-0.119723	-0.988873	-0.088298	0.893560	-0.146088	0.424510	-0.432686	-0.028076	0.901108
52652		-0.109850	-0.989348	-0.095522	0.899661	-0.139824	0.413594	-0.422544	-0.040504	0.905437
52653		-0.100321	-0.989613	-0.102966	0.905852	-0.133652	0.401957	-0.411543	-0.052947	0.909851
52654		-0.091206	-0.989716	-0.110196	0.911826	-0.127483	0.390285	-0.400319	-0.064883	0.914076
52655		-0.082696	-0.989668	-0.117130	0.917184	-0.121551	0.379471	-0.389787	-0.076049	0.917759
52656		-0.074697	-0.989468	-0.123990	0.921701	-0.115966	0.370161	-0.380642	-0.086632	0.920656
52657		-0.067115	-0.989120	-0.130909	0.925503	-0.110734	0.362191	-0.372746	-0.096848	0.922865
52658		-0.059835	-0.988659	-0.137742	0.928870	-0.105678	0.355012	-0.365542	-0.106702	0.924659
52659		-0.052912	-0.988087	-0.144515	0.931943	-0.100847	0.348298	-0.358723	-0.116250	0.926177
52660		-0.046631	-0.987413	-0.151130	0.934853	-0.096445	0.341684	-0.351959	-0.125351	0.927584
52661		-0.041277	-0.986666	-0.157440	0.937673	-0.092672	0.334934	-0.345058	-0.133802	0.928995
52662		-0.036826	-0.985903	-0.163217	0.940233	-0.089513	0.328557	-0.338536	-0.141362	0.930274
52663		-0.033112	-0.985171	-0.168350	0.942401	-0.086871	0.323007	-0.332841	-0.147957	0.931303
52664		-0.029916	-0.984514	-0.172732	0.944249	-0.084520	0.318199	-0.327871	-0.153583	0.932155
52665		-0.027066	-0.983888	-0.176723	0.946146	-0.082268	0.313113	-0.322607	-0.158731	0.933129
52666		-0.024481	-0.983289	-0.180396	0.948549	-0.079828	0.306401	-0.315681	-0.163614	0.934653
52667		-0.022057	-0.982750	-0.183617	0.951856	-0.076811	0.296768	-0.305753	-0.168231	0.937131
52668		-0.020043	-0.982318	-0.186146	0.955941	-0.073368	0.284242	-0.292873	-0.172247	0.940508
52669		-0.018571	-0.982097	-0.187460	0.960392	-0.069660	0.269803	-0.278031	-0.175025	0.944492
52670		-0.017670	-0.982160	-0.187216	0.964700	-0.065955	0.254958	-0.262757	-0.176102	0.948655
52671		-0.017556	-0.982572	-0.185051	0.968730	-0.062529	0.240109	-0.247496	-0.175049	0.952945
52672		-0.018289	-0.983327	-0.180925	0.972493	-0.059522	0.225199	-0.232213	-0.171830	0.957367
52673		-0.019861	-0.984377	-0.174949	0.976045	-0.057010	0.209969	-0.216662	-0.166588	0.961928
52674		-0.022190	-0.985617	-0.167534	0.979307	-0.055146	0.194723	-0.201161	-0.159746	0.966445
52675		-0.025358	-0.987021	-0.158574	0.982368	-0.053994	0.178988	-0.185228	-0.151239	0.970988
52676		-0.029193	-0.988550	-0.148046	0.985183	-0.053497	0.162949	-0.169004	-0.141095	0.975464
52677		-0.033591	-0.990158	-0.135866	0.987670	-0.053686	0.147059	-0.152906	-0.129251	0.979752
52678		-0.038612	-0.991764	-0.122116	0.989755	-0.054769	0.131856	-0.137458	-0.115774	0.983718
52679		-0.044258	-0.993293	-0.106822	0.991419	-0.056835	0.117721	-0.123003	-0.100695	0.987285
52680		-0.050790	-0.994629	-0.090181	0.992676	-0.060187	0.104744	-0.109609	-0.084200	0.990402
52681		-0.058429	-0.995680	-0.072165	0.993563	-0.065028	0.092757	-0.097049	-0.066280	0.993070
52682		-0.067067	-0.996335	-0.053092	0.994107	-0.071270	0.081676	-0.085161	-0.047301	0.995244
52683		-0.076661	-0.996515	-0.032892	0.994319	-0.078852	0.071503	-0.073847	-0.027223	0.996898
52684		-0.087184	-0.996125	-0.011613	0.994194	-0.087741	0.062295	-0.063073	-0.006114	0.997990
52685		-0.098643	-0.995066	0.010648	0.993745	-0.097938	0.053652	-0.052345	0.015874	0.998503
52686		-0.110942	-0.993265	0.033409	0.992970	-0.109388	0.045231	-0.041272	0.038193	0.998418
52687		-0.124211	-0.990638	0.056644	0.991827	-0.122277	0.036435	-0.029167	0.060707	0.997729
52688		-0.138471	-0.987111	0.080237	0.990227	-0.136638	0.027922	-0.016599	0.083319	0.996385
52689		-0.153858	-0.982550	0.104516	0.988082	-0.152495	0.020958	-0.004654	0.106495	0.994302
52690		-0.170084	-0.976911	0.129290	0.985409	-0.169465	0.015858	0.006418	0.130100	0.991480
52691		-0.187384	-0.970054	0.154536	0.982139	-0.187754	0.012333	0.017051	0.154087	0.987910
52692		-0.205819	-0.961858	0.180188	0.978183	-0.207526	0.009535	0.028223	0.178219	0.983586
52693		-0.225403	-0.952305	0.205689	0.973422	-0.228917	0.006868	0.040546	0.201770	0.978593
52694		-0.245793	-0.941418	0.230905	0.967802	-0.251679	0.004087	0.054267	0.224475	0.972968
52695		-0.267127	-0.928996	0.256144	0.961226	-0.275753	0.002329	0.068469	0.246834	0.966636
52696		-0.288753	-0.915138	0.281324	0.953875	-0.300195	0.002540	0.082127	0.269081	0.959610
52697		-0.310500	-0.899851	0.306362	0.945891	-0.324435	0.005731	0.094237	0.291565	0.951898
52698		-0.332080	-0.883237	0.331081	0.937353	-0.348198	0.011281	0.105318	0.314086	0.943535
52699		-0.353537	-0.865319	0.355295	0.928346	-0.371194	0.019710	0.114828	0.336805	0.934546
52700		-0.374712	-0.846086	0.379117	0.918966	-0.393121	0.030948	0.122854	0.359992	0.924831
52701		-0.395774	-0.825846	0.401674	0.909074	-0.414318	0.043879	0.130184	0.382517	0.914731
52702		-0.416691	-0.804382	0.423484	0.898602	-0.434897	0.058126	0.137417	0.404764	0.904037
52703		-0.437323	-0.781814	0.444428	0.887544	-0.454876	0.073162	0.144960	0.426445	0.892822
52704		-0.457401	-0.758094	0.464841	0.876039	-0.473940	0.089085	0.152772	0.447967	0.880901
52705		-0.476991	-0.733332	0.484462	0.864093	-0.492057	0.105938	0.160696	0.469152	0.868374
52706		-0.495941	-0.707625	0.503299	0.851930	-0.508699	0.124257	0.168101	0.490399	0.855132
52707		-0.514474	-0.681303	0.520714	0.839453	-0.524100	0.143661	0.175030	0.511025	0.841557
52708		-0.532496	-0.654316	0.536953	0.826666	-0.538317	0.163826	0.181857	0.531117	0.827552
52709		-0.549936	-0.626889	0.551888	0.813511	-0.551680	0.183981	0.189131	0.550145	0.813370
52710		-0.566438	-0.599146	0.565838	0.800336	-0.563650	0.204355	0.196496	0.568615	0.798791
52711		-0.582150	-0.571474	0.578376	0.787338	-0.573790	0.225532	0.202981	0.586670	0.783975
52712		-0.596929	-0.543858	0.589825	0.774792	-0.581613	0.247837	0.208262	0.604933	0.768559
52713		-0.610821	-0.516377	0.600210	0.762481	-0.587904	0.270170	0.213356	0.622675	0.752832
52714		-0.624076	-0.488580	0.609770	0.750042	-0.593325	0.292236	0.219011	0.639730	0.736736
52715		-0.637004	-0.460466	0.618220	0.737125	-0.598513	0.313735	0.225549	0.655556	0.720676
52716		-0.649620	-0.432090	0.625534	0.723716	-0.603486	0.334722	0.232871	0.670152	0.704747
52717		-0.662085	-0.403715	0.631394	0.709626	-0.608633	0.354959	0.240985	0.683066	0.689454
52718		-0.674355	-0.375116	0.636029	0.695051	-0.613269	0.375240	0.249298	0.695118	0.674286
52719		-0.686305	-0.346179	0.639645	0.679991	-0.617457	0.395423	0.258066	0.706333	0.659163
52720		-0.697946	-0.316941	0.642199	0.664382	-0.621303	0.415426	0.267335	0.716611	0.644206
52721		-0.709567	-0.287141	0.643478	0.647690	-0.625431	0.435124	0.277509	0.725525	0.629764
52722		-0.721326	-0.256642	0.643292	0.629650	-0.629887	0.454735	0.288497	0.733060	0.615948
52723		-0.733295	-0.225545	0.641412	0.609848	-0.635277	0.473822	0.300606	0.738615	0.603393
52724		-0.745353	-0.193637	0.637929	0.588317	-0.641136	0.492776	0.313579	0.742597	0.591792
52725		-0.757438	-0.160968	0.632754	0.565021	-0.647231	0.511707	0.327169	0.745105	0.581187
52726		-0.769269	-0.127550	0.626063	0.540369	-0.652724	0.530992	0.340919	0.746781	0.571045
52727		-0.780692	-0.093467	0.617887	0.514547	-0.657243	0.550703	0.354629	0.747861	0.561197
52728		-0.791645	-0.058929	0.608133	0.488018	-0.659854	0.571342	0.367610	0.749080	0.551128
52729		-0.801911	-0.024129	0.596956	0.460937	-0.660679	0.592487	0.380100	0.750281	0.540928
52730		-0.811341	0.011196	0.584466	0.433306	-0.659604	0.614140	0.392393	0.751530	0.530312
52731		-0.820124	0.046695	0.570277	0.404757	-0.657124	0.635893	0.404436	0.752335	0.520023
52732		-0.828209	0.082038	0.554383	0.375617	-0.652889	0.657760	0.415911	0.752998	0.509914
52733		-0.835408	0.116800	0.537076	0.346651	-0.646335	0.679768	0.426528	0.754062	0.499464
52734		-0.841703	0.150466	0.518553	0.318813	-0.636601	0.702209	0.435770	0.756373	0.487858
52735		-0.846903	0.183197	0.499193	0.292099	-0.624179	0.724623	0.444335	0.759499	0.475108
52736		-0.851131	0.214895	0.478953	0.266605	-0.609003	0.747019	0.452214	0.763502	0.461049
52737		-0.854404	0.245619	0.457891	0.241755	-0.592125	0.768728	0.459943	0.767502	0.446534
52738		-0.856630	0.275439	0.436255	0.217822	-0.573434	0.789764	0.467696	0.771561	0.431224
52739		-0.857858	0.304078	0.414266	0.195307	-0.552729	0.810152	0.475326	0.775904	0.414774
52740		-0.857990	0.331524	0.392358	0.175165	-0.529219	0.830208	0.482877	0.781037	0.395993
52741		-0.856997	0.357622	0.371028	0.157885	-0.503151	0.849653	0.490538	0.786731	0.374736
52742		-0.855055	0.382367	0.350253	0.144134	-0.473585	0.868874	0.498103	0.793418	0.349829
52743		-0.852289	0.406033	0.329760	0.133394	-0.440867	0.887605	0.505777	0.800484	0.321583
52744		-0.848931	0.428928	0.308766	0.123356	-0.407277	0.904936	0.513906	0.806316	0.292839
52745		-0.845987	0.450338	0.285486	0.111079	-0.374820	0.920419	0.521505	0.810374	0.267070
52746		-0.843786	0.469945	0.259186	0.093961	-0.346125	0.933471	0.528390	0.812003	0.247899
52747		-0.841842	0.488237	0.230060	0.070204	-0.323578	0.943594	0.535139	0.810508	0.238125
52748		-0.839473	0.505663	0.198972	0.040736	-0.306569	0.950976	0.541872	0.806424	0.236758
52749		-0.836192	0.522478	0.166734	0.007338	-0.293331	0.955983	0.548388	0.800609	0.241447
52750		-0.831654	0.538795	0.134357	-0.026874	-0.280725	0.959412	0.554643	0.794288	0.247946
52751		-0.825945	0.554291	0.102842	-0.059035	-0.266461	0.962036	0.560651	0.788518	0.252805
52752		-0.819635	0.568274	0.072550	-0.086742	-0.248283	0.964796	0.566281	0.784488	0.252795
52753		-0.813522	0.579949	0.042907	-0.109802	-0.225641	0.968003	0.571074	0.782780	0.247244
52754		-0.807449	0.589780	0.013634	-0.128896	-0.198926	0.971501	0.575685	0.782680	0.236642
52755		-0.801247	0.598134	-0.015448	-0.145291	-0.169453	0.974770	0.580425	0.783276	0.222677
52756		-0.795197	0.604728	-0.044339	-0.160864	-0.139895	0.977012	0.584623	0.784050	0.208523
52757		-0.788811	0.610227	-0.073482	-0.177561	-0.111787	0.977740	0.588429	0.784300	0.196531
52758		-0.781301	0.615598	-0.102991	-0.196076	-0.085424	0.976861	0.592556	0.783417	0.187446
52759		-0.772528	0.620823	-0.133338	-0.216325	-0.059890	0.974483	0.596996	0.781659	0.180567
52760		-0.762406	0.625942	-0.164116	-0.236826	-0.033880	0.970961	0.602205	0.779134	0.174069
52761		-0.751197	0.630270	-0.196118	-0.257716	-0.006515	0.966199	0.607689	0.776348	0.167325
52762		-0.739850	0.632358	-0.229663	-0.280098	0.020855	0.959745	0.611692	0.774395	0.161693
52763		-0.728520	0.631303	-0.265922	-0.306578	0.046672	0.950701	0.612591	0.774131	0.159542
52764		-0.716482	0.627863	-0.304042	-0.337235	0.069794	0.938830	0.610677	0.775188	0.161731
52765		-0.702812	0.623074	-0.343270	-0.372003	0.089403	0.923916	0.606357	0.777037	0.168952
52766		-0.687482	0.617662	-0.381919	-0.407837	0.106758	0.906792	0.600864	0.779164	0.178511
52767		-0.670548	0.611929	-0.419414	-0.442675	0.123632	0.888118	0.595318	0.781190	0.187984
52768		-0.652912	0.605588	-0.454940	-0.474045	0.141747	0.869016	0.590752	0.783053	0.194528
52769		-0.635544	0.598126	-0.488190	-0.500918	0.161721	0.850252	0.587508	0.784915	0.196831
52770		-0.618887	0.589610	-0.518978	-0.522664	0.184088	0.832426	0.586345	0.786430	0.194238
52771		-0.602771	0.580083	-0.547879	-0.539728	0.209300	0.815406	0.587674	0.787209	0.186927
52772		-0.586596	0.570402	-0.574932	-0.553399	0.236011	0.798779	0.591316	0.786727	0.177217
52773		-0.570320	0.560406	-0.600567	-0.565627	0.262248	0.781851	0.595652	0.785602	0.167416
52774		-0.554370	0.550243	-0.624425	-0.577634	0.285764	0.764643	0.599177	0.784584	0.159420
52775		-0.538826	0.540004	-0.646577	-0.589629	0.306428	0.747288	0.601668	0.783899	0.153291
52776		-0.524050	0.530145	-0.666572	-0.599994	0.325665	0.730718	0.604466	0.782872	0.147419
52777		-0.510249	0.520395	-0.684716	-0.608203	0.344557	0.715101	0.608059	0.781325	0.140696
52778		-0.497491	0.510971	-0.701008	-0.614056	0.363366	0.700643	0.612730	0.779021	0.132994
52779		-0.485628	0.502003	-0.715653	-0.618118	0.381703	0.687192	0.618140	0.776077	0.124931
52780		-0.474598	0.494148	-0.728405	-0.620424	0.399205	0.675062	0.624364	0.772304	0.117120
52781		-0.464428	0.487495	-0.739362	-0.621442	0.415416	0.664259	0.630965	0.767971	0.110019
52782		-0.455075	0.482409	-0.748457	-0.621524	0.429835	0.654943	0.637663	0.763232	0.104222
52783		-0.446469	0.478643	-0.756020	-0.620968	0.442593	0.646924	0.644255	0.758295	0.099618
52784		-0.438957	0.476242	-0.761913	-0.619725	0.453519	0.640516	0.650582	0.753335	0.096064
52785		-0.433102	0.474844	-0.766124	-0.617823	0.462494	0.635920	0.656290	0.748747	0.093063
52786		-0.429332	0.474586	-0.768402	-0.614663	0.469820	0.633607	0.661712	0.744337	0.090002
52787		-0.427767	0.475488	-0.768717	-0.609708	0.476052	0.633744	0.667287	0.739788	0.086269
52788		-0.428420	0.477627	-0.767026	-0.603163	0.480893	0.636346	0.672793	0.735265	0.082063
52789		-0.431301	0.480681	-0.763495	-0.595730	0.483805	0.641123	0.677559	0.731354	0.077690
52790		-0.435928	0.484670	-0.758328	-0.588042	0.484476	0.647681	0.681303	0.728271	0.073809
52791		-0.441885	0.489780	-0.751567	-0.580149	0.482991	0.655855	0.684225	0.725834	0.070719
52792		-0.449308	0.495823	-0.743157	-0.572000	0.479328	0.665628	0.686250	0.724157	0.068245
52793		-0.458508	0.502450	-0.733017	-0.563612	0.473321	0.676984	0.687104	0.723540	0.066165
52794		-0.469366	0.509484	-0.721195	-0.555069	0.464961	0.689717	0.686727	0.724043	0.064562
52795		-0.481804	0.516787	-0.707669	-0.545862	0.454751	0.703730	0.685492	0.725350	0.062994
52796		-0.495482	0.524144	-0.692655	-0.535992	0.443010	0.718648	0.683528	0.727334	0.061434
52797		-0.510478	0.531509	-0.675952	-0.525512	0.429375	0.734489	0.680624	0.730161	0.060128
52798		-0.526314	0.538965	-0.657656	-0.514112	0.414346	0.751004	0.677261	0.733372	0.059012
52799		-0.543015	0.546575	-0.637487	-0.500864	0.398517	0.768323	0.673996	0.736505	0.057359
52800		-0.560500	0.553968	-0.615596	-0.485619	0.382271	0.786157	0.670831	0.739586	0.054754
52801		-0.578735	0.561065	-0.591838	-0.468153	0.365663	0.804440	0.667756	0.742628	0.051042
52802		-0.597529	0.567514	-0.566469	-0.448395	0.349183	0.822808	0.664756	0.745654	0.045824
52803		-0.616971	0.573153	-0.539298	-0.426424	0.332486	0.841199	0.661445	0.748965	0.039272
52804		-0.636466	0.578198	-0.510488	-0.402742	0.315328	0.859283	0.657807	0.752499	0.032169
52805		-0.655940	0.582448	-0.480101	-0.377980	0.297097	0.876849	0.653355	0.756629	0.025276
52806		-0.674886	0.585841	-0.448687	-0.353127	0.277497	0.893474	0.647943	0.761436	0.019598
52807		-0.693282	0.588365	-0.416156	-0.328297	0.256219	0.909160	0.641546	0.766928	0.015527
52808		-0.711111	0.589730	-0.382805	-0.304014	0.233024	0.923729	0.633953	0.773252	0.013580
52809		-0.728619	0.589834	-0.348153	-0.278970	0.208669	0.937354	0.625532	0.780098	0.012505
52810		-0.745667	0.588636	-0.312230	-0.252462	0.184064	0.949939	0.616639	0.787164	0.011358
52811		-0.762316	0.585945	-0.274851	-0.224153	0.159360	0.961436	0.607149	0.794527	0.009859
52812		-0.778389	0.581675	-0.236143	-0.194089	0.134749	0.971685	0.597025	0.802182	0.008010
52813		-0.793896	0.575569	-0.196083	-0.162129	0.110429	0.980571	0.586040	0.810263	0.005647
52814		-0.808558	0.567666	-0.154884	-0.128821	0.086061	0.987926	0.574141	0.818748	0.003542
52815		-0.822104	0.558044	-0.112835	-0.094459	0.061749	0.993612	0.561447	0.827511	0.001948
52816		-0.834253	0.546872	-0.070379	-0.059653	0.037373	0.997519	0.548146	0.836382	0.001445
52817		-0.844812	0.534337	-0.027859	-0.024907	0.012739	0.999609	0.534483	0.845175	0.002546
52818		-0.853684	0.520593	0.014374	0.008784	-0.013204	0.999874	0.520717	0.853703	0.006699
52819		-0.861084	0.505338	0.056291	0.041337	-0.040767	0.998313	0.506780	0.861958	0.014215
52820		-0.867087	0.488439	0.097914	0.073005	-0.069838	0.994883	0.492778	0.869799	0.024897
52821		-0.871781	0.469634	0.139436	0.104622	-0.099582	0.989514	0.478594	0.877227	0.037680
52822		-0.875243	0.448662	0.180697	0.136340	-0.129587	0.982150	0.464070	0.884256	0.052250
52823		-0.877188	0.425850	0.221795	0.168971	-0.158597	0.972777	0.449433	0.890786	0.067164
52824		-0.877283	0.401625	0.262816	0.202771	-0.186181	0.961364	0.435040	0.896679	0.081896
52825		-0.875299	0.376385	0.303621	0.237778	-0.211734	0.947961	0.421085	0.901944	0.095834
52826		-0.871302	0.350164	0.343829	0.273610	-0.235001	0.932691	0.407395	0.906730	0.108949
52827		-0.865478	0.323032	0.382881	0.309591	-0.255969	0.915769	0.393828	0.911115	0.121528
52828		-0.857927	0.295308	0.420421	0.344995	-0.275241	0.897341	0.380709	0.914896	0.134257
52829		-0.848853	0.267141	0.456162	0.379381	-0.293064	0.877601	0.368128	0.918014	0.147420
52830		-0.838398	0.238680	0.490021	0.412329	-0.310241	0.856584	0.356474	0.920208	0.161691
52831		-0.826751	0.209887	0.521949	0.443963	-0.326406	0.834479	0.345514	0.921633	0.176674
52832		-0.813946	0.180743	0.552108	0.474446	-0.341625	0.811291	0.335249	0.922293	0.192311
52833		-0.800194	0.151465	0.580300	0.503760	-0.355308	0.787390	0.325447	0.922396	0.208013
52834		-0.785569	0.122006	0.606626	0.532058	-0.367322	0.762882	0.315903	0.922057	0.223642
52835		-0.770237	0.092497	0.631015	0.559339	-0.377364	0.738063	0.306391	0.921434	0.238923
52836		-0.754183	0.063072	0.653629	0.585567	-0.385880	0.712887	0.297186	0.920390	0.254091
52837		-0.737633	0.034225	0.674334	0.610465	-0.392921	0.687711	0.288497	0.918935	0.268938
52838		-0.720815	0.005926	0.693102	0.633849	-0.398989	0.662604	0.280467	0.916937	0.283841
52839		-0.703903	-0.021719	0.709964	0.655674	-0.404250	0.637710	0.273153	0.914390	0.298793
52840		-0.686877	-0.048814	0.725133	0.676000	-0.409293	0.612783	0.266879	0.911096	0.314132
52841		-0.669790	-0.075131	0.738740	0.695125	-0.413288	0.588213	0.261119	0.907496	0.329041
52842		-0.652571	-0.101055	0.750959	0.713264	-0.416423	0.563778	0.255744	0.903537	0.343825
52843		-0.635465	-0.126492	0.761698	0.730406	-0.418372	0.539881	0.250383	0.899424	0.358251
52844		-0.618471	-0.151426	0.771079	0.746562	-0.419453	0.516434	0.245230	0.895058	0.372468
52845		-0.601781	-0.175722	0.779090	0.761757	-0.419389	0.493801	0.239970	0.890637	0.386238
52846		-0.585475	-0.199721	0.785704	0.775928	-0.418817	0.471729	0.234852	0.885835	0.400176
52847		-0.569826	-0.223039	0.790919	0.788950	-0.417753	0.450601	0.229907	0.880759	0.414013
52848		-0.554827	-0.245798	0.794827	0.800842	-0.416654	0.430176	0.225432	0.875204	0.428017
52849		-0.540438	-0.267940	0.797581	0.811496	-0.416402	0.409980	0.222264	0.868802	0.442471
52850		-0.526691	-0.289458	0.799256	0.820794	-0.417752	0.389591	0.221120	0.861219	0.457612
52851		-0.513773	-0.310365	0.799819	0.828666	-0.420922	0.368967	0.222147	0.852348	0.473448
52852		-0.501541	-0.331249	0.799206	0.835253	-0.426092	0.347559	0.225407	0.841855	0.490380
52853		-0.489847	-0.351976	0.797599	0.840815	-0.432509	0.325524	0.230392	0.830090	0.507810
52854		-0.478136	-0.372191	0.795525	0.845663	-0.439664	0.302572	0.237149	0.817416	0.524967
52855		-0.466131	-0.392023	0.793121	0.850133	-0.446668	0.278859	0.244943	0.804242	0.541477
52856		-0.453600	-0.411936	0.790289	0.854364	-0.453325	0.254082	0.253593	0.790446	0.557571
52857		-0.440731	-0.432099	0.786795	0.858320	-0.459439	0.228478	0.262759	0.776020	0.573369
52858		-0.427503	-0.452530	0.782597	0.861898	-0.465183	0.201834	0.272715	0.760803	0.588901
52859		-0.413677	-0.472930	0.777952	0.865215	-0.470141	0.174272	0.283329	0.745187	0.603673
52860		-0.398663	-0.492735	0.773486	0.868587	-0.473532	0.146024	0.294320	0.730055	0.616763
52861		-0.382260	-0.511049	0.769874	0.872343	-0.474380	0.118240	0.304786	0.716793	0.627147
52862		-0.364647	-0.528288	0.766775	0.876756	-0.472119	0.091673	0.313579	0.705703	0.635336
52863		-0.346341	-0.544574	0.763863	0.881801	-0.466839	0.066997	0.320116	0.696779	0.641891
52864		-0.327771	-0.559919	0.760958	0.887153	-0.459362	0.044125	0.324849	0.689549	0.647299
52865		-0.309527	-0.574624	0.757629	0.892336	-0.450803	0.022650	0.328526	0.683070	0.652293
52866		-0.291743	-0.589008	0.753628	0.897038	-0.441949	0.001850	0.331976	0.676573	0.657298
52867		-0.274300	-0.602609	0.749415	0.901310	-0.432796	-0.018118	0.335262	0.670485	0.661853
52868		-0.256898	-0.615250	0.745299	0.905296	-0.423144	-0.037261	0.338294	0.665144	0.665689
52869		-0.239495	-0.626723	0.741526	0.909346	-0.412408	-0.054862	0.340195	0.661164	0.668677
52870		-0.222138	-0.636998	0.738165	0.913607	-0.400421	-0.070609	0.340555	0.658708	0.670915
52871		-0.205372	-0.646055	0.735143	0.917900	-0.387746	-0.084330	0.339531	0.657469	0.672646
52872		-0.189534	-0.654047	0.732324	0.921954	-0.375111	-0.096403	0.337755	0.656898	0.674097
52873		-0.174922	-0.660883	0.729819	0.925640	-0.363004	-0.106860	0.335549	0.656857	0.675238
52874		-0.161560	-0.666576	0.727719	0.928981	-0.351555	-0.115775	0.333006	0.657333	0.676033
52875		-0.149437	-0.671069	0.726178	0.932118	-0.340638	-0.122971	0.329886	0.658507	0.676420
52876		-0.138589	-0.674538	0.725115	0.935165	-0.330133	-0.128370	0.325975	0.660311	0.676557
52877		-0.128984	-0.676888	0.724697	0.938261	-0.319853	-0.131757	0.320981	0.662961	0.676353
52878		-0.120678	-0.678465	0.724653	0.941349	-0.309938	-0.133418	0.315117	0.666051	0.676075
52879		-0.113776	-0.679418	0.724877	0.944170	-0.301006	-0.133934	0.309190	0.669169	0.675733
52880		-0.108200	-0.679813	0.725360	0.946606	-0.293351	-0.133728	0.303695	0.672160	0.675255
52881		-0.104096	-0.679759	0.726011	0.948589	-0.287242	-0.132933	0.298903	0.674848	0.674712
52882		-0.101325	-0.679105	0.727014	0.950197	-0.282549	-0.131499	0.294719	0.677483	0.673912
52883		-0.099872	-0.677933	0.728308	0.951535	-0.279054	-0.129270	0.290874	0.680100	0.672946
52884		-0.099736	-0.676179	0.729955	0.952767	-0.276398	-0.125856	0.286859	0.682925	0.671808
52885		-0.100961	-0.673888	0.731903	0.953882	-0.274602	-0.121254	0.282694	0.685907	0.670534
52886		-0.103696	-0.670905	0.734257	0.954776	-0.273976	-0.115497	0.278656	0.689075	0.668974
52887		-0.108104	-0.667341	0.736865	0.955355	-0.274750	-0.108668	0.274972	0.692220	0.667249
52888		-0.114158	-0.663282	0.739612	0.955565	-0.276975	-0.100901	0.271779	0.695228	0.665427
52889		-0.121949	-0.658941	0.742244	0.955301	-0.280837	-0.092364	0.269312	0.697802	0.663734
52890		-0.131384	-0.654286	0.744747	0.954352	-0.286757	-0.083565	0.268237	0.699771	0.662094
52891		-0.142394	-0.649116	0.747243	0.952612	-0.294890	-0.074637	0.268802	0.701205	0.660346
52892		-0.154955	-0.643157	0.749892	0.950247	-0.304653	-0.064935	0.270220	0.702521	0.658366
52893		-0.168755	-0.636382	0.752689	0.947452	-0.315283	-0.054143	0.271766	0.703999	0.656147
52894		-0.183724	-0.628680	0.755650	0.944302	-0.326395	-0.041960	0.273020	0.705852	0.653630
52895		-0.199748	-0.620013	0.758739	0.940756	-0.337890	-0.028444	0.274006	0.708106	0.650774
52896		-0.216708	-0.610269	0.761977	0.936833	-0.349517	-0.013491	0.274558	0.710921	0.647464
52897		-0.234203	-0.599784	0.765119	0.932521	-0.361108	0.002368	0.274870	0.714045	0.643884
52898		-0.252235	-0.588272	0.768319	0.927759	-0.372683	0.019229	0.275028	0.717665	0.639778
52899		-0.270779	-0.575666	0.771549	0.922404	-0.384462	0.036870	0.275406	0.721663	0.635101
52900		-0.289953	-0.561955	0.774683	0.916430	-0.396327	0.055512	0.275833	0.726038	0.629909
52901		-0.309715	-0.547226	0.777573	0.909784	-0.408237	0.075074	0.276351	0.730675	0.624294
52902		-0.330325	-0.531201	0.780199	0.902329	-0.420242	0.095910	0.276925	0.735678	0.618135
52903		-0.351853	-0.514056	0.782270	0.893770	-0.432843	0.117569	0.278163	0.740536	0.611745
52904		-0.374387	-0.495666	0.783677	0.883963	-0.446048	0.140177	0.280077	0.745222	0.605145
52905		-0.397701	-0.476124	0.784309	0.872934	-0.459568	0.163654	0.282524	0.749735	0.598396
52906		-0.421624	-0.455185	0.784245	0.860843	-0.472692	0.188448	0.284927	0.754566	0.591140
52907		-0.445692	-0.433185	0.783396	0.847941	-0.484833	0.214321	0.286976	0.759795	0.583401
52908		-0.469857	-0.410191	0.781651	0.834340	-0.495543	0.241481	0.288288	0.765624	0.575073
52909		-0.493892	-0.386329	0.778987	0.820060	-0.504805	0.269582	0.289089	0.771960	0.566132
52910		-0.517870	-0.361474	0.775337	0.804882	-0.512908	0.298479	0.289784	0.778628	0.556564
52911		-0.541776	-0.335794	0.770533	0.788577	-0.520346	0.327699	0.290904	0.785164	0.546710
52912		-0.565842	-0.308923	0.764454	0.770622	-0.527845	0.357101	0.293196	0.791168	0.536739
52913		-0.590176	-0.280844	0.756848	0.750626	-0.535920	0.386459	0.297076	0.796188	0.527096
52914		-0.614942	-0.251486	0.747396	0.728291	-0.544561	0.415987	0.302388	0.800130	0.518029
52915		-0.639994	-0.220967	0.735922	0.703564	-0.553527	0.445653	0.308878	0.802983	0.509718
52916		-0.664996	-0.189178	0.722490	0.676668	-0.562021	0.475660	0.316070	0.805198	0.501753
52917		-0.689274	-0.156527	0.707390	0.648387	-0.568914	0.505897	0.323258	0.807364	0.493627
52918		-0.712244	-0.123178	0.691040	0.619663	-0.572805	0.536575	0.329737	0.810384	0.484306
52919		-0.733870	-0.089930	0.673311	0.590942	-0.573336	0.567515	0.334997	0.814370	0.473897
52920		-0.754402	-0.057218	0.653914	0.562133	-0.570710	0.598579	0.338946	0.819156	0.462709
52921		-0.774059	-0.025154	0.632614	0.532695	-0.565880	0.629298	0.342154	0.824104	0.451424
52922		-0.792781	0.006759	0.609469	0.502197	-0.559398	0.659448	0.345393	0.828871	0.440086
52923		-0.810274	0.038666	0.584774	0.470728	-0.551443	0.688713	0.349099	0.833316	0.428619
52924		-0.826150	0.070994	0.558960	0.438651	-0.541594	0.717120	0.353640	0.837637	0.416296
52925		-0.840404	0.103385	0.532007	0.406294	-0.529466	0.744709	0.358671	0.842008	0.402960
52926		-0.853265	0.135109	0.503671	0.373880	-0.514808	0.771483	0.363528	0.846592	0.388753
52927		-0.864934	0.165769	0.473720	0.340303	-0.500061	0.796324	0.368895	0.849976	0.376108
52928		-0.875650	0.195175	0.441751	0.304532	-0.486782	0.818721	0.374830	0.851440	0.366813
52929		-0.885454	0.223109	0.407668	0.266258	-0.475420	0.838500	0.380890	0.850998	0.361558
52930		-0.893990	0.250062	0.371821	0.225696	-0.465556	0.855756	0.387096	0.848956	0.359765
52931		-0.900991	0.276204	0.334554	0.183395	-0.456377	0.870682	0.393169	0.845832	0.360537
52932		-0.906257	0.301661	0.296139	0.140074	-0.446675	0.883663	0.398845	0.842308	0.362547
52933		-0.909850	0.326079	0.256604	0.095837	-0.436552	0.894560	0.403718	0.838507	0.365947
52934		-0.911786	0.349088	0.216294	0.051237	-0.425874	0.903330	0.407456	0.834727	0.370420
52935		-0.912074	0.370250	0.176171	0.007644	-0.414230	0.910140	0.409954	0.831462	0.374979
52936		-0.910542	0.389829	0.137644	-0.033148	-0.400716	0.915603	0.412085	0.829132	0.377791
52937		-0.907254	0.408195	0.101330	-0.070005	-0.384129	0.920622	0.414717	0.828144	0.377078
52938		-0.902534	0.425345	0.067178	-0.102611	-0.363941	0.925753	0.418214	0.828630	0.372115
52939		-0.896858	0.441039	0.033608	-0.132748	-0.340865	0.930693	0.421928	0.830238	0.364254
52940		-0.890842	0.454311	-0.001154	-0.162590	-0.316444	0.934573	0.424222	0.832745	0.355769
52941		-0.884673	0.464665	-0.037944	-0.194494	-0.293875	0.935847	0.423705	0.835298	0.350358
52942		-0.877899	0.472792	-0.075907	-0.228943	-0.275199	0.933729	0.420570	0.837098	0.349839
52943		-0.869999	0.479821	-0.113458	-0.264768	-0.260529	0.928452	0.415932	0.837792	0.353701
52944		-0.860921	0.486359	-0.149232	-0.300173	-0.248791	0.920869	0.410746	0.837590	0.360181
52945		-0.851307	0.491747	-0.182924	-0.333321	-0.237652	0.912370	0.405183	0.837679	0.366224
52946		-0.841501	0.495836	-0.214528	-0.363464	-0.225797	0.903831	0.399712	0.838548	0.370227
52947		-0.831545	0.498767	-0.244466	-0.390745	-0.212458	0.895645	0.394779	0.840293	0.371559
52948		-0.821398	0.500989	-0.272609	-0.415315	-0.197777	0.887918	0.390921	0.842552	0.370522
52949		-0.811087	0.502600	-0.299216	-0.437692	-0.182158	0.880480	0.388025	0.845110	0.367730
52950		-0.800844	0.503422	-0.324368	-0.458243	-0.166405	0.873111	0.385567	0.847866	0.363954
52951		-0.790903	0.503205	-0.348220	-0.477164	-0.150857	0.865769	0.383128	0.850898	0.359425
52952		-0.781436	0.502075	-0.370511	-0.494333	-0.135771	0.858604	0.380779	0.854100	0.354289
52953		-0.772573	0.499986	-0.391337	-0.509747	-0.120973	0.851777	0.378535	0.857543	0.348327
52954		-0.764175	0.497298	-0.410769	-0.523867	-0.106987	0.845054	0.376297	0.860958	0.342275
52955		-0.755750	0.494431	-0.429395	-0.537631	-0.094085	0.837915	0.373892	0.864110	0.336926
52956		-0.747010	0.491656	-0.447494	-0.551939	-0.083427	0.829701	0.370595	0.866784	0.333685
52957		-0.737893	0.489308	-0.464856	-0.566931	-0.075660	0.820283	0.366200	0.868823	0.333233
52958		-0.728780	0.487347	-0.481012	-0.581716	-0.070065	0.810369	0.361229	0.870393	0.334559
52959		-0.720151	0.485555	-0.495600	-0.595366	-0.065687	0.800765	0.356261	0.871735	0.336387
52960		-0.712313	0.483773	-0.508502	-0.607202	-0.061384	0.792173	0.352018	0.873038	0.337472
52961		-0.705475	0.481901	-0.519689	-0.617037	-0.056886	0.784875	0.348669	0.874377	0.337482
52962		-0.699747	0.479786	-0.529301	-0.625044	-0.052392	0.778829	0.345940	0.875820	0.336549
52963		-0.695064	0.477464	-0.537508	-0.631429	-0.047915	0.773952	0.343779	0.877344	0.334788
52964		-0.691429	0.474925	-0.544401	-0.636244	-0.043338	0.770269	0.342227	0.878959	0.332133
52965		-0.688828	0.472330	-0.549927	-0.639506	-0.038678	0.767812	0.341391	0.880573	0.328701
52966		-0.687465	0.469569	-0.553982	-0.641164	-0.034229	0.766640	0.341029	0.882232	0.324602
52967		-0.687075	0.466630	-0.556942	-0.641771	-0.030350	0.766296	0.340673	0.883932	0.320322
52968		-0.687353	0.463459	-0.559242	-0.642168	-0.028024	0.766051	0.339362	0.885675	0.316881
52969		-0.688171	0.460089	-0.561016	-0.642836	-0.028104	0.765488	0.336426	0.887428	0.315102
52970		-0.689381	0.456862	-0.562166	-0.643810	-0.030675	0.764571	0.332059	0.889009	0.315279
52971		-0.690978	0.453743	-0.562732	-0.644904	-0.035255	0.763450	0.326571	0.890435	0.316981
52972		-0.693025	0.450552	-0.562778	-0.645892	-0.041298	0.762311	0.320219	0.891795	0.319628
52973		-0.695477	0.447282	-0.562361	-0.646595	-0.048206	0.761308	0.313410	0.893093	0.322737
52974		-0.698326	0.443944	-0.561475	-0.646898	-0.055686	0.760541	0.306371	0.894323	0.326073
52975		-0.701503	0.440408	-0.560298	-0.646844	-0.063461	0.759977	0.299143	0.895552	0.329394
52976		-0.704874	0.436641	-0.559015	-0.646616	-0.071538	0.759454	0.291618	0.896787	0.332764
52977		-0.708393	0.432609	-0.557699	-0.646307	-0.080022	0.758870	0.283666	0.898023	0.336285
52978		-0.711916	0.428306	-0.556534	-0.646152	-0.089092	0.757991	0.275069	0.899231	0.340177
52979		-0.715422	0.423622	-0.555622	-0.646222	-0.098837	0.756722	0.265649	0.900431	0.344464
52980		-0.718891	0.418481	-0.555040	-0.646535	-0.109256	0.755021	0.255321	0.901630	0.349105
52981		-0.722258	0.413025	-0.554755	-0.647075	-0.120319	0.752873	0.244208	0.902737	0.354160
52982		-0.725568	0.407338	-0.554642	-0.647596	-0.131573	0.750538	0.232747	0.903750	0.359256
52983		-0.728819	0.401325	-0.554762	-0.648054	-0.142782	0.748091	0.221018	0.904738	0.364142
52984		-0.731875	0.395111	-0.555199	-0.648535	-0.153752	0.745495	0.209190	0.905675	0.368771
52985		-0.734767	0.388403	-0.556112	-0.649145	-0.164777	0.742603	0.196795	0.906638	0.373202
52986		-0.737486	0.381166	-0.557518	-0.649877	-0.175887	0.739408	0.183777	0.907621	0.377426
52987		-0.740131	0.373246	-0.559369	-0.650612	-0.187129	0.735994	0.170033	0.908664	0.381338
52988		-0.742646	0.364585	-0.561742	-0.651440	-0.198837	0.732181	0.155247	0.909693	0.385171
52989		-0.745115	0.354993	-0.564610	-0.652323	-0.211667	0.727786	0.138850	0.910591	0.389286
52990		-0.747681	0.344259	-0.567855	-0.652957	-0.225422	0.723071	0.120917	0.911411	0.393330
52991		-0.750606	0.331840	-0.571378	-0.652893	-0.239527	0.718580	0.101594	0.912419	0.396447
52992		-0.754167	0.318457	-0.574298	-0.651536	-0.253584	0.714980	0.082057	0.913390	0.398730
52993		-0.758266	0.304247	-0.576599	-0.648923	-0.267163	0.712406	0.062701	0.914362	0.400013
52994		-0.762579	0.289524	-0.578489	-0.645426	-0.280298	0.710533	0.043567	0.915210	0.400616
52995		-0.766985	0.273959	-0.580241	-0.641195	-0.292629	0.709392	0.024549	0.916141	0.400103
52996		-0.771436	0.257484	-0.581884	-0.636282	-0.304013	0.709029	0.005663	0.917212	0.398359
52997		-0.775989	0.239703	-0.583424	-0.630599	-0.314843	0.709379	-0.013647	0.918377	0.395472
52998		-0.780609	0.220229	-0.584936	-0.624081	-0.325936	0.710133	-0.034260	0.919383	0.391869
52999		-0.785248	0.198560	-0.586481	-0.616574	-0.337590	0.711245	-0.056765	0.920112	0.387519
53000		-0.790025	0.175440	-0.587436	-0.607797	-0.349581	0.713005	-0.080267	0.920334	0.382810
53001		-0.794866	0.151381	-0.587598	-0.597745	-0.361879	0.715363	-0.104347	0.919852	0.378132
53002		-0.799529	0.126510	-0.587153	-0.586649	-0.374161	0.718224	-0.128827	0.918694	0.373370
53003		-0.803902	0.100727	-0.586170	-0.574595	-0.385996	0.721698	-0.153565	0.916985	0.368180
53004		-0.807796	0.073463	-0.584866	-0.561743	-0.396620	0.726042	-0.178633	0.915038	0.361656
53005		-0.811041	0.043760	-0.583350	-0.548114	-0.405294	0.731648	-0.204411	0.913139	0.352695
53006		-0.813382	0.011930	-0.581607	-0.533864	-0.412458	0.738152	-0.231082	0.910899	0.341855
53007		-0.814536	-0.021793	-0.579704	-0.519264	-0.418144	0.745332	-0.258643	0.908119	0.329277
53008		-0.814446	-0.056966	-0.577436	-0.503909	-0.423939	0.752563	-0.287668	0.903898	0.316570
53009		-0.813036	-0.093624	-0.574636	-0.487372	-0.430482	0.759706	-0.318497	0.897730	0.304368
53010		-0.810359	-0.131495	-0.570988	-0.469316	-0.437767	0.766878	-0.350800	0.889421	0.293036
53011		-0.806812	-0.170113	-0.565788	-0.449286	-0.445224	0.774543	-0.383662	0.879111	0.282783
53012		-0.802639	-0.209062	-0.558627	-0.427333	-0.451837	0.783090	-0.416123	0.867258	0.273322
53013		-0.798242	-0.247929	-0.548946	-0.403630	-0.456297	0.793017	-0.447094	0.854590	0.264164
53014		-0.793818	-0.286119	-0.536646	-0.378530	-0.458195	0.804221	-0.475992	0.841542	0.255419
53015		-0.789119	-0.323864	-0.521922	-0.352880	-0.456456	0.816776	-0.502759	0.828710	0.245913
53016		-0.783346	-0.361788	-0.505449	-0.327165	-0.451430	0.830165	-0.528519	0.815671	0.235261
53017		-0.775704	-0.400812	-0.487476	-0.301132	-0.443750	0.844041	-0.554620	0.801520	0.223521
53018		-0.766011	-0.440592	-0.468087	-0.274043	-0.434864	0.857784	-0.581487	0.785348	0.212370
53019		-0.754469	-0.480765	-0.446812	-0.245843	-0.424202	0.871558	-0.608553	0.767410	0.201855
53020		-0.741079	-0.520967	-0.423550	-0.216333	-0.411915	0.885170	-0.635611	0.747609	0.192560
53021		-0.726388	-0.560501	-0.397744	-0.185199	-0.397682	0.898638	-0.661863	0.726421	0.185067
53022		-0.710985	-0.598314	-0.369486	-0.152275	-0.381969	0.911544	-0.686522	0.704358	0.180466
53023		-0.694965	-0.634196	-0.338850	-0.117689	-0.364571	0.923709	-0.709347	0.681824	0.178726
53024		-0.678257	-0.667971	-0.306238	-0.081347	-0.345935	0.934725	-0.730308	0.658896	0.180296
53025		-0.660797	-0.699683	-0.271644	-0.043469	-0.325636	0.944495	-0.749305	0.635928	0.184765
53026		-0.642547	-0.729216	-0.235326	-0.004630	-0.303415	0.952847	-0.766232	0.613339	0.191582
53027		-0.623553	-0.756531	-0.197083	0.033934	-0.278050	0.959967	-0.781044	0.591903	0.199051
53028		-0.603695	-0.781572	-0.157155	0.071378	-0.249328	0.965785	-0.794014	0.571822	0.206305
53029		-0.582938	-0.804269	-0.115474	0.108148	-0.217658	0.970015	-0.805287	0.552971	0.213861
53030		-0.561022	-0.824602	-0.072707	0.144191	-0.183832	0.972324	-0.815146	0.535011	0.222034
53031		-0.538111	-0.842375	-0.028983	0.179561	-0.148166	0.972525	-0.823525	0.518122	0.230988
53032		-0.514585	-0.857303	0.015252	0.214084	-0.111236	0.970461	-0.830283	0.502650	0.240775
53033		-0.490290	-0.869497	0.059919	0.247993	-0.073269	0.965987	-0.835533	0.488473	0.251552
53034		-0.465559	-0.878812	0.104617	0.281066	-0.034727	0.959060	-0.839200	0.475903	0.263171
53035		-0.440427	-0.885269	0.149407	0.313025	0.004555	0.949734	-0.841451	0.465057	0.275105
53036		-0.414732	-0.889077	0.193752	0.343893	0.043992	0.937978	-0.842458	0.455639	0.287502
53037		-0.388575	-0.890237	0.237671	0.373353	0.083697	0.923906	-0.842388	0.447742	0.299850
53038		-0.361807	-0.888979	0.280735	0.401558	0.123157	0.907515	-0.841336	0.441077	0.312418
53039		-0.334696	-0.885353	0.322690	0.428349	0.162073	0.888960	-0.839342	0.435755	0.324995
53040		-0.307410	-0.879660	0.362902	0.452846	0.200179	0.868826	-0.836917	0.431425	0.336814
53041		-0.280359	-0.872037	0.401186	0.475104	0.237099	0.847385	-0.834071	0.428177	0.347835
53042		-0.253553	-0.862981	0.437006	0.495699	0.272027	0.824793	-0.830659	0.425752	0.358806
53043		-0.226828	-0.852838	0.470336	0.515289	0.304708	0.801018	-0.826454	0.424053	0.370342
53044		-0.200591	-0.841880	0.501000	0.534195	0.334685	0.776287	-0.821218	0.423348	0.382594
53045		-0.174923	-0.830336	0.529097	0.552163	0.362193	0.750954	-0.815180	0.423507	0.395126
53046		-0.149805	-0.818436	0.554726	0.568729	0.387614	0.725467	-0.808768	0.424167	0.407402
53047		-0.125748	-0.806216	0.578103	0.583398	0.411224	0.700387	-0.802393	0.425336	0.418634
53048		-0.103155	-0.793946	0.599174	0.596172	0.432843	0.676184	-0.796202	0.426963	0.428679
53049		-0.082015	-0.781961	0.617908	0.607330	0.452367	0.653080	-0.790205	0.428836	0.437808
53050		-0.062625	-0.770582	0.634257	0.616939	0.469654	0.631515	-0.784515	0.430846	0.445990
53051		-0.045344	-0.759962	0.648384	0.624355	0.485108	0.612251	-0.779824	0.432583	0.452489
53052		-0.029898	-0.750575	0.660108	0.629302	0.498954	0.595838	-0.776585	0.433222	0.457421
53053		-0.016170	-0.742731	0.669394	0.631950	0.511218	0.582491	-0.774841	0.432442	0.461103
53054		-0.004126	-0.736695	0.676212	0.632238	0.521992	0.572538	-0.774763	0.429890	0.463613
53055		0.006001	-0.732610	0.680622	0.630631	0.530995	0.565994	-0.776059	0.425824	0.465194
53056		0.014086	-0.730660	0.682596	0.627869	0.537759	0.562668	-0.778191	0.420655	0.466334
53057		0.019742	-0.730994	0.682098	0.624874	0.541590	0.562328	-0.780476	0.415124	0.467471
53058		0.022693	-0.733601	0.679201	0.622331	0.542064	0.564686	-0.782425	0.409873	0.468844
53059		0.022845	-0.738373	0.674005	0.620546	0.539059	0.569507	-0.783837	0.405241	0.470509
53060		0.020431	-0.745275	0.666444	0.618606	0.533090	0.577184	-0.785435	0.400474	0.471923
53061		0.015897	-0.753985	0.656699	0.615041	0.525203	0.588120	-0.788334	0.394548	0.472081
53062		0.009822	-0.764262	0.644831	0.608771	0.516155	0.602480	-0.793285	0.386637	0.470330
53063		0.002536	-0.775920	0.630827	0.599674	0.505996	0.619967	-0.800240	0.376718	0.466582
53064		-0.005780	-0.788814	0.614605	0.587728	0.494576	0.640290	-0.809038	0.364921	0.460749
53065		-0.014545	-0.802826	0.596036	0.573193	0.481736	0.662857	-0.819291	0.351285	0.453168
53066		-0.023234	-0.817748	0.575107	0.555632	0.467669	0.687429	-0.831104	0.335520	0.443501
53067		-0.031296	-0.833306	0.551926	0.534387	0.452697	0.713790	-0.844660	0.317281	0.431140
53068		-0.038285	-0.849187	0.526703	0.508984	0.437018	0.741587	-0.859924	0.296475	0.415491
53069		-0.043889	-0.864790	0.500212	0.480581	0.420682	0.769460	-0.875851	0.274163	0.397138
53070		-0.048566	-0.879724	0.472998	0.450370	0.403397	0.796516	-0.891520	0.251708	0.376610
53071		-0.052626	-0.893380	0.446209	0.419349	0.385751	0.821793	-0.906299	0.230365	0.354337
53072		-0.056666	-0.905636	0.420252	0.389432	0.367537	0.844547	-0.919310	0.211517	0.331857
53073		-0.060384	-0.916841	0.394660	0.363616	0.348010	0.864102	-0.929590	0.195683	0.312364
53074		-0.063142	-0.927535	0.368364	0.344455	0.326165	0.880322	-0.936677	0.182470	0.298899
53075		-0.064509	-0.937600	0.341679	0.332172	0.302692	0.893331	-0.941010	0.171124	0.291918
53076		-0.065529	-0.946211	0.316846	0.324163	0.280120	0.903577	-0.943729	0.161920	0.288370
53077		-0.065240	-0.953151	0.295376	0.318430	0.260645	0.911409	-0.945699	0.153517	0.286508
53078		-0.063822	-0.958409	0.278172	0.314527	0.245216	0.917029	-0.947101	0.146019	0.285795
53079		-0.061552	-0.962171	0.265401	0.312763	0.233920	0.920576	-0.947835	0.139671	0.286533
53080		-0.058256	-0.964624	0.257113	0.313454	0.226851	0.922109	-0.947815	0.134312	0.289150
53081		-0.053955	-0.965961	0.252997	0.316382	0.223774	0.921861	-0.947096	0.129783	0.293539
53082		-0.048607	-0.966229	0.253058	0.320227	0.224908	0.920256	-0.946093	0.125766	0.298481
53083		-0.042395	-0.965331	0.257564	0.323874	0.230596	0.917568	-0.945150	0.122319	0.302869
53084		-0.034751	-0.963223	0.266447	0.326776	0.241002	0.913857	-0.944463	0.118826	0.306383
53085		-0.025431	-0.959785	0.279582	0.329556	0.255989	0.908770	-0.943793	0.115249	0.309793
53086		-0.015100	-0.954724	0.297111	0.332458	0.275445	0.901999	-0.942997	0.112397	0.313246
53087		-0.003877	-0.948039	0.318131	0.335874	0.298417	0.893385	-0.941899	0.110315	0.317264
53088		0.007911	-0.939616	0.342139	0.340805	0.324198	0.882467	-0.940101	0.109621	0.322790
53089		0.020210	-0.929483	0.368311	0.347990	0.351891	0.868951	-0.937281	0.110607	0.330562
53090		0.033017	-0.917541	0.396269	0.357816	0.381057	0.852504	-0.933208	0.113644	0.340892
53091		0.046304	-0.903817	0.425407	0.370015	0.411090	0.833123	-0.927871	0.118830	0.353461
53092		0.060223	-0.888115	0.455659	0.384540	0.441896	0.810467	-0.921142	0.126410	0.368128
53093		0.074687	-0.870544	0.486389	0.400386	0.472888	0.784900	-0.913298	0.136122	0.383872
53094		0.089538	-0.851023	0.517439	0.417414	0.503763	0.756299	-0.904294	0.148269	0.400335
53095		0.104631	-0.829869	0.548060	0.434787	0.533800	0.725271	-0.894434	0.162403	0.416668
53096		0.119636	-0.807191	0.578040	0.452475	0.562570	0.691940	-0.883716	0.178768	0.432538
53097		0.134677	-0.783266	0.606924	0.469645	0.589794	0.656945	-0.872523	0.196563	0.447289
53098		0.150310	-0.758141	0.634531	0.486140	0.615546	0.620299	-0.860857	0.215233	0.461086
53099		0.166310	-0.732263	0.660403	0.502228	0.639256	0.582338	-0.848591	0.234824	0.474078
53100		0.182534	-0.705779	0.684513	0.518152	0.660735	0.543091	-0.835583	0.255550	0.486307
53101		0.198201	-0.678858	0.707014	0.533228	0.679922	0.503362	-0.822426	0.277233	0.496747
53102		0.212906	-0.651487	0.728173	0.546961	0.697014	0.463687	-0.809633	0.299560	0.504736
53103		0.226408	-0.624012	0.747896	0.558454	0.712261	0.425221	-0.798041	0.321392	0.509743
53104		0.238867	-0.596540	0.766213	0.567423	0.726072	0.388394	-0.788019	0.341992	0.511926
53105		0.250288	-0.569749	0.782778	0.574095	0.738373	0.353865	-0.779596	0.360821	0.511896
53106		0.260853	-0.544198	0.797374	0.578835	0.749196	0.321957	-0.772597	0.377564	0.510430
53107		0.270573	-0.520651	0.809761	0.581995	0.758489	0.293217	-0.766859	0.391941	0.508243
53108		0.279304	-0.499297	0.820178	0.584269	0.766215	0.267478	-0.761983	0.404497	0.505730
53109		0.286646	-0.480599	0.828769	0.585881	0.772391	0.245267	-0.758009	0.415255	0.502977
53110		0.292460	-0.464463	0.835907	0.586899	0.777314	0.226567	-0.754994	0.424332	0.499926
53111		0.296673	-0.451248	0.841642	0.587378	0.781120	0.211752	-0.752976	0.431540	0.496790
53112		0.299590	-0.440882	0.846090	0.587157	0.784192	0.200723	-0.751992	0.436653	0.493803
53113		0.300992	-0.433384	0.849460	0.586758	0.786357	0.193282	-0.751744	0.440251	0.490978
53114		0.300800	-0.428873	0.851814	0.585788	0.787916	0.189843	-0.752577	0.441878	0.488234
53115		0.298884	-0.427501	0.853177	0.583615	0.789244	0.191014	-0.755024	0.440836	0.485389
53116		0.295225	-0.429084	0.853656	0.580057	0.790466	0.196718	-0.759194	0.437093	0.482259
53117		0.289505	-0.433696	0.853285	0.575199	0.791370	0.207072	-0.765070	0.430861	0.478567
53118		0.281699	-0.441236	0.852031	0.569610	0.791490	0.221559	-0.772133	0.422912	0.474294
53119		0.271944	-0.451781	0.849670	0.563562	0.790464	0.239927	-0.780028	0.413595	0.469569
53120		0.260453	-0.465285	0.845975	0.557733	0.787737	0.261543	-0.788098	0.403708	0.464673
53121		0.247405	-0.481680	0.840699	0.552194	0.783068	0.286158	-0.796161	0.393432	0.459716
53122		0.232745	-0.500671	0.833761	0.546819	0.776327	0.313537	-0.804250	0.382942	0.454463
53123		0.216314	-0.522237	0.824911	0.541423	0.767260	0.343763	-0.812447	0.372265	0.448720
53124		0.198653	-0.546362	0.813649	0.536488	0.755388	0.376256	-0.820193	0.361769	0.443177
53125		0.180192	-0.572503	0.799857	0.531179	0.741040	0.410740	-0.827876	0.350855	0.437631
53126		0.161162	-0.600201	0.783444	0.524756	0.724423	0.447037	-0.835858	0.339071	0.431709
53127		0.141694	-0.628709	0.764623	0.516988	0.705707	0.484461	-0.844184	0.326655	0.425029
53128		0.121610	-0.657804	0.743306	0.507866	0.684651	0.522805	-0.852809	0.313922	0.417337
53129		0.101760	-0.687233	0.719275	0.496768	0.661531	0.561781	-0.861897	0.300146	0.408713
53130		0.082431	-0.716610	0.692586	0.481625	0.637055	0.601829	-0.872492	0.283957	0.397650
53131		0.064319	-0.744891	0.664078	0.460210	0.612610	0.642586	-0.885477	0.264285	0.382209
53132		0.047175	-0.771618	0.634335	0.432169	0.588296	0.683475	-0.900558	0.241897	0.361223
53133		0.030693	-0.796880	0.603357	0.402423	0.562407	0.722325	-0.914939	0.220635	0.337945
53134		0.014756	-0.821516	0.569995	0.374605	0.533080	0.758615	-0.927067	0.202329	0.315610
53135		-0.000296	-0.845150	0.534530	0.352548	0.500121	0.790942	-0.935794	0.188681	0.297808
53136		-0.016226	-0.866728	0.498516	0.336656	0.464735	0.818953	-0.941488	0.181116	0.284249
53137		-0.032177	-0.885629	0.463278	0.325131	0.429033	0.842746	-0.945121	0.177744	0.274141
53138		-0.046434	-0.901702	0.429857	0.314225	0.395292	0.863138	-0.948212	0.175151	0.264982
53139		-0.058134	-0.915038	0.399157	0.301905	0.364997	0.880699	-0.951564	0.171706	0.255036
53140		-0.066961	-0.926049	0.371415	0.287562	0.338543	0.895933	-0.955418	0.166798	0.243627
53141		-0.073622	-0.934984	0.346965	0.270109	0.316211	0.909424	-0.960011	0.160672	0.229268
53142		-0.079231	-0.942132	0.325743	0.251686	0.297278	0.921021	-0.964560	0.154959	0.213568
53143		-0.083767	-0.947898	0.307364	0.236019	0.280798	0.930294	-0.968131	0.150472	0.200201
53144		-0.087490	-0.952433	0.291918	0.225569	0.266489	0.937071	-0.970291	0.147832	0.191525
53145		-0.090758	-0.955756	0.279808	0.221120	0.254614	0.941423	-0.971014	0.147313	0.188229
53146		-0.093291	-0.957957	0.271322	0.221761	0.245672	0.943646	-0.970628	0.148202	0.189518
53147		-0.094986	-0.959304	0.265920	0.226115	0.239354	0.944236	-0.969458	0.149818	0.194177
53148		-0.095887	-0.959935	0.263305	0.232497	0.235608	0.943628	-0.967859	0.151700	0.200591
53149		-0.096222	-0.959977	0.263031	0.238569	0.234311	0.942435	-0.966347	0.153434	0.206474
53150		-0.095848	-0.959410	0.265229	0.242469	0.235926	0.941035	-0.965413	0.154506	0.210014
53151		-0.094834	-0.958175	0.270014	0.244197	0.240558	0.939414	-0.965077	0.155025	0.211170
53152		-0.093075	-0.956185	0.277574	0.244723	0.248262	0.937271	-0.965115	0.155165	0.210893
53153		-0.090288	-0.953515	0.287502	0.245942	0.258393	0.934208	-0.965070	0.155057	0.211180
53154		-0.086556	-0.950133	0.299591	0.249190	0.270513	0.929907	-0.964579	0.155144	0.213349
53155		-0.082185	-0.945924	0.313805	0.255134	0.284409	0.924131	-0.963407	0.156012	0.217963
53156		-0.076957	-0.940715	0.330352	0.264251	0.300241	0.916530	-0.961379	0.157829	0.225479
53157		-0.070912	-0.934510	0.348802	0.276278	0.317601	0.907083	-0.958458	0.160689	0.235663
53158		-0.064601	-0.927132	0.369124	0.289876	0.336513	0.895953	-0.954881	0.164880	0.247014
53159		-0.057857	-0.918646	0.390823	0.303980	0.356679	0.883389	-0.950920	0.169912	0.258613
53160		-0.050383	-0.908861	0.414044	0.318746	0.378257	0.869093	-0.946500	0.175762	0.270638
53161		-0.042523	-0.897797	0.438353	0.334186	0.400696	0.853090	-0.941547	0.182768	0.282992
53162		-0.033783	-0.885451	0.463503	0.350334	0.423850	0.835235	-0.936016	0.190597	0.295884
53163		-0.024012	-0.872021	0.488879	0.367415	0.447099	0.815542	-0.929747	0.199204	0.309658
53164		-0.013852	-0.857509	0.514283	0.385009	0.470102	0.794212	-0.922809	0.209005	0.323636
53165		-0.003223	-0.842122	0.539277	0.402903	0.492478	0.771449	-0.915237	0.219763	0.337707
53166		0.008119	-0.825975	0.563648	0.421301	0.514023	0.747185	-0.906884	0.231399	0.352158
53167		0.019567	-0.809436	0.586882	0.440223	0.534006	0.721832	-0.897675	0.244235	0.366782
