// Start Time: Unknown
// Update Rate: 100.0Hz
// Filter Profile: human (46.1)
// Option Flags: AHS Disabled ICC Disabled 
// Firmware Version: 4.0.2
PacketCounter	SampleTimeFine	Mat[1][1]	Mat[2][1]	Mat[3][1]	Mat[1][2]	Mat[2][2]	Mat[3][2]	Mat[1][3]	Mat[2][3]	Mat[3][3]
03740		-0.167862	-0.121997	-0.978233	-0.775485	-0.596315	0.207439	-0.608642	0.793426	0.005492
03741		-0.167775	-0.121883	-0.978262	-0.775534	-0.596300	0.207300	-0.608603	0.793455	0.005520
03742		-0.167728	-0.121774	-0.978283	-0.775622	-0.596221	0.207198	-0.608504	0.793531	0.005552
03743		-0.167625	-0.121690	-0.978312	-0.775748	-0.596103	0.207065	-0.608373	0.793632	0.005521
03744		-0.167555	-0.121670	-0.978326	-0.775860	-0.595981	0.206998	-0.608249	0.793727	0.005461
03745		-0.167537	-0.121709	-0.978324	-0.776027	-0.595760	0.207009	-0.608041	0.793887	0.005362
03746		-0.167590	-0.121811	-0.978302	-0.776168	-0.595539	0.207115	-0.607846	0.794037	0.005261
03747		-0.167642	-0.121919	-0.978280	-0.776265	-0.595375	0.207223	-0.607708	0.794144	0.005168
03748		-0.167643	-0.122106	-0.978257	-0.776219	-0.595395	0.207337	-0.607766	0.794100	0.005032
03749		-0.167717	-0.122248	-0.978226	-0.776158	-0.595424	0.207482	-0.607824	0.794056	0.004979
03750		-0.167814	-0.122416	-0.978188	-0.776068	-0.595479	0.207661	-0.607912	0.793990	0.004926
03751		-0.167890	-0.122507	-0.978164	-0.776001	-0.595526	0.207776	-0.607976	0.793940	0.004918
03752		-0.167922	-0.122647	-0.978141	-0.775944	-0.595562	0.207887	-0.608040	0.793891	0.004841
03753		-0.167954	-0.122705	-0.978128	-0.775960	-0.595520	0.207947	-0.608011	0.793914	0.004806
03754		-0.168008	-0.122773	-0.978110	-0.776022	-0.595410	0.208032	-0.607917	0.793986	0.004759
03755		-0.168046	-0.122861	-0.978093	-0.776108	-0.595267	0.208116	-0.607796	0.794079	0.004679
03756		-0.168076	-0.122869	-0.978087	-0.776167	-0.595181	0.208146	-0.607713	0.794143	0.004669
03757		-0.168102	-0.122910	-0.978077	-0.776240	-0.595069	0.208192	-0.607613	0.794220	0.004625
03758		-0.168148	-0.123037	-0.978053	-0.776278	-0.594980	0.208306	-0.607551	0.794267	0.004533
03759		-0.168189	-0.123049	-0.978045	-0.776275	-0.594970	0.208346	-0.607544	0.794273	0.004548
03760		-0.168263	-0.123100	-0.978025	-0.776214	-0.595018	0.208436	-0.607601	0.794229	0.004567
03761		-0.168296	-0.123134	-0.978016	-0.776145	-0.595091	0.208481	-0.607680	0.794169	0.004582
03762		-0.168414	-0.123143	-0.977994	-0.776064	-0.595163	0.208580	-0.607751	0.794114	0.004667
03763		-0.168473	-0.123201	-0.977977	-0.776052	-0.595150	0.208662	-0.607750	0.794114	0.004656
03764		-0.168539	-0.123306	-0.977952	-0.776055	-0.595106	0.208779	-0.607729	0.794131	0.004606
03765		-0.168602	-0.123357	-0.977935	-0.776176	-0.594919	0.208860	-0.607556	0.794264	0.004558
03766		-0.168564	-0.123467	-0.977927	-0.776189	-0.594889	0.208898	-0.607550	0.794269	0.004444
03767		-0.168607	-0.123507	-0.977915	-0.776278	-0.594752	0.208957	-0.607425	0.794365	0.004403
03768		-0.168657	-0.123567	-0.977899	-0.776286	-0.594714	0.209032	-0.607400	0.794384	0.004379
03769		-0.168692	-0.123563	-0.977893	-0.776259	-0.594741	0.209058	-0.607425	0.794364	0.004411
03770		-0.168706	-0.123530	-0.977895	-0.776183	-0.594844	0.209048	-0.607519	0.794293	0.004472
03771		-0.168721	-0.123502	-0.977896	-0.776076	-0.594985	0.209042	-0.607650	0.794192	0.004540
03772		-0.168692	-0.123476	-0.977904	-0.775941	-0.595175	0.209003	-0.607831	0.794053	0.004592
03773		-0.168743	-0.123441	-0.977900	-0.775918	-0.595198	0.209022	-0.607846	0.794041	0.004656
03774		-0.168673	-0.123422	-0.977914	-0.776009	-0.595103	0.208955	-0.607750	0.794115	0.004601
03775		-0.168701	-0.123468	-0.977904	-0.776090	-0.594979	0.209006	-0.607638	0.794201	0.004551
03776		-0.168762	-0.123503	-0.977889	-0.776138	-0.594891	0.209077	-0.607559	0.794261	0.004539
03777		-0.168821	-0.123544	-0.977873	-0.776243	-0.594729	0.209149	-0.607409	0.794377	0.004503
03778		-0.168912	-0.123598	-0.977851	-0.776240	-0.594697	0.209254	-0.607389	0.794392	0.004510
03779		-0.169037	-0.123657	-0.977822	-0.776209	-0.594689	0.209389	-0.607393	0.794389	0.004541
03780		-0.169150	-0.123716	-0.977795	-0.776163	-0.594706	0.209515	-0.607421	0.794367	0.004571
03781		-0.169307	-0.123761	-0.977762	-0.776036	-0.594818	0.209666	-0.607539	0.794276	0.004664
03782		-0.169457	-0.123854	-0.977724	-0.775880	-0.594959	0.209841	-0.607695	0.794156	0.004724
03783		-0.169608	-0.123882	-0.977694	-0.775811	-0.595001	0.209978	-0.607742	0.794120	0.004808
03784		-0.169702	-0.123906	-0.977675	-0.775719	-0.595090	0.210066	-0.607833	0.794050	0.004872
03785		-0.169810	-0.123918	-0.977655	-0.775697	-0.595086	0.210159	-0.607831	0.794051	0.004929
03786		-0.169896	-0.123927	-0.977639	-0.775664	-0.595103	0.210232	-0.607849	0.794037	0.004980
03787		-0.169956	-0.123903	-0.977631	-0.775635	-0.595129	0.210266	-0.607869	0.794021	0.005043
03788		-0.170029	-0.123876	-0.977622	-0.775519	-0.595266	0.210306	-0.607997	0.793923	0.005144
03789		-0.170080	-0.123842	-0.977618	-0.775496	-0.595289	0.210326	-0.608012	0.793911	0.005207
03790		-0.170169	-0.123854	-0.977601	-0.775442	-0.595332	0.210403	-0.608056	0.793877	0.005266
03791		-0.170208	-0.123846	-0.977595	-0.775384	-0.595399	0.210429	-0.608119	0.793828	0.005314
03792		-0.170260	-0.123873	-0.977582	-0.775284	-0.595509	0.210487	-0.608232	0.793741	0.005354
03793		-0.170356	-0.123886	-0.977564	-0.775224	-0.595557	0.210570	-0.608282	0.793703	0.005417
03794		-0.170443	-0.123887	-0.977549	-0.775165	-0.595609	0.210639	-0.608332	0.793663	0.005485
03795		-0.170571	-0.123925	-0.977521	-0.775140	-0.595598	0.210764	-0.608329	0.793666	0.005532
03796		-0.170706	-0.124014	-0.977487	-0.775113	-0.595576	0.210925	-0.608325	0.793669	0.005544
03797		-0.170810	-0.124061	-0.977462	-0.775132	-0.595511	0.211037	-0.608271	0.793710	0.005556
03798		-0.170924	-0.124163	-0.977430	-0.775124	-0.595468	0.211189	-0.608250	0.793727	0.005538
03799		-0.171039	-0.124212	-0.977403	-0.775099	-0.595457	0.211310	-0.608249	0.793727	0.005570
03800		-0.171112	-0.124266	-0.977384	-0.775059	-0.595478	0.211401	-0.608280	0.793703	0.005580
03801		-0.171197	-0.124278	-0.977367	-0.775043	-0.595472	0.211475	-0.608277	0.793705	0.005623
03802		-0.171250	-0.124277	-0.977358	-0.774960	-0.595565	0.211517	-0.608367	0.793636	0.005681
03803		-0.171285	-0.124243	-0.977356	-0.774921	-0.595614	0.211523	-0.608407	0.793605	0.005741
03804		-0.171268	-0.124195	-0.977365	-0.774840	-0.595734	0.211479	-0.608515	0.793521	0.005799
03805		-0.171225	-0.124056	-0.977390	-0.774874	-0.595732	0.211361	-0.608483	0.793545	0.005876
03806		-0.171123	-0.123969	-0.977419	-0.774886	-0.595765	0.211226	-0.608497	0.793534	0.005887
03807		-0.171000	-0.123834	-0.977458	-0.774930	-0.595770	0.211047	-0.608475	0.793551	0.005914
03808		-0.170867	-0.123714	-0.977496	-0.774934	-0.595829	0.210868	-0.608508	0.793525	0.005938
03809		-0.170713	-0.123569	-0.977542	-0.774990	-0.595830	0.210658	-0.608480	0.793547	0.005951
03810		-0.170520	-0.123417	-0.977595	-0.774999	-0.595905	0.210412	-0.608522	0.793515	0.005966
03811		-0.170304	-0.123267	-0.977651	-0.775044	-0.595940	0.210149	-0.608526	0.793512	0.005954
03812		-0.170133	-0.123164	-0.977694	-0.775052	-0.596000	0.209951	-0.608564	0.793483	0.005941
03813		-0.169946	-0.123020	-0.977745	-0.775076	-0.596051	0.209714	-0.608585	0.793466	0.005947
03814		-0.169748	-0.122897	-0.977794	-0.775065	-0.596148	0.209482	-0.608655	0.793413	0.005941
03815		-0.169580	-0.122805	-0.977835	-0.775088	-0.596183	0.209293	-0.608671	0.793401	0.005916
03816		-0.169433	-0.122713	-0.977872	-0.775083	-0.596251	0.209120	-0.608719	0.793364	0.005912
03817		-0.169297	-0.122646	-0.977904	-0.775141	-0.596228	0.208971	-0.608683	0.793392	0.005872
03818		-0.169126	-0.122620	-0.977937	-0.775207	-0.596195	0.208820	-0.608647	0.793420	0.005776
03819		-0.169022	-0.122609	-0.977956	-0.775310	-0.596091	0.208732	-0.608543	0.793500	0.005693
03820		-0.168937	-0.122531	-0.977981	-0.775409	-0.596003	0.208618	-0.608442	0.793578	0.005675
03821		-0.168829	-0.122535	-0.977999	-0.775499	-0.595915	0.208535	-0.608357	0.793644	0.005581
03822		-0.168710	-0.122532	-0.978020	-0.775569	-0.595858	0.208439	-0.608301	0.793687	0.005495
03823		-0.168595	-0.122521	-0.978041	-0.775634	-0.595806	0.208342	-0.608249	0.793728	0.005418
03824		-0.168519	-0.122523	-0.978054	-0.775617	-0.595849	0.208283	-0.608292	0.793695	0.005381
03825		-0.168463	-0.122508	-0.978066	-0.775678	-0.595788	0.208229	-0.608230	0.793743	0.005341
03826		-0.168414	-0.122512	-0.978074	-0.775754	-0.595703	0.208193	-0.608147	0.793807	0.005286
03827		-0.168427	-0.122521	-0.978070	-0.775860	-0.595559	0.208210	-0.608008	0.793913	0.005249
03828		-0.168448	-0.122542	-0.978064	-0.775935	-0.595450	0.208240	-0.607906	0.793991	0.005218
03829		-0.168509	-0.122618	-0.978044	-0.776058	-0.595256	0.208336	-0.607732	0.794126	0.005147
03830		-0.168550	-0.122693	-0.978027	-0.776176	-0.595074	0.208416	-0.607570	0.794250	0.005068
03831		-0.168613	-0.122760	-0.978008	-0.776261	-0.594931	0.208507	-0.607444	0.794347	0.005019
03832		-0.168696	-0.122849	-0.977983	-0.776286	-0.594857	0.208627	-0.607389	0.794389	0.004984
03833		-0.168791	-0.122886	-0.977962	-0.776310	-0.594791	0.208725	-0.607332	0.794433	0.004998
03834		-0.168856	-0.122933	-0.977944	-0.776242	-0.594851	0.208806	-0.607400	0.794380	0.005019
03835		-0.168934	-0.122954	-0.977928	-0.776286	-0.594767	0.208881	-0.607323	0.794439	0.005029
03836		-0.168983	-0.123004	-0.977913	-0.776372	-0.594631	0.208951	-0.607199	0.794534	0.004986
03837		-0.169067	-0.123024	-0.977897	-0.776476	-0.594468	0.209030	-0.607044	0.794653	0.004980
03838		-0.169130	-0.123027	-0.977885	-0.776620	-0.594260	0.209083	-0.606841	0.794808	0.004962
03839		-0.169157	-0.123088	-0.977873	-0.776747	-0.594073	0.209143	-0.606671	0.794938	0.004884
03840		-0.169182	-0.123117	-0.977865	-0.776833	-0.593948	0.209182	-0.606555	0.795027	0.004844
03841		-0.169216	-0.123138	-0.977856	-0.776888	-0.593861	0.209222	-0.606474	0.795089	0.004826
03842		-0.169270	-0.123143	-0.977846	-0.776832	-0.593919	0.209267	-0.606531	0.795045	0.004871
03843		-0.169281	-0.123118	-0.977848	-0.776837	-0.593915	0.209261	-0.606522	0.795052	0.004896
03844		-0.169263	-0.123122	-0.977850	-0.776806	-0.593960	0.209249	-0.606567	0.795018	0.004894
03845		-0.169266	-0.123077	-0.977855	-0.776778	-0.594005	0.209224	-0.606601	0.794991	0.004941
03846		-0.169183	-0.123008	-0.977878	-0.776729	-0.594106	0.209115	-0.606686	0.794926	0.004969
03847		-0.169124	-0.122916	-0.977900	-0.776722	-0.594151	0.209013	-0.606712	0.794906	0.005014
03848		-0.169009	-0.122810	-0.977933	-0.776697	-0.594240	0.208856	-0.606777	0.794856	0.005045
03849		-0.168883	-0.122671	-0.977973	-0.776732	-0.594258	0.208672	-0.606767	0.794864	0.005077
03850		-0.168724	-0.122547	-0.978016	-0.776798	-0.594243	0.208470	-0.606726	0.794895	0.005069
03851		-0.168546	-0.122428	-0.978061	-0.776863	-0.594234	0.208256	-0.606693	0.794920	0.005046
03852		-0.168416	-0.122313	-0.978098	-0.776955	-0.594173	0.208084	-0.606611	0.794983	0.005036
03853		-0.168235	-0.122303	-0.978130	-0.777038	-0.594117	0.207935	-0.606555	0.795027	0.004918
03854		-0.168161	-0.122279	-0.978146	-0.777094	-0.594070	0.207862	-0.606504	0.795065	0.004877
03855		-0.168065	-0.122275	-0.978163	-0.777101	-0.594087	0.207783	-0.606521	0.795053	0.004825
03856		-0.167985	-0.122274	-0.978177	-0.777033	-0.594200	0.207718	-0.606631	0.794969	0.004805
03857		-0.167934	-0.122303	-0.978182	-0.776958	-0.594306	0.207694	-0.606742	0.794885	0.004780
03858		-0.167887	-0.122319	-0.978188	-0.776866	-0.594435	0.207666	-0.606871	0.794786	0.004772
03859		-0.167837	-0.122337	-0.978195	-0.776835	-0.594487	0.207637	-0.606926	0.794744	0.004741
03860		-0.167801	-0.122276	-0.978208	-0.776793	-0.594564	0.207571	-0.606989	0.794696	0.004785
03861		-0.167776	-0.122272	-0.978213	-0.776842	-0.594508	0.207549	-0.606933	0.794739	0.004758
03862		-0.167756	-0.122271	-0.978217	-0.776895	-0.594444	0.207533	-0.606870	0.794787	0.004730
03863		-0.167728	-0.122327	-0.978215	-0.776988	-0.594319	0.207545	-0.606759	0.794872	0.004637
03864		-0.167711	-0.122384	-0.978210	-0.777072	-0.594201	0.207567	-0.606657	0.794951	0.004553
03865		-0.167726	-0.122426	-0.978202	-0.777106	-0.594143	0.207605	-0.606609	0.794988	0.004515
03866		-0.167752	-0.122510	-0.978187	-0.777068	-0.594168	0.207677	-0.606650	0.794957	0.004475
03867		-0.167758	-0.122559	-0.978180	-0.776992	-0.594256	0.207710	-0.606746	0.794883	0.004464
03868		-0.167846	-0.122602	-0.978160	-0.776849	-0.594410	0.207805	-0.606905	0.794761	0.004526
03869		-0.167887	-0.122658	-0.978146	-0.776730	-0.594542	0.207870	-0.607046	0.794654	0.004544
03870		-0.167984	-0.122720	-0.978121	-0.776629	-0.594634	0.207985	-0.607148	0.794575	0.004581
03871		-0.168067	-0.122727	-0.978106	-0.776604	-0.594642	0.208055	-0.607157	0.794569	0.004629
03872		-0.168137	-0.122824	-0.978082	-0.776631	-0.594566	0.208170	-0.607103	0.794610	0.004580
03873		-0.168238	-0.122916	-0.978053	-0.776729	-0.594391	0.208307	-0.606950	0.794727	0.004526
03874		-0.168412	-0.123040	-0.978007	-0.776803	-0.594219	0.208521	-0.606807	0.794837	0.004496
03875		-0.168576	-0.123113	-0.977970	-0.776828	-0.594124	0.208696	-0.606729	0.794896	0.004518
03876		-0.168714	-0.123240	-0.977930	-0.776831	-0.594055	0.208884	-0.606687	0.794928	0.004489
03877		-0.168816	-0.123284	-0.977907	-0.776760	-0.594110	0.208991	-0.606749	0.794880	0.004533
03878		-0.168910	-0.123331	-0.977885	-0.776715	-0.594133	0.209094	-0.606781	0.794856	0.004562
03879		-0.169051	-0.123376	-0.977855	-0.776572	-0.594271	0.209232	-0.606925	0.794746	0.004651
03880		-0.169143	-0.123403	-0.977835	-0.776429	-0.594427	0.209321	-0.607082	0.794625	0.004729
03881		-0.169247	-0.123436	-0.977813	-0.776401	-0.594427	0.209424	-0.607089	0.794620	0.004769
03882		-0.169312	-0.123509	-0.977793	-0.776432	-0.594352	0.209520	-0.607031	0.794664	0.004734
03883		-0.169392	-0.123592	-0.977769	-0.776497	-0.594227	0.209634	-0.606925	0.794745	0.004688
03884		-0.169461	-0.123695	-0.977744	-0.776569	-0.594092	0.209753	-0.606815	0.794830	0.004617
03885		-0.169490	-0.123805	-0.977725	-0.776589	-0.594033	0.209843	-0.606781	0.794856	0.004537
03886		-0.169568	-0.123881	-0.977702	-0.776526	-0.594078	0.209950	-0.606840	0.794811	0.004540
03887		-0.169606	-0.123946	-0.977687	-0.776445	-0.594158	0.210020	-0.606932	0.794741	0.004535
03888		-0.169627	-0.123955	-0.977682	-0.776286	-0.594360	0.210040	-0.607130	0.794589	0.004594
03889		-0.169634	-0.123939	-0.977683	-0.776157	-0.594529	0.210035	-0.607293	0.794465	0.004656
03890		-0.169573	-0.123926	-0.977695	-0.776052	-0.594687	0.209978	-0.607445	0.794348	0.004670
03891		-0.169541	-0.123878	-0.977707	-0.775984	-0.594795	0.209922	-0.607540	0.794275	0.004715
03892		-0.169507	-0.123807	-0.977722	-0.775871	-0.594967	0.209852	-0.607693	0.794157	0.004793
03893		-0.169438	-0.123689	-0.977748	-0.775905	-0.594968	0.209726	-0.607669	0.794175	0.004840
03894		-0.169399	-0.123581	-0.977769	-0.775953	-0.594939	0.209630	-0.607619	0.794213	0.004889
03895		-0.169303	-0.123448	-0.977802	-0.775968	-0.594974	0.209472	-0.607626	0.794208	0.004939
03896		-0.169165	-0.123318	-0.977842	-0.775923	-0.595101	0.209283	-0.607723	0.794134	0.004985
03897		-0.169069	-0.123170	-0.977878	-0.775892	-0.595199	0.209116	-0.607789	0.794082	0.005063
03898		-0.168970	-0.123009	-0.977915	-0.775808	-0.595371	0.208939	-0.607924	0.793978	0.005168
03899		-0.168852	-0.122836	-0.977957	-0.775780	-0.595477	0.208739	-0.607992	0.793926	0.005254
03900		-0.168713	-0.122696	-0.977999	-0.775737	-0.595603	0.208543	-0.608086	0.793853	0.005306
03901		-0.168589	-0.122522	-0.978042	-0.775731	-0.595681	0.208339	-0.608128	0.793821	0.005381
03902		-0.168406	-0.122355	-0.978095	-0.775729	-0.595771	0.208091	-0.608181	0.793780	0.005417
03903		-0.168278	-0.122211	-0.978134	-0.775756	-0.595802	0.207902	-0.608182	0.793779	0.005454
03904		-0.168142	-0.122073	-0.978175	-0.775760	-0.595864	0.207710	-0.608215	0.793754	0.005490
03905		-0.168013	-0.121941	-0.978214	-0.775743	-0.595949	0.207527	-0.608272	0.793710	0.005532
03906		-0.167893	-0.121847	-0.978246	-0.775642	-0.596134	0.207373	-0.608434	0.793585	0.005577
03907		-0.167779	-0.121757	-0.978277	-0.775609	-0.596228	0.207228	-0.608507	0.793528	0.005599
03908		-0.167656	-0.121652	-0.978311	-0.775527	-0.596391	0.207065	-0.608646	0.793422	0.005644
03909		-0.167593	-0.121551	-0.978334	-0.775503	-0.596461	0.206953	-0.608693	0.793385	0.005700
03910		-0.167469	-0.121481	-0.978364	-0.775449	-0.596579	0.206812	-0.608796	0.793307	0.005706
03911		-0.167413	-0.121425	-0.978381	-0.775461	-0.596592	0.206733	-0.608796	0.793306	0.005717
03912		-0.167383	-0.121383	-0.978391	-0.775496	-0.596563	0.206684	-0.608760	0.793334	0.005722
03913		-0.167383	-0.121374	-0.978392	-0.775509	-0.596548	0.206679	-0.608744	0.793346	0.005726
03914		-0.167426	-0.121377	-0.978385	-0.775465	-0.596594	0.206714	-0.608788	0.793312	0.005761
03915		-0.167506	-0.121420	-0.978366	-0.775481	-0.596541	0.206803	-0.608745	0.793345	0.005766
03916		-0.167608	-0.121493	-0.978339	-0.775471	-0.596511	0.206929	-0.608730	0.793357	0.005766
03917		-0.167712	-0.121540	-0.978315	-0.775490	-0.596448	0.207041	-0.608678	0.793397	0.005778
03918		-0.167836	-0.121698	-0.978274	-0.775435	-0.596452	0.207235	-0.608714	0.793369	0.005737
03919		-0.167966	-0.121772	-0.978243	-0.775428	-0.596409	0.207384	-0.608686	0.793390	0.005751
03920		-0.168084	-0.121906	-0.978206	-0.775373	-0.596420	0.207559	-0.608724	0.793362	0.005726
03921		-0.168198	-0.122037	-0.978170	-0.775364	-0.596372	0.207729	-0.608704	0.793377	0.005686
03922		-0.168304	-0.122183	-0.978133	-0.775428	-0.596228	0.207903	-0.608593	0.793463	0.005603
03923		-0.168428	-0.122339	-0.978093	-0.775460	-0.596119	0.208097	-0.608518	0.793521	0.005534
03924		-0.168535	-0.122499	-0.978054	-0.775502	-0.596000	0.208280	-0.608434	0.793586	0.005448
03925		-0.168660	-0.122629	-0.978016	-0.775531	-0.595900	0.208458	-0.608363	0.793641	0.005401
03926		-0.168778	-0.122830	-0.977971	-0.775508	-0.595854	0.208674	-0.608359	0.793644	0.005312
03927		-0.168901	-0.122955	-0.977934	-0.775528	-0.595767	0.208848	-0.608299	0.793690	0.005271
03928		-0.169001	-0.123097	-0.977899	-0.775561	-0.595666	0.209015	-0.608230	0.793744	0.005199
03929		-0.169084	-0.123232	-0.977867	-0.775610	-0.595551	0.209163	-0.608145	0.793810	0.005118
03930		-0.169139	-0.123373	-0.977840	-0.775655	-0.595446	0.209294	-0.608072	0.793866	0.005019
03931		-0.169188	-0.123518	-0.977813	-0.775710	-0.595329	0.209421	-0.607988	0.793931	0.004909
03932		-0.169280	-0.123630	-0.977783	-0.775720	-0.595266	0.209562	-0.607949	0.793961	0.004864
03933		-0.169364	-0.123770	-0.977751	-0.775777	-0.595138	0.209715	-0.607853	0.794035	0.004778
03934		-0.169391	-0.123926	-0.977726	-0.775827	-0.595032	0.209832	-0.607783	0.794090	0.004648
03935		-0.169464	-0.124076	-0.977695	-0.775884	-0.594905	0.209981	-0.607690	0.794162	0.004546
03936		-0.169563	-0.124302	-0.977649	-0.775940	-0.594755	0.210198	-0.607590	0.794239	0.004398
03937		-0.169662	-0.124534	-0.977602	-0.775985	-0.594618	0.210418	-0.607504	0.794305	0.004247
03938		-0.169773	-0.124812	-0.977547	-0.776008	-0.594497	0.210676	-0.607444	0.794352	0.004074
03939		-0.169941	-0.125055	-0.977487	-0.776052	-0.594340	0.210958	-0.607341	0.794431	0.003954
03940		-0.170163	-0.125387	-0.977406	-0.776068	-0.594184	0.211336	-0.607258	0.794495	0.003799
03941		-0.170417	-0.125682	-0.977324	-0.776093	-0.594017	0.211717	-0.607156	0.794574	0.003689
03942		-0.170730	-0.126046	-0.977222	-0.776061	-0.593891	0.212188	-0.607109	0.794611	0.003575
03943		-0.171049	-0.126440	-0.977116	-0.776048	-0.593731	0.212680	-0.607035	0.794667	0.003434
03944		-0.171513	-0.126950	-0.976968	-0.775993	-0.593560	0.213359	-0.606975	0.794714	0.003291
03945		-0.172142	-0.127516	-0.976784	-0.775832	-0.593466	0.214203	-0.607003	0.794693	0.003229
03946		-0.172927	-0.128268	-0.976547	-0.775640	-0.593326	0.215283	-0.607025	0.794677	0.003112
03947		-0.173889	-0.129239	-0.976248	-0.775385	-0.593166	0.216637	-0.607075	0.794639	0.002935
03948		-0.175138	-0.130394	-0.975871	-0.774918	-0.593157	0.218330	-0.607313	0.794457	0.002840
03949		-0.176718	-0.131732	-0.975406	-0.774163	-0.593378	0.220396	-0.607818	0.794071	0.002878
03950		-0.178766	-0.133378	-0.974809	-0.773036	-0.593867	0.223019	-0.608653	0.793431	0.003057
03951		-0.181326	-0.135292	-0.974072	-0.771716	-0.594376	0.226211	-0.609570	0.792725	0.003369
03952		-0.184549	-0.137677	-0.973132	-0.770044	-0.595008	0.230215	-0.610716	0.791840	0.003791
03953		-0.188528	-0.140637	-0.971946	-0.767955	-0.595771	0.235166	-0.612130	0.790746	0.004316
03954		-0.193401	-0.144316	-0.970448	-0.765373	-0.596655	0.241261	-0.613840	0.789415	0.004938
03955		-0.199455	-0.148912	-0.968526	-0.762286	-0.597491	0.248847	-0.615742	0.787927	0.005660
03956		-0.206717	-0.154888	-0.966063	-0.758566	-0.598242	0.258232	-0.617936	0.786204	0.006174
03957		-0.215084	-0.162386	-0.963000	-0.753606	-0.599576	0.269420	-0.621142	0.783670	0.006584
03958		-0.224554	-0.171562	-0.959240	-0.746882	-0.601963	0.282504	-0.625894	0.779877	0.007036
03959		-0.234987	-0.182474	-0.954717	-0.738083	-0.605620	0.297418	-0.632467	0.774550	0.007632
03960		-0.246545	-0.195173	-0.949275	-0.726565	-0.610986	0.314324	-0.641341	0.767205	0.008830
03961		-0.259083	-0.209470	-0.942867	-0.712020	-0.618180	0.332987	-0.652613	0.757612	0.011013
03962		-0.272992	-0.225061	-0.935320	-0.694518	-0.626646	0.353496	-0.665673	0.746098	0.014760
03963		-0.288052	-0.241851	-0.926571	-0.674905	-0.635159	0.375602	-0.679360	0.733540	0.019732
03964		-0.304402	-0.259643	-0.916474	-0.653724	-0.642840	0.399252	-0.692809	0.720654	0.025947
03965		-0.321759	-0.278577	-0.904912	-0.631613	-0.648852	0.424331	-0.705363	0.708086	0.032821
03966		-0.339810	-0.298708	-0.891798	-0.608637	-0.653049	0.450653	-0.717001	0.695917	0.040108
03967		-0.357737	-0.320149	-0.877228	-0.584813	-0.655560	0.477739	-0.728024	0.683919	0.047291
03968		-0.375826	-0.342522	-0.861065	-0.559768	-0.656598	0.505508	-0.738521	0.671980	0.055034
03969		-0.393717	-0.365376	-0.843497	-0.533609	-0.656333	0.533374	-0.748497	0.660096	0.063441
03970		-0.411855	-0.388733	-0.824174	-0.505496	-0.655063	0.561575	-0.758188	0.647904	0.073288
03971		-0.429721	-0.412897	-0.803029	-0.476275	-0.651911	0.590063	-0.767139	0.636025	0.083487
03972		-0.447406	-0.437901	-0.779789	-0.445996	-0.646519	0.618952	-0.775188	0.624705	0.093954
03973		-0.464150	-0.463918	-0.754550	-0.413608	-0.639777	0.647777	-0.783259	0.612753	0.105072
03974		-0.480230	-0.491100	-0.726774	-0.377646	-0.632082	0.676651	-0.791684	0.599411	0.118083
03975		-0.494393	-0.519936	-0.696594	-0.337065	-0.624008	0.704983	-0.801226	0.583336	0.133252
03976		-0.507063	-0.550478	-0.663220	-0.291361	-0.614705	0.732971	-0.811169	0.564899	0.151306
03977		-0.517144	-0.582540	-0.627064	-0.241125	-0.603803	0.759789	-0.821231	0.544122	0.171788
03978		-0.525131	-0.615925	-0.587259	-0.186778	-0.589825	0.785634	-0.830272	0.522248	0.194694
03979		-0.529658	-0.650238	-0.544659	-0.129145	-0.572819	0.809444	-0.838322	0.499068	0.219423
03980		-0.531060	-0.685197	-0.498479	-0.067475	-0.552225	0.830960	-0.844644	0.474924	0.247031
03981		-0.527658	-0.720375	-0.450152	-0.003554	-0.528052	0.849205	-0.849449	0.449690	0.276070
03982		-0.519511	-0.755371	-0.399404	0.061827	-0.499438	0.864141	-0.852224	0.424236	0.306166
03983		-0.506510	-0.789309	-0.347044	0.125950	-0.465906	0.875824	-0.852986	0.399903	0.335399
03984		-0.487920	-0.822012	-0.293651	0.189350	-0.428074	0.883685	-0.852104	0.375565	0.364513
03985		-0.464109	-0.852497	-0.240523	0.251140	-0.387038	0.887204	-0.849430	0.351355	0.393724
03986		-0.434566	-0.880649	-0.188707	0.312190	-0.343826	0.885619	-0.844802	0.325947	0.424345
03987		-0.400579	-0.905572	-0.139557	0.372151	-0.299983	0.878359	-0.837281	0.299916	0.457176
03988		-0.362063	-0.927441	-0.093611	0.430945	-0.255588	0.865425	-0.826557	0.272997	0.492215
03989		-0.320076	-0.945975	-0.051800	0.488585	-0.211666	0.846453	-0.811687	0.245621	0.529938
03990		-0.274679	-0.961429	-0.014345	0.545760	-0.168171	0.820892	-0.791642	0.217653	0.570903
03991		-0.227560	-0.973596	0.018091	0.602608	-0.126206	0.787995	-0.764905	0.190217	0.615416
03992		-0.179262	-0.982726	0.045987	0.659008	-0.085242	0.747290	-0.730461	0.164267	0.662905
03993		-0.133124	-0.988624	0.070010	0.713684	-0.046607	0.698916	-0.687702	0.143008	0.711769
03994		-0.090600	-0.991643	0.091841	0.764407	-0.010134	0.644655	-0.638337	0.128610	0.758937
03995		-0.054041	-0.992269	0.111721	0.808775	0.022122	0.587702	-0.585630	0.122117	0.801327
03996		-0.023402	-0.991306	0.129476	0.845761	0.049423	0.531268	-0.533049	0.121938	0.837252
03997		-0.002289	-0.989567	0.144056	0.874648	0.067850	0.479986	-0.484752	0.127097	0.865368
03998		0.008043	-0.987842	0.155253	0.896839	0.075797	0.435814	-0.442283	0.135732	0.886545
03999		0.003436	-0.986720	0.162397	0.915349	0.068493	0.396792	-0.402646	0.147286	0.903429
04000		-0.015176	-0.986033	0.165855	0.931782	0.046223	0.360065	-0.362702	0.160006	0.918066
04001		-0.048687	-0.984879	0.166260	0.947050	0.007372	0.321001	-0.317373	0.173085	0.932371
04002		-0.093161	-0.981721	0.165964	0.959154	-0.043773	0.279479	-0.267106	0.185221	0.945700
04003		-0.150230	-0.974394	0.167291	0.963973	-0.106797	0.243618	-0.219514	0.197863	0.955334
04004		-0.216304	-0.961102	0.171744	0.958680	-0.175790	0.223673	-0.184782	0.213029	0.959414
04005		-0.287998	-0.941230	0.176477	0.942263	-0.245639	0.227602	-0.170876	0.231836	0.957629
04006		-0.358013	-0.915970	0.181177	0.917028	-0.308408	0.252873	-0.175748	0.256676	0.950384
04007		-0.422486	-0.886179	0.190242	0.886084	-0.359672	0.292390	-0.190685	0.292101	0.937185
04008		-0.472666	-0.856128	0.208883	0.859078	-0.394821	0.325733	-0.196398	0.333410	0.922099
04009		-0.499964	-0.836274	0.225124	0.842884	-0.410150	0.348314	-0.198951	0.363898	0.909943
04010		-0.501563	-0.832446	0.235514	0.839108	-0.401854	0.366621	-0.210550	0.381506	0.900068
04011		-0.482817	-0.840960	0.244284	0.842844	-0.370527	0.390286	-0.237701	0.394330	0.887695
04012		-0.451005	-0.857836	0.246396	0.851930	-0.331456	0.405404	-0.266101	0.392751	0.880305
04013		-0.414363	-0.877936	0.239857	0.864361	-0.297113	0.405715	-0.284927	0.375436	0.881966
04014		-0.375363	-0.898655	0.226983	0.880780	-0.269564	0.389310	-0.288669	0.346054	0.892702
04015		-0.332690	-0.918816	0.212353	0.900905	-0.243110	0.359539	-0.278725	0.310925	0.908646
04016		-0.287231	-0.937661	0.195682	0.918074	-0.211226	0.335446	-0.273201	0.276001	0.921512
04017		-0.239925	-0.954392	0.177684	0.930319	-0.173741	0.322987	-0.277385	0.242795	0.929574
04018		-0.192403	-0.968518	0.157968	0.938745	-0.134756	0.317173	-0.285901	0.209316	0.935119
04019		-0.145678	-0.979632	0.138202	0.944159	-0.095933	0.315216	-0.295538	0.176405	0.938903
04020		-0.103332	-0.987506	0.118974	0.946915	-0.061058	0.315632	-0.304424	0.145273	0.941393
04021		-0.065066	-0.992816	0.100408	0.947965	-0.030072	0.316952	-0.311655	0.115806	0.943112
04022		-0.031293	-0.996077	0.082778	0.948150	-0.003377	0.317804	-0.316278	0.088431	0.944536
04023		-0.000407	-0.997737	0.067234	0.947795	0.021055	0.318183	-0.318879	0.063854	0.945642
04024		0.027028	-0.998124	0.054936	0.946297	0.043258	0.320391	-0.322166	0.043326	0.945691
04025		0.051491	-0.997582	0.046671	0.943481	0.063913	0.325205	-0.327402	0.027289	0.944491
04026		0.072278	-0.996505	0.041870	0.939876	0.082099	0.331502	-0.333781	0.015392	0.942525
04027		0.089843	-0.995161	0.039779	0.936844	0.097998	0.335737	-0.338011	0.007103	0.941115
04028		0.103380	-0.993837	0.040002	0.934376	0.110824	0.338614	-0.340960	0.002371	0.940075
04029		0.111901	-0.992815	0.042387	0.932157	0.119653	0.341711	-0.344327	0.001274	0.938849
04030		0.115601	-0.992276	0.044989	0.931933	0.124021	0.340765	-0.343712	0.002534	0.939072
04031		0.113351	-0.992496	0.045853	0.935790	0.122154	0.330720	-0.333840	0.005422	0.942614
04032		0.104133	-0.993590	0.044002	0.945002	0.112639	0.307057	-0.310045	0.009607	0.950673
04033		0.084246	-0.995653	0.039733	0.959438	0.091818	0.266548	-0.269037	0.015666	0.963002
04034		0.053128	-0.997994	0.034425	0.976097	0.059176	0.209125	-0.210742	0.022492	0.977283
04035		0.008440	-0.999503	0.030382	0.989432	0.012746	0.144436	-0.144752	0.028841	0.989048
04036		-0.047800	-0.998387	0.030648	0.995261	-0.045004	0.086201	-0.084683	0.034623	0.995806
04037		-0.115702	-0.992690	0.034347	0.992302	-0.113981	0.048422	-0.044154	0.039685	0.998236
04038		-0.193841	-0.980007	0.044856	0.980626	-0.192240	0.037650	-0.028274	0.051285	0.998284
04039		-0.282134	-0.957510	0.059794	0.958938	-0.279577	0.047689	-0.028946	0.070794	0.997071
04040		-0.373319	-0.924359	0.078703	0.926917	-0.368164	0.072668	-0.038196	0.100079	0.994246
04041		-0.455410	-0.885016	0.096684	0.887546	-0.442820	0.127171	-0.069734	0.143727	0.987157
04042		-0.510360	-0.854060	0.100567	0.854174	-0.489902	0.174309	-0.099602	0.174862	0.979542
04043		-0.544234	-0.825991	0.146791	0.829719	-0.504090	0.239709	-0.124001	0.252253	0.959683
04044		-0.539772	-0.824854	0.168114	0.823773	-0.476445	0.307243	-0.173334	0.304329	0.936664
04045		-0.511036	-0.841527	0.175139	0.828547	-0.428027	0.360975	-0.228806	0.329582	0.915982
04046		-0.471058	-0.864341	0.176123	0.838453	-0.376703	0.393815	-0.274044	0.333181	0.902159
04047		-0.423809	-0.889319	0.171751	0.856161	-0.331453	0.396393	-0.295592	0.315041	0.901873
04048		-0.378102	-0.911007	0.164635	0.872539	-0.291253	0.392233	-0.309376	0.291955	0.905013
04049		-0.334565	-0.929168	0.157203	0.888401	-0.255340	0.381504	-0.314341	0.267298	0.910901
04050		-0.294463	-0.943637	0.151133	0.900510	-0.221030	0.374470	-0.319958	0.246364	0.914839
04051		-0.257490	-0.954844	0.148227	0.903952	-0.183828	0.386107	-0.341423	0.233409	0.910467
04052		-0.226926	-0.962467	0.148870	0.896741	-0.146856	0.417479	-0.379947	0.228235	0.896409
04053		-0.203387	-0.966940	0.153823	0.880697	-0.112031	0.460241	-0.427792	0.229078	0.874367
04054		-0.189919	-0.968417	0.161551	0.859607	-0.084517	0.503918	-0.474349	0.234574	0.848509
04055		-0.185296	-0.967778	0.170501	0.836449	-0.064264	0.544264	-0.515769	0.243465	0.821405
04056		-0.190919	-0.965221	0.178600	0.811244	-0.052711	0.582327	-0.552660	0.256065	0.793093
04057		-0.204124	-0.961002	0.186573	0.784540	-0.046598	0.618325	-0.585518	0.272589	0.763456
04058		-0.226466	-0.954240	0.195292	0.756164	-0.045862	0.652773	-0.613946	0.295504	0.731948
04059		-0.256921	-0.944056	0.206759	0.726048	-0.047346	0.686012	-0.637845	0.326368	0.697594
04060		-0.296881	-0.929373	0.219380	0.693604	-0.051968	0.718480	-0.656335	0.365466	0.660045
04061		-0.343089	-0.910121	0.232314	0.658868	-0.056906	0.750103	-0.669465	0.410416	0.619174
04062		-0.394500	-0.886143	0.243149	0.620956	-0.062037	0.781386	-0.677335	0.459241	0.574730
04063		-0.445389	-0.859515	0.250726	0.578762	-0.062726	0.813080	-0.683127	0.507247	0.525392
04064		-0.493186	-0.832400	0.252739	0.530978	-0.057910	0.845405	-0.689079	0.551141	0.470546
04065		-0.534939	-0.806807	0.250803	0.478468	-0.044625	0.876970	-0.696354	0.589127	0.409903
04066		-0.572237	-0.782345	0.245928	0.423583	-0.025182	0.905507	-0.702226	0.622336	0.345798
04067		-0.604283	-0.759888	0.239608	0.372487	-0.003585	0.928030	-0.704340	0.650044	0.285215
04068		-0.632623	-0.738942	0.231845	0.328509	0.015059	0.944381	-0.701334	0.673600	0.233222
04069		-0.658745	-0.718618	0.222810	0.295214	0.025512	0.955090	-0.692029	0.694937	0.195341
04070		-0.684709	-0.697419	0.211614	0.271109	0.025788	0.962203	-0.676516	0.716200	0.171419
04071		-0.709288	-0.676663	0.197581	0.252020	0.018347	0.967548	-0.658329	0.736064	0.157520
04072		-0.732489	-0.656480	0.180258	0.232292	0.007875	0.972614	-0.639922	0.754302	0.146726
04073		-0.753322	-0.637753	0.160553	0.209367	-0.001138	0.977837	-0.623435	0.770240	0.134382
04074		-0.772629	-0.619726	0.137786	0.180457	-0.006302	0.983563	-0.608671	0.784793	0.116703
04075		-0.789908	-0.602923	0.111939	0.144507	-0.005614	0.989488	-0.595956	0.797780	0.091561
04076		-0.806064	-0.586066	0.082385	0.100897	0.001084	0.994896	-0.583164	0.810263	0.058259
04077		-0.821145	-0.568575	0.049429	0.050145	0.014396	0.998638	-0.568512	0.822505	0.016690
04078		-0.835730	-0.549002	0.012358	-0.007358	0.033698	0.999405	-0.549091	0.835142	-0.032201
04079		-0.849396	-0.526934	-0.029429	-0.070108	0.057391	0.995887	-0.523078	0.847966	-0.085690
04080		-0.861197	-0.502501	-0.076371	-0.136211	0.083411	0.987162	-0.489679	0.860544	-0.140279
04081		-0.869483	-0.477454	-0.126636	-0.204222	0.114032	0.972260	-0.449768	0.871226	-0.196656
04082		-0.873818	-0.452313	-0.178480	-0.270758	0.147718	0.951246	-0.403897	0.879541	-0.251546
04083		-0.873491	-0.428889	-0.230363	-0.333123	0.181481	0.925253	-0.355025	0.884940	-0.301395
04084		-0.868890	-0.406532	-0.282423	-0.391293	0.214628	0.894888	-0.303185	0.888069	-0.345562
04085		-0.860264	-0.385933	-0.333169	-0.443755	0.244993	0.862009	-0.251054	0.889401	-0.382018
04086		-0.848582	-0.367048	-0.381032	-0.490093	0.274058	0.827467	-0.199295	0.888914	-0.412448
04087		-0.834430	-0.349850	-0.425831	-0.530320	0.299467	0.793146	-0.149960	0.887651	-0.435416
04088		-0.818142	-0.333532	-0.468401	-0.565268	0.317158	0.761500	-0.105428	0.887788	-0.448015
04089		-0.799890	-0.319366	-0.508116	-0.596352	0.327899	0.732698	-0.067388	0.889093	-0.452738
04090		-0.780511	-0.308504	-0.543716	-0.624197	0.336794	0.704945	-0.034358	0.889604	-0.455439
04091		-0.760628	-0.302495	-0.574406	-0.649165	0.346874	0.676952	-0.005528	0.887792	-0.460211
04092		-0.741508	-0.301412	-0.599430	-0.670621	0.360670	0.648216	0.020816	0.882648	-0.469573
04093		-0.723797	-0.305853	-0.618524	-0.688425	0.380872	0.617258	0.046789	0.872577	-0.486231
04094		-0.707551	-0.314839	-0.632652	-0.703023	0.404362	0.585022	0.071632	0.858701	-0.507446
04095		-0.693476	-0.327138	-0.641928	-0.714328	0.428368	0.553386	0.093948	0.842307	-0.530747
04096		-0.681754	-0.341750	-0.646852	-0.723302	0.447517	0.525893	0.109753	0.826399	-0.552285
04097		-0.671293	-0.356820	-0.649650	-0.732090	0.456139	0.505946	0.115799	0.815240	-0.567428
04098		-0.661464	-0.372330	-0.651027	-0.741649	0.453743	0.494038	0.111454	0.809622	-0.576273
04099		-0.652063	-0.388729	-0.650925	-0.751355	0.446138	0.486237	0.101388	0.806133	-0.582983
04100		-0.643619	-0.407336	-0.647944	-0.760073	0.439394	0.478771	0.089682	0.800631	-0.592407
04101		-0.636879	-0.427945	-0.641286	-0.766865	0.437296	0.469777	0.079393	0.790971	-0.606681
04102		-0.631681	-0.451288	-0.630331	-0.772110	0.439094	0.459393	0.069456	0.776875	-0.625812
04103		-0.627410	-0.476015	-0.616252	-0.776519	0.441512	0.449540	0.058094	0.760577	-0.646643
04104		-0.622857	-0.502433	-0.599676	-0.781257	0.439704	0.443055	0.041074	0.744461	-0.666402
04105		-0.617866	-0.530027	-0.580786	-0.786068	0.433671	0.440485	0.018401	0.728698	-0.684588
04106		-0.612020	-0.559253	-0.559166	-0.790753	0.422156	0.443276	-0.011848	0.713456	-0.700600
04107		-0.605868	-0.589587	-0.534146	-0.794097	0.407394	0.451044	-0.048323	0.697436	-0.715016
04108		-0.599488	-0.621643	-0.504156	-0.795304	0.391807	0.462578	-0.090027	0.678268	-0.729279
04109		-0.593892	-0.654267	-0.468217	-0.793207	0.378799	0.476795	-0.134591	0.654558	-0.743935
04110		-0.588958	-0.687872	-0.424216	-0.787510	0.370571	0.492449	-0.181540	0.624106	-0.759957
04111		-0.585765	-0.719637	-0.372829	-0.777704	0.369577	0.508517	-0.228159	0.587822	-0.776150
04112		-0.584217	-0.749084	-0.312353	-0.763122	0.375994	0.525617	-0.276289	0.545438	-0.791304
04113		-0.585153	-0.773662	-0.242988	-0.742145	0.390151	0.544980	-0.326828	0.499229	-0.802467
04114		-0.585804	-0.793855	-0.163181	-0.711969	0.407883	0.571604	-0.387213	0.451028	-0.804140
04115		-0.585792	-0.807285	-0.071684	-0.668982	0.431708	0.605054	-0.457505	0.402391	-0.792951
04116		-0.581386	-0.812946	0.033318	-0.611357	0.463505	0.641409	-0.536874	0.352537	-0.766475
04117		-0.571245	-0.806780	0.150949	-0.541142	0.508476	0.669789	-0.617126	0.300929	-0.727047
04118		-0.550282	-0.786667	0.279901	-0.466290	0.567600	0.678530	-0.692649	0.242868	-0.679156
04119		-0.517634	-0.749411	0.412842	-0.392112	0.636645	0.664026	-0.760463	0.181842	-0.623402
04120		-0.470708	-0.694932	0.543602	-0.321354	0.708843	0.627912	-0.821684	0.120875	-0.556978
04121		-0.411507	-0.624194	0.664111	-0.252766	0.778244	0.574844	-0.875655	0.068688	-0.478028
04122		-0.341510	-0.540763	0.768731	-0.190627	0.840757	0.506743	-0.920344	0.026518	-0.390211
04123		-0.266322	-0.448820	0.853014	-0.134816	0.893622	0.428094	-0.954409	-0.000989	-0.298499
04124		-0.192463	-0.355504	0.914645	-0.081012	0.934645	0.346231	-0.977955	-0.007461	-0.208685
04125		-0.121353	-0.267115	0.955993	-0.036337	0.963661	0.264645	-0.991944	-0.002622	-0.126650
04126		-0.051685	-0.187139	0.980973	-0.005210	0.982323	0.187122	-0.998650	0.004561	-0.051747
04127		0.016473	-0.118692	0.992794	0.010319	0.992897	0.118533	-0.999811	0.008292	0.017581
04128		0.076417	-0.063062	0.995080	0.016213	0.997945	0.061999	-0.996944	0.011395	0.077283
04129		0.125928	-0.020358	0.991830	0.015083	0.999713	0.018605	-0.991925	0.012617	0.126199
04130		0.164228	0.007537	0.986394	0.003947	0.999958	-0.008298	-0.986414	0.005256	0.164192
04131		0.190779	0.021387	0.981400	-0.012529	0.999734	-0.019351	-0.981553	-0.008604	0.190997
04132		0.206299	0.021353	0.978256	-0.030311	0.999422	-0.015423	-0.978019	-0.026470	0.206827
04133		0.213709	0.008340	0.976862	-0.045405	0.998968	0.001405	-0.975842	-0.044654	0.213867
04134		0.215327	-0.016943	0.976395	-0.053957	0.998116	0.029219	-0.975050	-0.058975	0.214008
04135		0.212032	-0.053311	0.975808	-0.054139	0.996337	0.066196	-0.975762	-0.066865	0.208369
04136		0.203986	-0.099400	0.973914	-0.047726	0.992639	0.111307	-0.977810	-0.069186	0.197741
04137		0.191387	-0.152846	0.969541	-0.038880	0.985845	0.163091	-0.980744	-0.068909	0.182735
04138		0.174867	-0.211634	0.961578	-0.031924	0.974894	0.220370	-0.984074	-0.069233	0.163720
04139		0.155645	-0.273656	0.949151	-0.030636	0.959061	0.281537	-0.987338	-0.072898	0.140889
04140		0.134563	-0.336151	0.932146	-0.038341	0.938230	0.343880	-0.990163	-0.082013	0.113362
04141		0.112593	-0.396446	0.911128	-0.055669	0.913001	0.404141	-0.992081	-0.096225	0.080728
04142		0.089406	-0.453209	0.886909	-0.077048	0.884660	0.459826	-0.993011	-0.109446	0.044175
04143		0.064693	-0.505890	0.860169	-0.095933	0.854829	0.509965	-0.993283	-0.115510	0.006769
04144		0.038005	-0.554065	0.831606	-0.108617	0.824986	0.554618	-0.993357	-0.111405	-0.028827
04145		0.009925	-0.597222	0.802015	-0.115918	0.795960	0.594148	-0.993209	-0.098865	-0.061329
04146		-0.019447	-0.635946	0.771489	-0.120355	0.767512	0.629634	-0.992540	-0.080608	-0.091465
04147		-0.048859	-0.670611	0.740198	-0.126882	0.739246	0.661374	-0.990714	-0.061604	-0.121207
04148		-0.077799	-0.702139	0.707777	-0.138914	0.710638	0.689708	-0.987244	-0.044662	-0.152824
04149		-0.104623	-0.731178	0.674116	-0.156668	0.681490	0.714861	-0.982094	-0.030821	-0.185852
04150		-0.128569	-0.758799	0.638509	-0.176287	0.651085	0.738248	-0.975906	-0.017645	-0.217476
04151		-0.149341	-0.785341	0.600780	-0.194060	0.619056	0.760993	-0.969556	-0.002940	-0.244854
04152		-0.168616	-0.810666	0.560704	-0.207301	0.585292	0.783875	-0.963636	0.015939	-0.266741
04153		-0.185567	-0.833995	0.519632	-0.217607	0.550565	0.805932	-0.958234	0.036479	-0.283650
04154		-0.201344	-0.855267	0.477472	-0.226789	0.514913	0.826699	-0.952905	0.058165	-0.297640
04155		-0.215634	-0.874188	0.435084	-0.238385	0.479212	0.844706	-0.946929	0.078430	-0.311728
04156		-0.228430	-0.890484	0.393519	-0.256884	0.445012	0.857890	-0.939058	0.094879	-0.330405
04157		-0.238800	-0.904339	0.353758	-0.282982	0.413294	0.865511	-0.928922	0.106577	-0.354606
04158		-0.247618	-0.916161	0.315173	-0.311043	0.383256	0.869694	-0.917571	0.117320	-0.379867
04159		-0.255552	-0.926164	0.277334	-0.334599	0.353859	0.873400	-0.907048	0.130403	-0.400323
04160		-0.264175	-0.934122	0.240057	-0.349222	0.324654	0.879002	-0.899030	0.148377	-0.411981
04161		-0.272326	-0.940428	0.203552	-0.353400	0.294519	0.887900	-0.894957	0.169863	-0.412552
04162		-0.279693	-0.945412	0.167237	-0.349682	0.262536	0.899332	-0.894144	0.193057	-0.404023
04163		-0.285474	-0.949245	0.132053	-0.342715	0.229787	0.910903	-0.895014	0.214783	-0.390919
04164		-0.290429	-0.951808	0.098554	-0.336937	0.198118	0.920447	-0.895614	0.234118	-0.378239
04165		-0.294684	-0.953227	0.067226	-0.332925	0.168355	0.927803	-0.895724	0.251028	-0.366965
04166		-0.298455	-0.953652	0.038378	-0.329953	0.140827	0.933434	-0.895576	0.265925	-0.356691
04167		-0.301713	-0.953320	0.012249	-0.327019	0.115548	0.937927	-0.895560	0.278979	-0.346616
04168		-0.305195	-0.952224	-0.011242	-0.323093	0.092434	0.941842	-0.895805	0.291078	-0.335867
04169		-0.309369	-0.950398	-0.032163	-0.317318	0.071290	0.945636	-0.896438	0.302756	-0.323633
04170		-0.315411	-0.947591	-0.050867	-0.310515	0.052408	0.949123	-0.896714	0.315159	-0.310771
04171		-0.324438	-0.943506	-0.067350	-0.302375	0.035983	0.952510	-0.896275	0.329395	-0.296967
04172		-0.338276	-0.937429	-0.082443	-0.291951	0.021259	0.956197	-0.894614	0.347528	-0.280875
04173		-0.357331	-0.928975	-0.096546	-0.278218	0.007195	0.960491	-0.891577	0.370074	-0.261028
04174		-0.381310	-0.917870	-0.110074	-0.262069	-0.006858	0.965025	-0.886523	0.396821	-0.237930
04175		-0.408979	-0.904264	-0.122650	-0.245951	-0.020202	0.969072	-0.878774	0.426496	-0.214142
04176		-0.440142	-0.887777	-0.134637	-0.231328	-0.032772	0.972324	-0.867619	0.459106	-0.190943
04177		-0.473868	-0.868382	-0.146156	-0.220536	-0.043655	0.974401	-0.852533	0.493970	-0.170822
04178		-0.508311	-0.846752	-0.156945	-0.214818	-0.051810	0.975279	-0.833951	0.529459	-0.155561
04179		-0.542183	-0.823479	-0.167093	-0.213639	-0.057225	0.975235	-0.812647	0.564454	-0.144901
04180		-0.575677	-0.798227	-0.177285	-0.215385	-0.061126	0.974614	-0.788800	0.599248	-0.136737
04181		-0.608860	-0.770725	-0.187808	-0.216630	-0.066209	0.974006	-0.763125	0.633719	-0.126651
04182		-0.642176	-0.740096	-0.199668	-0.215139	-0.075996	0.973622	-0.735748	0.668193	-0.110420
04183		-0.675188	-0.706298	-0.212754	-0.211277	-0.091169	0.973165	-0.706741	0.702020	-0.087668
04184		-0.707289	-0.669732	-0.226276	-0.207910	-0.108856	0.972072	-0.675660	0.734581	-0.062252
04185		-0.736880	-0.632520	-0.238590	-0.208563	-0.123006	0.970243	-0.643046	0.764714	-0.041280
04186		-0.763381	-0.596043	-0.248964	-0.215194	-0.128739	0.968048	-0.609049	0.792565	-0.029988
04187		-0.786698	-0.561197	-0.257223	-0.227502	-0.123790	0.965877	-0.573889	0.818373	-0.030288
04188		-0.807230	-0.527879	-0.264052	-0.243698	-0.109376	0.963664	-0.537579	0.842247	-0.040352
04189		-0.825139	-0.495855	-0.270692	-0.260565	-0.091101	0.961149	-0.501251	0.863613	-0.054031
04190		-0.840692	-0.464700	-0.278012	-0.276231	-0.073566	0.958272	-0.465761	0.882407	-0.066518
04191		-0.853900	-0.434557	-0.286384	-0.289068	-0.061570	0.955327	-0.432776	0.898537	-0.073042
04192		-0.865082	-0.404987	-0.296004	-0.299052	-0.057390	0.952510	-0.402741	0.912520	-0.071465
04193		-0.874188	-0.376129	-0.307119	-0.307029	-0.061857	0.949688	-0.376202	0.924500	-0.061408
04194		-0.881141	-0.348394	-0.319707	-0.314860	-0.072137	0.946393	-0.352780	0.934568	-0.046132
04195		-0.885884	-0.322850	-0.333133	-0.324332	-0.082410	0.942347	-0.331690	0.942855	-0.031705
04196		-0.888408	-0.300973	-0.346622	-0.336589	-0.086365	0.937683	-0.312153	0.949714	-0.024577
04197		-0.889081	-0.283425	-0.359450	-0.351327	-0.080871	0.932754	-0.293435	0.955578	-0.027674
04198		-0.888282	-0.270493	-0.371199	-0.367961	-0.064584	0.927595	-0.274881	0.960553	-0.042162
04199		-0.886302	-0.262027	-0.381853	-0.385376	-0.039952	0.921894	-0.256817	0.964233	-0.065569
04200		-0.883437	-0.256528	-0.392087	-0.402701	-0.012075	0.915252	-0.239522	0.966461	-0.092636
04201		-0.879730	-0.253708	-0.402127	-0.418798	0.013021	0.907986	-0.225128	0.967193	-0.117707
04202		-0.875401	-0.252470	-0.412227	-0.433121	0.030967	0.900804	-0.214660	0.967109	-0.136458
04203		-0.870528	-0.252424	-0.422450	-0.445244	0.038345	0.894588	-0.209617	0.966857	-0.145771
04204		-0.865106	-0.253375	-0.432890	-0.455519	0.035558	0.889516	-0.209988	0.966714	-0.146179
04205		-0.859277	-0.255212	-0.443295	-0.464361	0.025777	0.885271	-0.214505	0.966541	-0.140660
04206		-0.853235	-0.258459	-0.452977	-0.472102	0.013711	0.881437	-0.221605	0.965925	-0.133718
04207		-0.847400	-0.262688	-0.461420	-0.478991	0.003258	0.877814	-0.229088	0.964875	-0.128586
04208		-0.842015	-0.267673	-0.468360	-0.485108	-0.004060	0.874445	-0.235967	0.963501	-0.126432
04209		-0.837153	-0.272912	-0.474019	-0.490763	-0.007874	0.871258	-0.241509	0.962007	-0.127343
04210		-0.832716	-0.278440	-0.478598	-0.495956	-0.009251	0.868298	-0.246196	0.960409	-0.130390
04211		-0.828729	-0.283993	-0.482241	-0.500440	-0.009700	0.865717	-0.250535	0.958777	-0.134083
04212		-0.825165	-0.289232	-0.485230	-0.503968	-0.011108	0.863651	-0.255185	0.957195	-0.136598
04213		-0.821915	-0.293667	-0.488073	-0.506610	-0.014819	0.862048	-0.260388	0.955793	-0.136594
04214		-0.818881	-0.297180	-0.491037	-0.508221	-0.022147	0.860942	-0.266730	0.954564	-0.132897
04215		-0.816162	-0.299863	-0.493925	-0.508737	-0.032406	0.860312	-0.273982	0.953432	-0.126102
04216		-0.813922	-0.302114	-0.496244	-0.508222	-0.043615	0.860121	-0.281498	0.952274	-0.118042
04217		-0.812312	-0.304155	-0.497634	-0.506916	-0.053755	0.860318	-0.288420	0.951105	-0.110515
04218		-0.811314	-0.306810	-0.497631	-0.504954	-0.061183	0.860975	-0.294603	0.949802	-0.105286
04219		-0.810765	-0.310526	-0.496219	-0.502719	-0.064918	0.862009	-0.299890	0.948346	-0.103474
04220		-0.810622	-0.315305	-0.493432	-0.500359	-0.064772	0.863392	-0.304192	0.946777	-0.105260
04221		-0.810562	-0.320532	-0.490151	-0.498480	-0.061725	0.864701	-0.307419	0.945224	-0.109747
04222		-0.810122	-0.327339	-0.486366	-0.497341	-0.055530	0.865776	-0.310410	0.943274	-0.117813
04223		-0.809285	-0.335216	-0.482378	-0.496878	-0.047366	0.866527	-0.313322	0.940950	-0.128229
04224		-0.808445	-0.343295	-0.478085	-0.497017	-0.036901	0.866956	-0.315264	0.938503	-0.140790
04225		-0.807751	-0.351361	-0.473374	-0.497686	-0.023967	0.867026	-0.315985	0.935933	-0.155508
04226		-0.807354	-0.358875	-0.468389	-0.498647	-0.009455	0.866754	-0.315485	0.933338	-0.171318
04227		-0.807042	-0.365621	-0.463686	-0.499998	0.005368	0.866010	-0.314142	0.930748	-0.187143
04228		-0.806785	-0.372069	-0.458979	-0.501285	0.019854	0.865054	-0.312747	0.927993	-0.202531
04229		-0.806402	-0.378079	-0.454722	-0.502365	0.032279	0.864053	-0.312002	0.925211	-0.215963
04230		-0.805676	-0.383872	-0.451141	-0.502996	0.041100	0.863311	-0.312859	0.922471	-0.226199
04231		-0.804448	-0.389801	-0.448240	-0.503111	0.045908	0.863002	-0.315821	0.919754	-0.233044
04232		-0.802607	-0.396135	-0.445980	-0.503140	0.047963	0.862873	-0.320424	0.916939	-0.237807
04233		-0.800046	-0.402951	-0.444473	-0.503479	0.048078	0.862669	-0.326244	0.913958	-0.241342
04234		-0.796728	-0.410570	-0.443459	-0.504370	0.047507	0.862180	-0.332918	0.910591	-0.244929
04235		-0.792800	-0.418683	-0.442914	-0.506292	0.047827	0.861035	-0.339317	0.906872	-0.249893
04236		-0.788616	-0.426802	-0.442635	-0.508709	0.048499	0.859572	-0.345400	0.903044	-0.255365
04237		-0.784274	-0.435108	-0.442261	-0.511392	0.049765	0.857905	-0.351272	0.899002	-0.261540
04238		-0.779769	-0.443838	-0.441552	-0.513944	0.051042	0.856304	-0.357523	0.894652	-0.267909
04239		-0.775357	-0.452267	-0.440768	-0.515918	0.051108	0.855112	-0.364212	0.890417	-0.272959
04240		-0.771264	-0.460079	-0.439863	-0.516568	0.048660	0.854863	-0.371900	0.886544	-0.275191
04241		-0.767698	-0.467159	-0.438637	-0.515325	0.043204	0.855905	-0.380893	0.883117	-0.273906
04242		-0.764835	-0.473720	-0.436597	-0.512166	0.036026	0.858130	-0.390785	0.879938	-0.270177
04243		-0.762707	-0.479887	-0.433574	-0.507399	0.028303	0.861246	-0.401030	0.876873	-0.265082
04244		-0.761443	-0.485494	-0.429535	-0.500914	0.020096	0.865264	-0.411448	0.874009	-0.258493
04245		-0.760810	-0.490830	-0.424565	-0.493056	0.011787	0.869918	-0.421977	0.871176	-0.250974
04246		-0.760475	-0.496674	-0.418321	-0.484099	0.004254	0.875003	-0.432812	0.867927	-0.243674
04247		-0.760233	-0.502926	-0.411232	-0.474092	-0.003294	0.880469	-0.444166	0.864323	-0.235929
04248		-0.760023	-0.509662	-0.403248	-0.462443	-0.011852	0.886570	-0.456630	0.860293	-0.226682
04249		-0.759751	-0.516817	-0.394561	-0.449324	-0.021311	0.893115	-0.469985	0.855831	-0.216027
04250		-0.759846	-0.523814	-0.385038	-0.434201	-0.031892	0.900251	-0.483844	0.851236	-0.203208
04251		-0.760393	-0.530644	-0.374459	-0.415283	-0.046034	0.908527	-0.499342	0.846344	-0.185364
04252		-0.761013	-0.538937	-0.361117	-0.391358	-0.062561	0.918110	-0.517395	0.840020	-0.163307
04253		-0.760912	-0.549958	-0.344324	-0.362562	-0.079719	0.928544	-0.538109	0.831379	-0.138735
04254		-0.761073	-0.561324	-0.325089	-0.324970	-0.103793	0.940012	-0.561393	0.821062	-0.103420
04255		-0.761214	-0.573151	-0.303401	-0.280078	-0.131409	0.950941	-0.584902	0.808845	-0.060497
04256		-0.759662	-0.587758	-0.278306	-0.232142	-0.154671	0.960306	-0.607473	0.794114	-0.018945
04257		-0.756553	-0.604262	-0.249990	-0.182832	-0.171584	0.968055	-0.627854	0.778091	0.019333
04258		-0.751544	-0.622641	-0.217945	-0.131499	-0.182349	0.974401	-0.646444	0.760965	0.055167
04259		-0.744007	-0.642625	-0.182994	-0.078341	-0.188086	0.979023	-0.663563	0.742736	0.089593
04260		-0.734204	-0.663173	-0.145418	-0.022426	-0.190382	0.981454	-0.678558	0.723849	0.124907
04261		-0.722784	-0.682956	-0.105616	0.035731	-0.189555	0.981220	-0.690150	0.705436	0.161410
04262		-0.708500	-0.702897	-0.062962	0.096256	-0.184635	0.978082	-0.699116	0.686910	0.198473
04263		-0.690020	-0.723547	-0.018769	0.158854	-0.176690	0.971363	-0.706143	0.667278	0.236858
04264		-0.666467	-0.745055	0.026730	0.224948	-0.166780	0.959991	-0.710788	0.645816	0.278752
04265		-0.637330	-0.767206	0.072147	0.292079	-0.153868	0.943936	-0.713092	0.622671	0.322150
04266		-0.602189	-0.789740	0.116959	0.358000	-0.136177	0.923738	-0.713586	0.598136	0.364731
04267		-0.561549	-0.811801	0.160133	0.419554	-0.112545	0.900726	-0.713188	0.572986	0.403794
04268		-0.515126	-0.833285	0.200703	0.476535	-0.083800	0.875152	-0.712432	0.546456	0.440257
04269		-0.463247	-0.853976	0.236912	0.529776	-0.052541	0.846509	-0.710451	0.517653	0.476755
04270		-0.406347	-0.873320	0.268689	0.580831	-0.019884	0.813781	-0.705349	0.486741	0.515331
04271		-0.345822	-0.890461	0.295780	0.631728	0.012120	0.775095	-0.693777	0.454897	0.558338
04272		-0.283786	-0.904333	0.318823	0.684043	0.042080	0.728227	-0.671976	0.424749	0.606660
04273		-0.222687	-0.914468	0.337874	0.735527	0.069871	0.673883	-0.639852	0.398580	0.657056
04274		-0.163238	-0.921274	0.352998	0.782864	0.096786	0.614619	-0.600398	0.376679	0.705433
04275		-0.107739	-0.925424	0.363294	0.824387	0.121085	0.552924	-0.555678	0.359066	0.749862
04276		-0.058973	-0.928221	0.367326	0.859646	0.139838	0.491380	-0.507475	0.344748	0.789695
04277		-0.021088	-0.930416	0.365899	0.888292	0.150511	0.433918	-0.458796	0.334176	0.823306
04278		0.002578	-0.932018	0.362402	0.912032	0.150818	0.381382	-0.410111	0.329539	0.850419
04279		0.008010	-0.933665	0.358058	0.933385	0.135456	0.332331	-0.358786	0.331544	0.872554
04280		-0.005283	-0.935777	0.352553	0.953447	0.101589	0.283933	-0.301513	0.337641	0.891677
04281		-0.039666	-0.936931	0.347256	0.969387	0.048195	0.240763	-0.242314	0.346175	0.906337
04282		-0.093559	-0.933819	0.345294	0.978221	-0.021676	0.206433	-0.185286	0.357087	0.915510
04283		-0.165447	-0.924361	0.343780	0.976781	-0.105475	0.186480	-0.136115	0.366650	0.920348
04284		-0.251004	-0.906155	0.340411	0.962458	-0.196099	0.187668	-0.103302	0.374737	0.921358
04285		-0.341183	-0.879977	0.330507	0.935923	-0.285313	0.206506	-0.087422	0.379785	0.920935
04286		-0.429144	-0.846746	0.314416	0.898590	-0.364972	0.243581	-0.091498	0.387063	0.917502
04287		-0.493909	-0.812608	0.309391	0.863105	-0.415063	0.287702	-0.105372	0.409135	0.906369
04288		-0.532982	-0.781103	0.325281	0.837670	-0.432889	0.333041	-0.119329	0.449983	0.885029
04289		-0.542978	-0.770203	0.334606	0.826119	-0.418437	0.377409	-0.150670	0.481350	0.863482
04290		-0.531969	-0.773556	0.344411	0.827541	-0.388772	0.405009	-0.179400	0.500467	0.846964
04291		-0.509610	-0.784532	0.353281	0.840283	-0.365522	0.400397	-0.184993	0.500902	0.845503
04292		-0.479222	-0.799713	0.361670	0.862327	-0.352229	0.363768	-0.163519	0.486204	0.858410
04293		-0.447650	-0.814049	0.370045	0.884610	-0.342674	0.316290	-0.130671	0.468933	0.873514
04294		-0.417771	-0.826334	0.377677	0.902758	-0.330668	0.275113	-0.102449	0.455885	0.884123
04295		-0.388252	-0.837465	0.384595	0.917832	-0.313934	0.242960	-0.082733	0.447323	0.890538
04296		-0.359183	-0.848044	0.389627	0.930118	-0.291018	0.224027	-0.076596	0.442866	0.893310
04297		-0.331229	-0.857718	0.393201	0.939760	-0.262574	0.218874	-0.084488	0.442012	0.893021
04298		-0.305379	-0.866056	0.395842	0.946797	-0.231812	0.223247	-0.101584	0.442956	0.890770
04299		-0.281990	-0.872579	0.398859	0.951912	-0.202560	0.229855	-0.119774	0.444495	0.887738
04300		-0.261925	-0.877246	0.402287	0.955488	-0.177066	0.235990	-0.135790	0.446192	0.884575
04301		-0.245191	-0.880405	0.405916	0.957942	-0.155627	0.241095	-0.149090	0.447958	0.881536
04302		-0.231868	-0.882435	0.409323	0.959532	-0.138359	0.245264	-0.159796	0.449628	0.878806
04303		-0.221823	-0.883313	0.412981	0.960254	-0.124294	0.249928	-0.169433	0.452006	0.875776
04304		-0.215989	-0.883203	0.416294	0.959469	-0.112941	0.258194	-0.181021	0.455188	0.871800
04305		-0.214065	-0.882271	0.419253	0.956975	-0.103343	0.271145	-0.195897	0.459258	0.866433
04306		-0.215601	-0.881098	0.420931	0.952310	-0.094407	0.290160	-0.215920	0.463416	0.859433
04307		-0.219860	-0.879646	0.421763	0.945390	-0.085483	0.314533	-0.240624	0.467884	0.850403
04308		-0.226776	-0.878281	0.420946	0.935928	-0.076938	0.343684	-0.269464	0.471915	0.839456
04309		-0.236173	-0.876907	0.418637	0.924224	-0.069682	0.375438	-0.300052	0.475583	0.826915
04310		-0.248650	-0.875576	0.414174	0.910353	-0.065217	0.408662	-0.330804	0.478658	0.813299
04311		-0.263616	-0.874403	0.407340	0.894378	-0.063358	0.442802	-0.361379	0.481046	0.798749
04312		-0.281144	-0.873507	0.397420	0.876088	-0.064587	0.477806	-0.391699	0.482508	0.783427
04313		-0.300009	-0.873302	0.383845	0.854859	-0.067559	0.514443	-0.423332	0.482471	0.766819
04314		-0.319937	-0.873610	0.366670	0.829245	-0.071018	0.554354	-0.458249	0.481418	0.747158
04315		-0.340775	-0.873433	0.347832	0.798558	-0.073659	0.597394	-0.496163	0.481341	0.722588
04316		-0.363059	-0.872192	0.327825	0.763982	-0.077238	0.640598	-0.533404	0.483028	0.694381
04317		-0.386861	-0.869539	0.306985	0.727839	-0.083521	0.680643	-0.566206	0.486750	0.665195
04318		-0.412385	-0.865386	0.284687	0.691926	-0.094252	0.715790	-0.592602	0.492163	0.637651
04319		-0.439140	-0.859690	0.260940	0.657747	-0.109797	0.745194	-0.611985	0.498877	0.613674
04320		-0.466918	-0.852382	0.235442	0.623874	-0.128828	0.770834	-0.626713	0.506802	0.591931
04321		-0.494163	-0.843930	0.208770	0.589216	-0.148547	0.794203	-0.639240	0.515476	0.570663
04322		-0.519918	-0.834773	0.181216	0.552549	-0.166870	0.816605	-0.651440	0.524699	0.548011
04323		-0.543097	-0.825549	0.153345	0.514354	-0.182737	0.837883	-0.663691	0.533925	0.523868
04324		-0.563451	-0.816601	0.125242	0.475756	-0.196788	0.857281	-0.675411	0.542621	0.499383
04325		-0.581106	-0.807893	0.098109	0.439918	-0.210406	0.873041	-0.684681	0.550489	0.477675
04326		-0.596760	-0.799150	0.072358	0.408611	-0.225039	0.884531	-0.690590	0.557419	0.460836
04327		-0.610627	-0.790442	0.048333	0.382959	-0.241316	0.891689	-0.693165	0.562999	0.450061
04328		-0.622774	-0.781964	0.026157	0.362342	-0.258624	0.895445	-0.693441	0.567138	0.444403
04329		-0.632984	-0.774137	0.006536	0.345468	-0.274901	0.897263	-0.692808	0.570211	0.441448
04330		-0.641200	-0.767305	-0.010227	0.331325	-0.288844	0.898217	-0.692160	0.572548	0.439434
04331		-0.647258	-0.761888	-0.024168	0.318562	-0.299165	0.899454	-0.692514	0.574480	0.436346
04332		-0.651397	-0.757897	-0.035700	0.305930	-0.305415	0.901736	-0.694326	0.576467	0.430810
04333		-0.653971	-0.755187	-0.044882	0.292994	-0.307528	0.905307	-0.697479	0.578894	0.422380
04334		-0.655486	-0.753432	-0.051749	0.280528	-0.306534	0.909583	-0.701172	0.581702	0.412288
04335		-0.656207	-0.752466	-0.056452	0.270517	-0.304430	0.913314	-0.704424	0.584052	0.403324
04336		-0.656406	-0.752069	-0.059353	0.264380	-0.303009	0.915581	-0.706565	0.585301	0.397729
04337		-0.656290	-0.752066	-0.060667	0.262994	-0.303381	0.915857	-0.707190	0.585113	0.396895
04338		-0.655880	-0.752426	-0.060632	0.265998	-0.305541	0.914270	-0.706446	0.583524	0.400542
04339		-0.655136	-0.753184	-0.059247	0.272308	-0.308552	0.911397	-0.704730	0.580956	0.407242
04340		-0.653828	-0.754546	-0.056299	0.281031	-0.311254	0.907823	-0.702517	0.577739	0.415557
04341		-0.652192	-0.756270	-0.051983	0.290573	-0.312742	0.904301	-0.700152	0.574672	0.423720
04342		-0.649990	-0.758542	-0.046131	0.300203	-0.312061	0.901386	-0.698134	0.572043	0.430553
04343		-0.647552	-0.761011	-0.039227	0.308873	-0.309185	0.899445	-0.696616	0.570321	0.435269
04344		-0.644734	-0.763770	-0.031201	0.316442	-0.303834	0.898638	-0.695832	0.569509	0.437581
04345		-0.641840	-0.766512	-0.022400	0.323704	-0.297304	0.898235	-0.695167	0.569272	0.438945
04346		-0.638642	-0.769398	-0.012818	0.331989	-0.290520	0.897430	-0.694205	0.568881	0.440970
04347		-0.635408	-0.772170	-0.003226	0.342154	-0.285294	0.895287	-0.692234	0.567769	0.445479
04348		-0.631989	-0.774948	0.006739	0.355015	-0.281773	0.891385	-0.688878	0.565738	0.453196
04349		-0.628848	-0.777340	0.017130	0.369575	-0.279448	0.886185	-0.684080	0.563606	0.463015
04350		-0.625652	-0.779596	0.028092	0.385214	-0.277432	0.880137	-0.678358	0.561482	0.473888
04351		-0.622923	-0.781294	0.039327	0.400597	-0.275407	0.873884	-0.671929	0.560117	0.484541
04352		-0.620012	-0.782924	0.051148	0.416062	-0.272817	0.867446	-0.665190	0.559108	0.494895
04353		-0.617340	-0.784157	0.063163	0.430839	-0.269820	0.861147	-0.658232	0.558834	0.504416
04354		-0.614683	-0.785151	0.075522	0.445070	-0.266197	0.855016	-0.651212	0.559176	0.513074
04355		-0.612486	-0.785568	0.087999	0.458158	-0.262068	0.849359	-0.644168	0.560538	0.520427
04356		-0.609938	-0.786010	0.100821	0.470788	-0.257073	0.843962	-0.637444	0.562230	0.526842
04357		-0.607532	-0.786130	0.113595	0.482671	-0.251806	0.838822	-0.630819	0.564440	0.532423
04358		-0.604947	-0.786166	0.126424	0.494016	-0.246038	0.833915	-0.624490	0.566929	0.537218
04359		-0.602794	-0.785649	0.139265	0.504436	-0.240007	0.829422	-0.618210	0.570221	0.540985
04360		-0.600852	-0.784707	0.152355	0.514590	-0.233859	0.824929	-0.611698	0.574061	0.544316
04361		-0.599191	-0.783357	0.165295	0.524732	-0.228325	0.820076	-0.604671	0.578117	0.547863
04362		-0.597073	-0.782136	0.178232	0.536059	-0.223729	0.813994	-0.596779	0.581557	0.552854
04363		-0.594996	-0.780732	0.190884	0.548694	-0.221031	0.806275	-0.587294	0.584468	0.559896
04364		-0.592306	-0.779560	0.203617	0.562478	-0.219132	0.797245	-0.576881	0.586743	0.568279
04365		-0.589628	-0.778229	0.216098	0.576285	-0.217907	0.787663	-0.565893	0.588962	0.576965
04366		-0.586047	-0.777321	0.228738	0.589919	-0.215794	0.778093	-0.555467	0.590936	0.585022
04367		-0.582098	-0.776377	0.241663	0.602706	-0.212470	0.769157	-0.545809	0.593376	0.591605
04368		-0.577007	-0.775717	0.255589	0.615925	-0.207767	0.759914	-0.536375	0.595899	0.597667
04369		-0.572224	-0.774457	0.269773	0.629385	-0.203819	0.749888	-0.525771	0.598895	0.604061
04370		-0.566418	-0.773523	0.284311	0.645103	-0.201475	0.737055	-0.512848	0.600891	0.613121
04371		-0.560829	-0.772060	0.298988	0.662846	-0.202317	0.720904	-0.496091	0.602487	0.625222
04372		-0.553973	-0.770940	0.314270	0.683662	-0.205836	0.700170	-0.475101	0.602730	0.641090
04373		-0.547974	-0.768702	0.329881	0.705537	-0.212871	0.675946	-0.449379	0.603144	0.658996
04374		-0.540963	-0.766451	0.346284	0.728093	-0.220676	0.648986	-0.421000	0.603204	0.677424
04375		-0.534495	-0.763106	0.363297	0.749654	-0.229550	0.620746	-0.390300	0.604132	0.694759
04376		-0.526669	-0.759884	0.381046	0.771159	-0.238481	0.590289	-0.357679	0.604733	0.711592
04377		-0.518837	-0.756118	0.398867	0.792196	-0.249893	0.556758	-0.321301	0.604847	0.728647
04378		-0.509800	-0.752636	0.416705	0.813390	-0.263937	0.518396	-0.280180	0.603222	0.746741
04379		-0.500865	-0.748505	0.434596	0.833172	-0.280954	0.476330	-0.234434	0.600670	0.764354
04380		-0.491625	-0.744157	0.452256	0.850881	-0.300042	0.431250	-0.185222	0.596829	0.780697
04381		-0.482332	-0.739335	0.469829	0.865708	-0.320385	0.384581	-0.133809	0.592230	0.794581
04382		-0.472760	-0.733883	0.487765	0.877469	-0.341237	0.337055	-0.080915	0.587344	0.805282
04383		-0.462957	-0.727874	0.505836	0.885962	-0.362455	0.289305	-0.027235	0.582088	0.812670
04384		-0.453004	-0.721588	0.523544	0.891114	-0.383970	0.241833	0.026521	0.576088	0.816957
04385		-0.443469	-0.714643	0.540944	0.892782	-0.405555	0.196127	0.079222	0.569921	0.817872
04386		-0.434728	-0.707315	0.557420	0.891121	-0.427251	0.152837	0.130054	0.563171	0.816042
04387		-0.427697	-0.699014	0.573109	0.886288	-0.448917	0.113876	0.177678	0.556644	0.811528
04388		-0.422955	-0.689432	0.588041	0.878785	-0.470360	0.080615	0.221013	0.550858	0.804804
04389		-0.421104	-0.678397	0.602037	0.869409	-0.491045	0.054795	0.258454	0.546491	0.796586
04390		-0.422741	-0.665293	0.615366	0.858431	-0.511623	0.036587	0.290495	0.543716	0.787392
04391		-0.428093	-0.650108	0.627770	0.846138	-0.532343	0.025718	0.317469	0.542190	0.777974
04392		-0.437227	-0.633082	0.638780	0.832426	-0.553739	0.020973	0.340440	0.540907	0.769103
04393		-0.449816	-0.613344	0.649211	0.816761	-0.576588	0.021172	0.361342	0.539774	0.760313
04394		-0.465255	-0.590836	0.659129	0.798791	-0.601088	0.025029	0.381406	0.538151	0.751614
04395		-0.483009	-0.565438	0.668568	0.777767	-0.627790	0.030949	0.402221	0.534939	0.743007
04396		-0.502692	-0.536951	0.677484	0.753680	-0.656068	0.039251	0.423399	0.530338	0.734489
04397		-0.523533	-0.505501	0.685844	0.727603	-0.684085	0.051204	0.443292	0.525829	0.725945
04398		-0.544896	-0.471602	0.693311	0.700140	-0.710882	0.066709	0.461403	0.521764	0.717544
04399		-0.566257	-0.435234	0.699946	0.671625	-0.735913	0.085747	0.477779	0.518656	0.709030
04400		-0.587076	-0.396614	0.705719	0.642316	-0.758809	0.107881	0.492719	0.516629	0.700230
04401		-0.606689	-0.356070	0.710734	0.612419	-0.779384	0.132303	0.506826	0.515533	0.690908
04402		-0.624441	-0.314546	0.714937	0.582863	-0.796973	0.158446	0.519947	0.515650	0.681000
04403		-0.639872	-0.272697	0.718470	0.553306	-0.812295	0.184468	0.533306	0.515570	0.670650
04404		-0.652942	-0.230724	0.721411	0.523739	-0.825592	0.209987	0.547142	0.514941	0.659903
04405		-0.663278	-0.188903	0.724140	0.494609	-0.836814	0.234742	0.561627	0.513865	0.648473
04406		-0.671470	-0.147414	0.726222	0.466032	-0.845955	0.259179	0.576144	0.512474	0.636733
04407		-0.676993	-0.106795	0.728200	0.439276	-0.852491	0.283364	0.590522	0.511716	0.624043
04408		-0.680356	-0.067796	0.729739	0.414802	-0.856500	0.307159	0.604198	0.511675	0.610847
04409		-0.682491	-0.031789	0.730202	0.393610	-0.857793	0.330548	0.615855	0.513011	0.597949
04410		-0.684344	0.001105	0.729159	0.376057	-0.856209	0.354242	0.624704	0.516629	0.585526
04411		-0.685586	0.030664	0.727346	0.362594	-0.851981	0.377695	0.631267	0.522674	0.572988
04412		-0.686192	0.057103	0.725175	0.353380	-0.845204	0.400939	0.635816	0.531384	0.559794
04413		-0.685931	0.080634	0.723185	0.348444	-0.836092	0.423717	0.638816	0.542630	0.545405
04414		-0.685003	0.102027	0.721360	0.346649	-0.825234	0.445897	0.640784	0.555500	0.529920
04415		-0.683409	0.120708	0.719988	0.346772	-0.814195	0.465657	0.642419	0.567905	0.514569
04416		-0.681399	0.136719	0.719029	0.347151	-0.804492	0.481953	0.644345	0.578014	0.500718
04417		-0.678954	0.149488	0.718801	0.347961	-0.796589	0.494337	0.646486	0.585747	0.488831
04418		-0.676267	0.158258	0.719456	0.350702	-0.789707	0.503360	0.647820	0.592721	0.478551
04419		-0.672928	0.162646	0.721606	0.356633	-0.783324	0.509132	0.648060	0.599958	0.469116
04420		-0.668817	0.162007	0.725561	0.366891	-0.776908	0.511669	0.646587	0.608415	0.460170
04421		-0.663941	0.156360	0.731255	0.381316	-0.770410	0.510947	0.643257	0.618078	0.451885
04422		-0.658380	0.145424	0.738504	0.398478	-0.765040	0.505894	0.638554	0.627348	0.445738
04423		-0.652171	0.130672	0.746724	0.415855	-0.761921	0.496529	0.633827	0.634351	0.442563
04424		-0.644988	0.112384	0.755884	0.432117	-0.762176	0.482040	0.630290	0.637540	0.443031
04425		-0.636769	0.092232	0.765518	0.445698	-0.766123	0.463043	0.629188	0.636042	0.446736
04426		-0.627408	0.069218	0.775608	0.458529	-0.772205	0.439830	0.629372	0.631592	0.452749
04427		-0.616943	0.043794	0.785789	0.471988	-0.778378	0.413951	0.629769	0.626267	0.459544
04428		-0.605269	0.015192	0.795876	0.487540	-0.783274	0.385729	0.629249	0.621491	0.466685
04429		-0.593276	-0.014424	0.804870	0.503717	-0.786561	0.357198	0.627927	0.617344	0.473913
04430		-0.581882	-0.045159	0.812018	0.519761	-0.788588	0.328598	0.625509	0.613261	0.482338
04431		-0.572780	-0.073376	0.816419	0.532536	-0.790479	0.302570	0.623161	0.608078	0.491845
04432		-0.566105	-0.099512	0.818304	0.541933	-0.792941	0.278483	0.621155	0.601117	0.502817
04433		-0.561550	-0.121316	0.818501	0.547660	-0.796010	0.257751	0.620266	0.593001	0.513440
04434		-0.557674	-0.139723	0.818216	0.550929	-0.799611	0.238953	0.620867	0.584037	0.522901
04435		-0.555518	-0.152997	0.817308	0.551289	-0.803605	0.224275	0.622479	0.575162	0.530763
04436		-0.555844	-0.162273	0.815295	0.549483	-0.807669	0.213866	0.623783	0.566867	0.538104
04437		-0.558740	-0.166762	0.812404	0.545699	-0.811572	0.208719	0.624518	0.559947	0.544460
04438		-0.563716	-0.167229	0.808863	0.540655	-0.815051	0.208288	0.624432	0.554731	0.549870
04439		-0.571043	-0.164341	0.804302	0.533733	-0.818738	0.211652	0.623730	0.550145	0.555249
04440		-0.579734	-0.157619	0.799416	0.524564	-0.822947	0.218154	0.623492	0.545815	0.559771
04441		-0.588887	-0.146533	0.794821	0.514402	-0.826475	0.228755	0.623380	0.543569	0.562077
04442		-0.598284	-0.131535	0.790415	0.504552	-0.828159	0.244092	0.622482	0.544841	0.561840
04443		-0.607784	-0.113046	0.786014	0.494926	-0.827982	0.263619	0.621004	0.549242	0.559184
04444		-0.617605	-0.090740	0.781237	0.483308	-0.827426	0.285973	0.620466	0.554196	0.554877
04445		-0.627543	-0.064814	0.775880	0.468442	-0.827411	0.309764	0.621894	0.557845	0.549597
04446		-0.637754	-0.034817	0.769452	0.449378	-0.828155	0.334990	0.625563	0.559416	0.543806
04447		-0.647740	-0.001130	0.761860	0.426041	-0.829562	0.360993	0.631602	0.558413	0.537822
04448		-0.657506	0.035995	0.752589	0.398903	-0.830751	0.388239	0.639189	0.555479	0.531865
04449		-0.666208	0.075673	0.741917	0.368644	-0.831380	0.415824	0.648282	0.550528	0.525975
04450		-0.673525	0.117831	0.729712	0.335477	-0.830949	0.443824	0.658650	0.543728	0.520135
04451		-0.679466	0.159756	0.716103	0.301834	-0.828732	0.471274	0.668746	0.536359	0.514876
04452		-0.684301	0.201888	0.700694	0.268039	-0.823997	0.499183	0.678149	0.529405	0.509749
04453		-0.687074	0.242395	0.684963	0.237053	-0.816346	0.526673	0.686830	0.524236	0.503429
04454		-0.688218	0.281390	0.668712	0.211057	-0.804204	0.555617	0.694126	0.523522	0.494079
04455		-0.687633	0.316526	0.653431	0.192689	-0.788141	0.584555	0.700023	0.527869	0.480960
04456		-0.685532	0.348481	0.639224	0.180932	-0.768910	0.613221	0.705202	0.536039	0.464061
04457		-0.682612	0.373985	0.627835	0.176735	-0.749140	0.638399	0.709088	0.546739	0.445276
04458		-0.679946	0.393733	0.618586	0.176626	-0.730823	0.659319	0.711672	0.557559	0.427376
04459		-0.678105	0.406499	0.612317	0.178672	-0.716954	0.673834	0.712916	0.566335	0.413540
04460		-0.676661	0.414026	0.608861	0.179544	-0.709182	0.681781	0.714069	0.570652	0.405540
04461		-0.675779	0.416182	0.608371	0.180315	-0.706938	0.683905	0.714709	0.571867	0.402690
04462		-0.675677	0.413169	0.610534	0.183737	-0.707663	0.682242	0.713933	0.573153	0.402237
04463		-0.675688	0.406199	0.615181	0.190687	-0.709791	0.678111	0.712099	0.575498	0.402141
04464		-0.676100	0.395538	0.621643	0.200610	-0.713002	0.671851	0.708975	0.578946	0.402711
04465		-0.676793	0.382758	0.628847	0.210927	-0.717575	0.663773	0.705309	0.581878	0.404916
04466		-0.677949	0.367798	0.636483	0.221050	-0.723763	0.653685	0.701086	0.583860	0.409372
04467		-0.679602	0.352141	0.643535	0.229557	-0.731107	0.642484	0.696739	0.584361	0.416025
04468		-0.681593	0.335471	0.650300	0.237405	-0.739256	0.630190	0.692149	0.583917	0.424229
04469		-0.683734	0.319176	0.656227	0.244147	-0.747392	0.617897	0.687677	0.582694	0.433092
04470		-0.686183	0.302335	0.661624	0.250530	-0.755671	0.605141	0.682926	0.580994	0.442785
04471		-0.688345	0.286249	0.666515	0.255935	-0.763913	0.592397	0.678732	0.578358	0.452575
04472		-0.690632	0.269501	0.671116	0.262064	-0.771645	0.579557	0.674054	0.576136	0.462297
04473		-0.692362	0.253022	0.675732	0.269047	-0.778434	0.567146	0.669513	0.574474	0.470883
04474		-0.693764	0.235434	0.680633	0.278563	-0.783786	0.555052	0.664149	0.574675	0.478179
04475		-0.694872	0.217245	0.685535	0.289932	-0.787739	0.543513	0.658098	0.576431	0.484391
04476		-0.695688	0.197240	0.690735	0.303832	-0.790526	0.531746	0.650926	0.579797	0.490032
04477		-0.696153	0.176570	0.695840	0.318612	-0.792599	0.519878	0.643317	0.583618	0.495513
04478		-0.696557	0.154367	0.700699	0.334174	-0.794397	0.507209	0.634930	0.587455	0.501757
04479		-0.696907	0.131624	0.704979	0.349465	-0.796080	0.494096	0.626255	0.590705	0.508796
04480		-0.697149	0.107929	0.708755	0.364105	-0.798314	0.479711	0.617584	0.592492	0.517246
04481		-0.697554	0.084447	0.711538	0.377293	-0.800928	0.464934	0.609153	0.592776	0.526829
04482		-0.697960	0.060338	0.713590	0.389930	-0.803764	0.449352	0.600671	0.591880	0.537468
04483		-0.698593	0.037024	0.714561	0.401212	-0.806621	0.434040	0.592450	0.589908	0.548645
04484		-0.699560	0.013409	0.714448	0.412255	-0.809081	0.418849	0.583662	0.587545	0.560473
04485		-0.700760	-0.009635	0.713332	0.423016	-0.810770	0.404610	0.574450	0.585285	0.572231
04486		-0.702045	-0.033262	0.711355	0.434707	-0.811222	0.391086	0.564059	0.583791	0.583974
04487		-0.703412	-0.056309	0.708549	0.447234	-0.809852	0.379633	0.552443	0.583925	0.594843
04488		-0.704739	-0.080051	0.704936	0.461835	-0.806026	0.370176	0.538564	0.586441	0.605009
04489		-0.706318	-0.103233	0.700327	0.477266	-0.800094	0.363409	0.522812	0.590925	0.614390
04490		-0.708403	-0.126675	0.694347	0.493494	-0.792223	0.358952	0.504608	0.596939	0.623727
04491		-0.712113	-0.149737	0.685912	0.508091	-0.784143	0.356319	0.484499	0.602245	0.634478
04492		-0.718001	-0.173830	0.673986	0.521055	-0.776250	0.354877	0.461493	0.605986	0.647923
04493		-0.725701	-0.197760	0.658976	0.531316	-0.769594	0.354158	0.437106	0.607137	0.663568
04494		-0.734143	-0.221448	0.641868	0.539704	-0.763934	0.353730	0.412012	0.606107	0.680353
04495		-0.742855	-0.243637	0.623545	0.546451	-0.758740	0.354548	0.386727	0.604114	0.696770
04496		-0.751871	-0.264056	0.604122	0.551681	-0.753712	0.357164	0.361023	0.601825	0.712369
04497		-0.760873	-0.282325	0.584265	0.555695	-0.748430	0.362015	0.335076	0.600121	0.726347
04498		-0.769855	-0.298925	0.563885	0.558746	-0.742653	0.369147	0.308424	0.599258	0.738758
04499		-0.779856	-0.313801	0.541622	0.559596	-0.737232	0.378605	0.280494	0.598347	0.750536
04500		-0.791315	-0.328146	0.515889	0.558187	-0.732047	0.390556	0.249496	0.597015	0.762446
04501		-0.804047	-0.341605	0.486636	0.554358	-0.726593	0.405893	0.214931	0.596128	0.773587
04502		-0.817626	-0.354658	0.453548	0.548118	-0.720591	0.424636	0.176223	0.595791	0.783568
04503		-0.831556	-0.367408	0.416563	0.539256	-0.713744	0.446959	0.133103	0.596306	0.791646
04504		-0.845274	-0.378711	0.376947	0.527146	-0.706350	0.472427	0.087343	0.598037	0.796695
04505		-0.858220	-0.386748	0.337469	0.511553	-0.698399	0.500552	0.042100	0.602217	0.797221
04506		-0.870907	-0.390438	0.298462	0.491447	-0.690570	0.530654	-0.001079	0.608828	0.793301
04507		-0.883378	-0.390580	0.259020	0.466761	-0.683495	0.561221	-0.042163	0.616670	0.786091
04508		-0.895547	-0.388284	0.217326	0.437238	-0.677266	0.591720	-0.082567	0.624937	0.776297
04509		-0.906650	-0.384851	0.172845	0.403529	-0.671551	0.621437	-0.123087	0.633174	0.764160
04510		-0.916174	-0.380810	0.124934	0.365354	-0.665433	0.650935	-0.164748	0.642015	0.748783
04511		-0.923080	-0.377590	0.073140	0.323584	-0.659655	0.678342	-0.207888	0.649831	0.731097
04512		-0.926990	-0.374605	0.019005	0.278025	-0.652217	0.705206	-0.251778	0.659003	0.708748
04513		-0.927758	-0.371387	-0.036557	0.229417	-0.644866	0.729051	-0.294334	0.667997	0.683482
04514		-0.925676	-0.366742	-0.092865	0.177747	-0.638296	0.748989	-0.333961	0.676814	0.656043
04515		-0.921353	-0.359221	-0.148558	0.123335	-0.632554	0.764633	-0.368643	0.686174	0.627110
04516		-0.914421	-0.349134	-0.204794	0.065702	-0.627277	0.776020	-0.399397	0.696153	0.596534
04517		-0.904644	-0.336721	-0.261224	0.006689	-0.624104	0.781313	-0.426116	0.705063	0.566844
04518		-0.891688	-0.322785	-0.317337	-0.052365	-0.622796	0.780630	-0.449611	0.712696	0.538437
04519		-0.874951	-0.309161	-0.372667	-0.110374	-0.622036	0.775170	-0.471465	0.719369	0.510127
04520		-0.853957	-0.296358	-0.427703	-0.166594	-0.622981	0.764291	-0.492955	0.723925	0.482627
04521		-0.829862	-0.283258	-0.480723	-0.221011	-0.624218	0.749337	-0.512331	0.728091	0.455412
04522		-0.803087	-0.269214	-0.531578	-0.275221	-0.623662	0.731642	-0.528493	0.733873	0.426762
04523		-0.774575	-0.254046	-0.579218	-0.326864	-0.623227	0.710456	-0.541473	0.739627	0.399698
04524		-0.745438	-0.236722	-0.623125	-0.376504	-0.621887	0.686660	-0.550061	0.746471	0.374452
04525		-0.716190	-0.216430	-0.663498	-0.425557	-0.618080	0.660968	-0.553148	0.755735	0.350560
04526		-0.685145	-0.194157	-0.702054	-0.475356	-0.611112	0.632913	-0.551918	0.767363	0.326406
04527		-0.651231	-0.171414	-0.739267	-0.524508	-0.602355	0.601714	-0.548443	0.779606	0.302364
04528		-0.613084	-0.149317	-0.775778	-0.572085	-0.593311	0.566305	-0.544837	0.791004	0.278327
04529		-0.570976	-0.128016	-0.810924	-0.617316	-0.584222	0.526883	-0.541210	0.801434	0.254550
04530		-0.525132	-0.107260	-0.844234	-0.660643	-0.573963	0.483856	-0.536457	0.811826	0.230546
04531		-0.476394	-0.087199	-0.874897	-0.702317	-0.560911	0.438327	-0.528961	0.823271	0.205974
04532		-0.425301	-0.068168	-0.902481	-0.743390	-0.542452	0.391302	-0.516227	0.837316	0.180030
04533		-0.373164	-0.050839	-0.926371	-0.782864	-0.518570	0.343815	-0.497868	0.853522	0.153711
04534		-0.320736	-0.036165	-0.946478	-0.818954	-0.491447	0.296301	-0.475859	0.870156	0.128007
04535		-0.270303	-0.023377	-0.962492	-0.850151	-0.463400	0.250009	-0.451863	0.885841	0.105384
04536		-0.223263	-0.011019	-0.974696	-0.875504	-0.437342	0.205486	-0.428540	0.899228	0.087995
04537		-0.180811	0.001449	-0.983517	-0.894921	-0.415029	0.163912	-0.407951	0.909807	0.076338
04538		-0.143849	0.013898	-0.989502	-0.908998	-0.397119	0.126568	-0.391191	0.917662	0.069758
04539		-0.113902	0.025965	-0.993153	-0.918054	-0.384850	0.095228	-0.379742	0.922614	0.067673
04540		-0.091035	0.036034	-0.995196	-0.923712	-0.376475	0.070864	-0.372113	0.925726	0.067557
04541		-0.074613	0.041872	-0.996333	-0.925693	-0.374461	0.053586	-0.370844	0.926297	0.066701
04542		-0.063427	0.042991	-0.997060	-0.923710	-0.380744	0.042344	-0.377805	0.923680	0.063860
04543		-0.056161	0.040714	-0.997591	-0.918206	-0.394500	0.035591	-0.392101	0.917993	0.059539
04544		-0.052346	0.035964	-0.997981	-0.910620	-0.411931	0.032919	-0.409916	0.910505	0.054313
04545		-0.052195	0.029396	-0.998204	-0.902052	-0.430247	0.034497	-0.428460	0.902232	0.048973
04546		-0.056049	0.020953	-0.998208	-0.894145	-0.445910	0.040846	-0.444255	0.894833	0.043728
04547		-0.063348	0.012059	-0.997919	-0.887791	-0.457431	0.050830	-0.455866	0.889163	0.039683
04548		-0.073050	0.002931	-0.997324	-0.884949	-0.461343	0.063463	-0.459922	0.887217	0.036294
04549		-0.083955	-0.006109	-0.996451	-0.886059	-0.457056	0.077456	-0.455907	0.889417	0.032959
04550		-0.095365	-0.014488	-0.995337	-0.890433	-0.445759	0.091802	-0.445010	0.895036	0.029609
04551		-0.106595	-0.021632	-0.994067	-0.896631	-0.430025	0.105505	-0.429756	0.902558	0.026443
04552		-0.116840	-0.027393	-0.992773	-0.903402	-0.412325	0.117699	-0.412569	0.910625	0.023429
04553		-0.125688	-0.031581	-0.991567	-0.909934	-0.394539	0.127906	-0.395251	0.918337	0.020852
04554		-0.133009	-0.034352	-0.990519	-0.915811	-0.377851	0.136081	-0.378943	0.925229	0.018798
04555		-0.138708	-0.035879	-0.989683	-0.920812	-0.363150	0.142221	-0.364506	0.931040	0.017334
04556		-0.142729	-0.036534	-0.989087	-0.924889	-0.350913	0.146426	-0.352433	0.935695	0.016296
04557		-0.145048	-0.036552	-0.988749	-0.927984	-0.341635	0.148764	-0.343229	0.939122	0.015633
04558		-0.145960	-0.035922	-0.988638	-0.930186	-0.335260	0.149512	-0.336822	0.941440	0.015521
04559		-0.145427	-0.034758	-0.988758	-0.931672	-0.331481	0.148684	-0.332923	0.942821	0.015823
04560		-0.143820	-0.033396	-0.989040	-0.932575	-0.329802	0.146745	-0.331088	0.943459	0.016287
04561		-0.141242	-0.031827	-0.989463	-0.933163	-0.329435	0.143802	-0.330541	0.943642	0.016830
04562		-0.138052	-0.030072	-0.989968	-0.933495	-0.330047	0.140203	-0.330952	0.943486	0.017492
04563		-0.134393	-0.028137	-0.990529	-0.933725	-0.331114	0.136092	-0.331807	0.943171	0.018227
04564		-0.130570	-0.026113	-0.991095	-0.933811	-0.332610	0.131786	-0.333089	0.942703	0.019044
04565		-0.126680	-0.024082	-0.991651	-0.933703	-0.334614	0.127403	-0.334889	0.942047	0.019904
04566		-0.123091	-0.022215	-0.992147	-0.933193	-0.337548	0.123335	-0.337637	0.941046	0.020818
04567		-0.119720	-0.020622	-0.992593	-0.932232	-0.341547	0.119536	-0.341482	0.939639	0.021666
04568		-0.117149	-0.019414	-0.992925	-0.930681	-0.346758	0.116585	-0.346568	0.937754	0.022554
04569		-0.115469	-0.018665	-0.993136	-0.928587	-0.352978	0.114598	-0.352694	0.935445	0.023426
04570		-0.114925	-0.018472	-0.993202	-0.925954	-0.360069	0.113841	-0.359725	0.932743	0.024277
04571		-0.115379	-0.018897	-0.993142	-0.922878	-0.367765	0.114214	-0.367401	0.929727	0.024992
04572		-0.117013	-0.019965	-0.992930	-0.919362	-0.375953	0.115902	-0.375609	0.926424	0.025636
04573		-0.119545	-0.021672	-0.992592	-0.915508	-0.384403	0.118654	-0.384127	0.922911	0.026112
04574		-0.123176	-0.024075	-0.992093	-0.911333	-0.392965	0.122684	-0.392811	0.919238	0.026464
04575		-0.127666	-0.027079	-0.991447	-0.906959	-0.401379	0.127750	-0.401405	0.915512	0.026683
04576		-0.133178	-0.030728	-0.990616	-0.902447	-0.409423	0.134024	-0.409699	0.911827	0.026796
04577		-0.139497	-0.034840	-0.989609	-0.897972	-0.416767	0.141252	-0.417357	0.908346	0.026853
04578		-0.146699	-0.039438	-0.988395	-0.893624	-0.423178	0.149518	-0.424164	0.905188	0.026837
04579		-0.154456	-0.044386	-0.987002	-0.889554	-0.428461	0.158475	-0.429926	0.902470	0.026694
04580		-0.162806	-0.049646	-0.985408	-0.885777	-0.432582	0.168140	-0.434618	0.900227	0.026452
04581		-0.171386	-0.055150	-0.983659	-0.882365	-0.435537	0.178156	-0.438245	0.898480	0.025983
04582		-0.180224	-0.060794	-0.981745	-0.879199	-0.437582	0.188496	-0.441053	0.897121	0.025413
04583		-0.189047	-0.066467	-0.979716	-0.876195	-0.439020	0.198856	-0.443332	0.896016	0.024758
04584		-0.197775	-0.072095	-0.977593	-0.873310	-0.439994	0.209126	-0.445212	0.895102	0.024059
04585		-0.206222	-0.077570	-0.975426	-0.870565	-0.440587	0.219090	-0.446754	0.894352	0.023329
04586		-0.214368	-0.082861	-0.973232	-0.867897	-0.440960	0.228710	-0.448107	0.893694	0.022613
04587		-0.222043	-0.087863	-0.971070	-0.865316	-0.441234	0.237784	-0.449361	0.893081	0.021944
04588		-0.229359	-0.092613	-0.968926	-0.862760	-0.441496	0.246428	-0.450599	0.892471	0.021359
04589		-0.236121	-0.097100	-0.966860	-0.860249	-0.441839	0.254458	-0.451905	0.891824	0.020797
04590		-0.242528	-0.101380	-0.964833	-0.857729	-0.442285	0.262078	-0.453301	0.891126	0.020310
04591		-0.248341	-0.105429	-0.962918	-0.855258	-0.442875	0.269065	-0.454819	0.890363	0.019815
04592		-0.253655	-0.109365	-0.961092	-0.852753	-0.443716	0.275553	-0.456588	0.889469	0.019289
04593		-0.258397	-0.113105	-0.959395	-0.850232	-0.444855	0.281441	-0.458624	0.888432	0.018784
04594		-0.262715	-0.116697	-0.957790	-0.847621	-0.446361	0.286881	-0.460998	0.887211	0.018351
04595		-0.266555	-0.120094	-0.956308	-0.844983	-0.448167	0.291806	-0.463630	0.885846	0.017984
04596		-0.270104	-0.123328	-0.954900	-0.842319	-0.450162	0.296399	-0.466414	0.884389	0.017709
04597		-0.273251	-0.126275	-0.953619	-0.839758	-0.452220	0.300506	-0.469192	0.882922	0.017529
04598		-0.276033	-0.128963	-0.952457	-0.837244	-0.454424	0.304172	-0.472047	0.881401	0.017463
04599		-0.278379	-0.131444	-0.951435	-0.834803	-0.456767	0.307358	-0.474984	0.879822	0.017425
04600		-0.280408	-0.133666	-0.950529	-0.832413	-0.459237	0.310143	-0.477974	0.878200	0.017509
04601		-0.282061	-0.135603	-0.949765	-0.830116	-0.461816	0.312463	-0.480987	0.876549	0.017694
04602		-0.283494	-0.137346	-0.949088	-0.827887	-0.464426	0.314500	-0.483977	0.874897	0.017955
04603		-0.284609	-0.138782	-0.948545	-0.825804	-0.467034	0.316113	-0.486873	0.873281	0.018316
04604		-0.285562	-0.139998	-0.948079	-0.823827	-0.469592	0.317480	-0.489657	0.871713	0.018763
04605		-0.286305	-0.141016	-0.947704	-0.821946	-0.472143	0.318567	-0.492375	0.870170	0.019270
04606		-0.286788	-0.141857	-0.947433	-0.820160	-0.474719	0.319341	-0.495065	0.868630	0.019798
04607		-0.287075	-0.142465	-0.947255	-0.818494	-0.477259	0.319831	-0.497651	0.867138	0.020402
04608		-0.287227	-0.142911	-0.947142	-0.816964	-0.479677	0.320126	-0.500071	0.865729	0.021023
04609		-0.287191	-0.143212	-0.947107	-0.815604	-0.481943	0.320190	-0.502306	0.864420	0.021605
04610		-0.287080	-0.143386	-0.947114	-0.814435	-0.483954	0.320131	-0.504262	0.863266	0.022156
04611		-0.286927	-0.143362	-0.947164	-0.813517	-0.485619	0.319944	-0.505829	0.862335	0.022710
04612		-0.286768	-0.143216	-0.947235	-0.812877	-0.486850	0.319701	-0.506948	0.861665	0.023196
04613		-0.286541	-0.142945	-0.947344	-0.812514	-0.487688	0.319347	-0.507657	0.861236	0.023598
04614		-0.286274	-0.142629	-0.947472	-0.812414	-0.488116	0.318946	-0.507968	0.861046	0.023861
04615		-0.285894	-0.142283	-0.947639	-0.812508	-0.488289	0.318440	-0.508030	0.861005	0.023993
04616		-0.285500	-0.141870	-0.947820	-0.812735	-0.488267	0.317895	-0.507889	0.861086	0.024098
04617		-0.285049	-0.141377	-0.948029	-0.813090	-0.488086	0.317264	-0.507574	0.861269	0.024176
04618		-0.284578	-0.140759	-0.948263	-0.813562	-0.487759	0.316556	-0.507082	0.861555	0.024289
04619		-0.284074	-0.139991	-0.948528	-0.814153	-0.487295	0.315749	-0.506415	0.861943	0.024454
04620		-0.283478	-0.139061	-0.948843	-0.814864	-0.486732	0.314785	-0.505606	0.862412	0.024662
04621		-0.282802	-0.137997	-0.949200	-0.815689	-0.486057	0.313689	-0.504653	0.862963	0.024895
04622		-0.282005	-0.136810	-0.949609	-0.816623	-0.485298	0.312429	-0.503587	0.863579	0.025134
04623		-0.281051	-0.135461	-0.950085	-0.817724	-0.484389	0.310960	-0.502333	0.864302	0.025369
04624		-0.279911	-0.134014	-0.950626	-0.818931	-0.483420	0.309284	-0.501000	0.865070	0.025566
04625		-0.278580	-0.132436	-0.951238	-0.820215	-0.482458	0.307379	-0.499641	0.865849	0.025777
04626		-0.277032	-0.130786	-0.951918	-0.821550	-0.481537	0.305251	-0.498306	0.866612	0.025954
04627		-0.275274	-0.128992	-0.952673	-0.822894	-0.480747	0.302867	-0.497062	0.867320	0.026191
04628		-0.273240	-0.127128	-0.953509	-0.824207	-0.480166	0.300206	-0.496006	0.867917	0.026421
04629		-0.271003	-0.125076	-0.954418	-0.825512	-0.479750	0.297271	-0.495064	0.868445	0.026761
04630		-0.268510	-0.122949	-0.955398	-0.826827	-0.479454	0.294076	-0.494226	0.868912	0.027080
04631		-0.265857	-0.120718	-0.956424	-0.828159	-0.479221	0.290689	-0.493430	0.869353	0.027431
04632		-0.263021	-0.118373	-0.957501	-0.829557	-0.478973	0.287089	-0.492601	0.869812	0.027783
04633		-0.260089	-0.115928	-0.958600	-0.831041	-0.478620	0.283361	-0.491655	0.870335	0.028142
04634		-0.257045	-0.113409	-0.959722	-0.832652	-0.478087	0.279506	-0.490529	0.870960	0.028460
04635		-0.253890	-0.110872	-0.960858	-0.834338	-0.477442	0.275551	-0.489305	0.871640	0.028713
04636		-0.250613	-0.108308	-0.962010	-0.836090	-0.476710	0.271480	-0.488003	0.872363	0.028914
04637		-0.247325	-0.105779	-0.963141	-0.837852	-0.475910	0.267420	-0.486656	0.873110	0.029078
04638		-0.243978	-0.103245	-0.964269	-0.839602	-0.475120	0.263306	-0.485328	0.873843	0.029234
04639		-0.240597	-0.100742	-0.965383	-0.841282	-0.474418	0.259176	-0.484105	0.874516	0.029391
04640		-0.237214	-0.098275	-0.966474	-0.842865	-0.473840	0.255057	-0.483020	0.875110	0.029569
04641		-0.233828	-0.095856	-0.967541	-0.844348	-0.473389	0.250955	-0.482079	0.875622	0.029756
04642		-0.230484	-0.093515	-0.968572	-0.845714	-0.473072	0.246923	-0.481296	0.876046	0.029948
04643		-0.227186	-0.091279	-0.969564	-0.846991	-0.472830	0.242979	-0.480618	0.876413	0.030108
04644		-0.224049	-0.089092	-0.970497	-0.848185	-0.472617	0.239199	-0.479984	0.876753	0.030323
04645		-0.221046	-0.087009	-0.971374	-0.849325	-0.472384	0.235586	-0.479359	0.877088	0.030519
04646		-0.218205	-0.085066	-0.972188	-0.850478	-0.471992	0.232187	-0.478616	0.877489	0.030644
04647		-0.215492	-0.083239	-0.972951	-0.851642	-0.471469	0.228959	-0.477775	0.877946	0.030707
04648		-0.213033	-0.081534	-0.973637	-0.852791	-0.470811	0.226018	-0.476828	0.878458	0.030767
04649		-0.210769	-0.079927	-0.974263	-0.853970	-0.469970	0.223301	-0.475722	0.879056	0.030799
04650		-0.208745	-0.078450	-0.974818	-0.855154	-0.468969	0.220861	-0.474486	0.879724	0.030808
04651		-0.206904	-0.077089	-0.975320	-0.856324	-0.467874	0.218640	-0.473181	0.880427	0.030792
04652		-0.205230	-0.075877	-0.975768	-0.857447	-0.466746	0.216639	-0.471874	0.881131	0.030730
04653		-0.203738	-0.074830	-0.976162	-0.858483	-0.465658	0.214873	-0.470636	0.881795	0.030632
04654		-0.202425	-0.074001	-0.976498	-0.859399	-0.464661	0.213364	-0.469529	0.882391	0.030463
04655		-0.201231	-0.073213	-0.976804	-0.860221	-0.463774	0.211974	-0.468536	0.882923	0.030346
04656		-0.200203	-0.072559	-0.977064	-0.860864	-0.463123	0.210786	-0.467795	0.883319	0.030256
04657		-0.199289	-0.072032	-0.977290	-0.861332	-0.462722	0.209748	-0.467323	0.883572	0.030172
04658		-0.198450	-0.071631	-0.977490	-0.861633	-0.462579	0.208827	-0.467125	0.883680	0.030079
04659		-0.197699	-0.071318	-0.977665	-0.861795	-0.462643	0.208017	-0.467145	0.883671	0.030003
04660		-0.197050	-0.071167	-0.977807	-0.861845	-0.462840	0.207368	-0.467326	0.883580	0.029868
04661		-0.196479	-0.071044	-0.977931	-0.861819	-0.463145	0.206797	-0.467615	0.883431	0.029771
04662		-0.196009	-0.070949	-0.978032	-0.861755	-0.463473	0.206327	-0.467930	0.883266	0.029704
04663		-0.195568	-0.070931	-0.978122	-0.861684	-0.463786	0.205920	-0.468245	0.883103	0.029581
04664		-0.195230	-0.070968	-0.978186	-0.861590	-0.464091	0.205629	-0.468560	0.882940	0.029459
04665		-0.194946	-0.071022	-0.978239	-0.861491	-0.464378	0.205395	-0.468860	0.882785	0.029344
04666		-0.194768	-0.071183	-0.978263	-0.861354	-0.464671	0.205304	-0.469184	0.882618	0.029189
04667		-0.194659	-0.071386	-0.978270	-0.861198	-0.464966	0.205293	-0.469518	0.882446	0.029032
04668		-0.194712	-0.071728	-0.978234	-0.860993	-0.465257	0.205490	-0.469870	0.882264	0.028833
04669		-0.194900	-0.072095	-0.978170	-0.860812	-0.465445	0.205822	-0.470123	0.882135	0.028655
04670		-0.195198	-0.072551	-0.978077	-0.860621	-0.465589	0.206294	-0.470349	0.882022	0.028443
04671		-0.195674	-0.073072	-0.977943	-0.860422	-0.465666	0.206954	-0.470517	0.881939	0.028246
04672		-0.196318	-0.073712	-0.977766	-0.860189	-0.465710	0.207819	-0.470674	0.881862	0.028021
04673		-0.197068	-0.074421	-0.977561	-0.859917	-0.465769	0.208811	-0.470857	0.881771	0.027793
04674		-0.197982	-0.075290	-0.977310	-0.859610	-0.465791	0.210022	-0.471035	0.881686	0.027498
04675		-0.199024	-0.076309	-0.977019	-0.859280	-0.465769	0.211418	-0.471198	0.881610	0.027129
04676		-0.200251	-0.077429	-0.976680	-0.858908	-0.465722	0.213025	-0.471356	0.881537	0.026757
04677		-0.201621	-0.078648	-0.976301	-0.858492	-0.465673	0.214805	-0.471531	0.881455	0.026371
04678		-0.203209	-0.079992	-0.975862	-0.858028	-0.465586	0.216836	-0.471693	0.881380	0.025975
04679		-0.204859	-0.081473	-0.975395	-0.857514	-0.465527	0.218985	-0.471914	0.881276	0.025503
04680		-0.206627	-0.083043	-0.974889	-0.856892	-0.465588	0.221277	-0.472272	0.881097	0.025044
04681		-0.208449	-0.084670	-0.974361	-0.856184	-0.465762	0.223641	-0.472756	0.880850	0.024594
04682		-0.210356	-0.086340	-0.973805	-0.855367	-0.466077	0.226096	-0.473389	0.880521	0.024190
04683		-0.212264	-0.088042	-0.973238	-0.854455	-0.466546	0.228563	-0.474183	0.880104	0.023803
04684		-0.214148	-0.089802	-0.972664	-0.853478	-0.467116	0.231034	-0.475095	0.879624	0.023388
04685		-0.216049	-0.091522	-0.972084	-0.852418	-0.467827	0.233499	-0.476137	0.879069	0.023059
04686		-0.217948	-0.093252	-0.971495	-0.851354	-0.468526	0.235968	-0.477175	0.878515	0.022724
04687		-0.219826	-0.094928	-0.970909	-0.850322	-0.469170	0.238395	-0.478152	0.877991	0.022416
04688		-0.221722	-0.096530	-0.970320	-0.849360	-0.469681	0.240807	-0.478986	0.877543	0.022150
04689		-0.223560	-0.098160	-0.969735	-0.848468	-0.470066	0.243186	-0.479711	0.877156	0.021802
04690		-0.225405	-0.099801	-0.969140	-0.847630	-0.470335	0.245578	-0.480330	0.876826	0.021421
04691		-0.227183	-0.101364	-0.968563	-0.846836	-0.470560	0.247877	-0.480892	0.876527	0.021065
04692		-0.228944	-0.102875	-0.967988	-0.846051	-0.470774	0.250137	-0.481437	0.876235	0.020744
04693		-0.230662	-0.104335	-0.967424	-0.845267	-0.471010	0.252334	-0.481994	0.875936	0.020454
04694		-0.232308	-0.105767	-0.966875	-0.844490	-0.471264	0.254455	-0.482566	0.875628	0.020159
04695		-0.233833	-0.107092	-0.966361	-0.843735	-0.471552	0.256418	-0.483150	0.875311	0.019907
04696		-0.235274	-0.108407	-0.965864	-0.842970	-0.471891	0.258303	-0.483784	0.874967	0.019640
04697		-0.236664	-0.109569	-0.965394	-0.842243	-0.472219	0.260069	-0.484373	0.874645	0.019474
04698		-0.238016	-0.110628	-0.964940	-0.841584	-0.472463	0.261755	-0.484856	0.874380	0.019351
04699		-0.239238	-0.111630	-0.964523	-0.841017	-0.472612	0.263302	-0.485237	0.874172	0.019184
04700		-0.240424	-0.112480	-0.964129	-0.840530	-0.472671	0.264747	-0.485494	0.874031	0.019099
04701		-0.241488	-0.113354	-0.963761	-0.840116	-0.472649	0.266098	-0.485684	0.873930	0.018909
04702		-0.242510	-0.114159	-0.963409	-0.839737	-0.472599	0.267379	-0.485830	0.873852	0.018746
04703		-0.243420	-0.114905	-0.963091	-0.839401	-0.472540	0.268536	-0.485955	0.873787	0.018574
04704		-0.244230	-0.115584	-0.962804	-0.839098	-0.472489	0.269572	-0.486073	0.873724	0.018410
04705		-0.244939	-0.116166	-0.962554	-0.838834	-0.472441	0.270473	-0.486170	0.873673	0.018275
04706		-0.245551	-0.116761	-0.962326	-0.838591	-0.472403	0.271296	-0.486282	0.873615	0.018084
04707		-0.246046	-0.117221	-0.962144	-0.838354	-0.472446	0.271949	-0.486439	0.873529	0.017971
04708		-0.246414	-0.117618	-0.962001	-0.838150	-0.472513	0.272462	-0.486605	0.873440	0.017853
04709		-0.246685	-0.117931	-0.961893	-0.837984	-0.472586	0.272848	-0.486754	0.873358	0.017756
04710		-0.246920	-0.118172	-0.961803	-0.837907	-0.472536	0.273171	-0.486768	0.873353	0.017661
04711		-0.247056	-0.118331	-0.961749	-0.837970	-0.472309	0.273371	-0.486591	0.873454	0.017529
04712		-0.247127	-0.118474	-0.961713	-0.838077	-0.472039	0.273507	-0.486370	0.873580	0.017363
04713		-0.247122	-0.118515	-0.961709	-0.838216	-0.471781	0.273528	-0.486133	0.873714	0.017246
04714		-0.247059	-0.118514	-0.961726	-0.838382	-0.471514	0.273478	-0.485878	0.873859	0.017132
04715		-0.246896	-0.118435	-0.961777	-0.838579	-0.471266	0.273302	-0.485621	0.874003	0.017037
04716		-0.246685	-0.118289	-0.961849	-0.838769	-0.471074	0.273051	-0.485401	0.874127	0.016990
04717		-0.246370	-0.118065	-0.961958	-0.839003	-0.470876	0.272672	-0.485156	0.874263	0.016953
04718		-0.246014	-0.117760	-0.962086	-0.839228	-0.470738	0.272217	-0.484947	0.874379	0.016981
04719		-0.245550	-0.117436	-0.962244	-0.839471	-0.470628	0.271658	-0.484762	0.874481	0.016979
04720		-0.245029	-0.117031	-0.962426	-0.839770	-0.470468	0.271010	-0.484507	0.874622	0.016999
04721		-0.244431	-0.116611	-0.962629	-0.840120	-0.470256	0.270290	-0.484201	0.874792	0.016978
04722		-0.243751	-0.116154	-0.962857	-0.840539	-0.469972	0.269481	-0.483818	0.875005	0.016924
04723		-0.243007	-0.115600	-0.963112	-0.840994	-0.469681	0.268569	-0.483402	0.875235	0.016917
04724		-0.242179	-0.115035	-0.963388	-0.841498	-0.469342	0.267580	-0.482939	0.875492	0.016863
04725		-0.241330	-0.114424	-0.963674	-0.841999	-0.469029	0.266551	-0.482491	0.875739	0.016846
04726		-0.240327	-0.113780	-0.964001	-0.842516	-0.468770	0.265369	-0.482089	0.875961	0.016796
04727		-0.239324	-0.113061	-0.964335	-0.843010	-0.468570	0.264151	-0.481724	0.876162	0.016829
04728		-0.238213	-0.112255	-0.964704	-0.843502	-0.468448	0.262795	-0.481414	0.876330	0.016903
04729		-0.237033	-0.111424	-0.965091	-0.843988	-0.468372	0.261365	-0.481144	0.876477	0.016979
04730		-0.235764	-0.110551	-0.965502	-0.844505	-0.468290	0.259838	-0.480861	0.876631	0.017045
04731		-0.234465	-0.109599	-0.965927	-0.845031	-0.468222	0.258246	-0.480572	0.876787	0.017167
04732		-0.233101	-0.108590	-0.966371	-0.845577	-0.468158	0.256570	-0.480275	0.876947	0.017307
04733		-0.231697	-0.107578	-0.966821	-0.846194	-0.467977	0.254860	-0.479868	0.877168	0.017397
04734		-0.230259	-0.106576	-0.967276	-0.846884	-0.467668	0.253129	-0.479341	0.877456	0.017427
04735		-0.228840	-0.105610	-0.967718	-0.847585	-0.467313	0.251431	-0.478781	0.877761	0.017427
04736		-0.227407	-0.104712	-0.968154	-0.848318	-0.466882	0.249756	-0.478166	0.878098	0.017343
04737		-0.225987	-0.103778	-0.968587	-0.849022	-0.466499	0.248073	-0.477589	0.878413	0.017313
04738		-0.224565	-0.102883	-0.969013	-0.849730	-0.466091	0.246408	-0.477000	0.878734	0.017245
04739		-0.223161	-0.101992	-0.969431	-0.850414	-0.465713	0.244760	-0.476441	0.879039	0.017194
04740		-0.221789	-0.101145	-0.969835	-0.851088	-0.465319	0.243162	-0.475877	0.879345	0.017120
04741		-0.220477	-0.100280	-0.970223	-0.851732	-0.464951	0.241607	-0.475334	0.879639	0.017099
04742		-0.219226	-0.099477	-0.970590	-0.852338	-0.464603	0.240134	-0.474826	0.879914	0.017065
04743		-0.218021	-0.098785	-0.970932	-0.852904	-0.464274	0.238755	-0.474364	0.880165	0.016968
04744		-0.216848	-0.098140	-0.971260	-0.853451	-0.463951	0.237425	-0.473917	0.880408	0.016849
04745		-0.215735	-0.097563	-0.971566	-0.853968	-0.463636	0.236180	-0.473495	0.880638	0.016707
04746		-0.214700	-0.097047	-0.971847	-0.854424	-0.463379	0.235031	-0.473142	0.880830	0.016568
04747		-0.213711	-0.096549	-0.972114	-0.854834	-0.463179	0.233931	-0.472848	0.880990	0.016453
04748		-0.212784	-0.096125	-0.972359	-0.855187	-0.463038	0.232918	-0.472629	0.881111	0.016322
04749		-0.211900	-0.095784	-0.972586	-0.855504	-0.462923	0.231982	-0.472452	0.881208	0.016149
04750		-0.211078	-0.095520	-0.972791	-0.855770	-0.462855	0.231135	-0.472339	0.881273	0.015956
04751		-0.210295	-0.095247	-0.972987	-0.856024	-0.462792	0.230319	-0.472228	0.881335	0.015789
04752		-0.209603	-0.095071	-0.973154	-0.856235	-0.462745	0.229627	-0.472153	0.881379	0.015590
04753		-0.208955	-0.094904	-0.973309	-0.856424	-0.462717	0.228979	-0.472098	0.881412	0.015409
04754		-0.208366	-0.094806	-0.973445	-0.856636	-0.462603	0.228417	-0.471974	0.881482	0.015177
04755		-0.207806	-0.094703	-0.973575	-0.856847	-0.462477	0.227878	-0.471837	0.881559	0.014960
04756		-0.207402	-0.094694	-0.973662	-0.857038	-0.462299	0.227521	-0.471668	0.881653	0.014725
04757		-0.207029	-0.094709	-0.973740	-0.857247	-0.462068	0.227203	-0.471453	0.881773	0.014472
04758		-0.206863	-0.094757	-0.973770	-0.857416	-0.461813	0.227084	-0.471218	0.881901	0.014285
04759		-0.206697	-0.094885	-0.973793	-0.857610	-0.461493	0.227003	-0.470938	0.882055	0.014015
04760		-0.206671	-0.095078	-0.973780	-0.857741	-0.461212	0.227075	-0.470709	0.882181	0.013767
04761		-0.206698	-0.095284	-0.973754	-0.857822	-0.461002	0.227199	-0.470551	0.882269	0.013552
04762		-0.206812	-0.095587	-0.973700	-0.857850	-0.460827	0.227444	-0.470448	0.882327	0.013305
04763		-0.206941	-0.095914	-0.973640	-0.857826	-0.460740	0.227713	-0.470436	0.882337	0.013069
04764		-0.207118	-0.096295	-0.973565	-0.857785	-0.460650	0.228050	-0.470433	0.882343	0.012808
04765		-0.207352	-0.096673	-0.973478	-0.857711	-0.460598	0.228434	-0.470465	0.882329	0.012589
04766		-0.207667	-0.097110	-0.973367	-0.857616	-0.460534	0.228918	-0.470499	0.882314	0.012355
04767		-0.208006	-0.097518	-0.973254	-0.857496	-0.460514	0.229408	-0.470568	0.882280	0.012169
04768		-0.208402	-0.098020	-0.973119	-0.857354	-0.460485	0.229994	-0.470651	0.882239	0.011929
04769		-0.208795	-0.098506	-0.972986	-0.857216	-0.460455	0.230569	-0.470729	0.882200	0.011700
04770		-0.209194	-0.098952	-0.972855	-0.857040	-0.460502	0.231129	-0.470872	0.882126	0.011528
04771		-0.209662	-0.099400	-0.972708	-0.856832	-0.460575	0.231751	-0.471041	0.882037	0.011396
04772		-0.210069	-0.099848	-0.972575	-0.856605	-0.460713	0.232319	-0.471274	0.881915	0.011251
04773		-0.210533	-0.100244	-0.972434	-0.856339	-0.460909	0.232911	-0.471551	0.881768	0.011194
04774		-0.210973	-0.100651	-0.972296	-0.856051	-0.461151	0.233488	-0.471876	0.881595	0.011128
04775		-0.211416	-0.100981	-0.972166	-0.855798	-0.461346	0.234031	-0.472137	0.881455	0.011116
04776		-0.211976	-0.101362	-0.972004	-0.855550	-0.461464	0.234702	-0.472335	0.881349	0.011099
04777		-0.212464	-0.101691	-0.971863	-0.855338	-0.461559	0.235285	-0.472499	0.881262	0.011085
04778		-0.213055	-0.102119	-0.971689	-0.855190	-0.461464	0.236008	-0.472501	0.881262	0.010986
04779		-0.213576	-0.102543	-0.971530	-0.855057	-0.461373	0.236668	-0.472506	0.881260	0.010858
04780		-0.214141	-0.102949	-0.971362	-0.854921	-0.461271	0.237359	-0.472497	0.881267	0.010763
04781		-0.214722	-0.103381	-0.971188	-0.854752	-0.461216	0.238074	-0.472540	0.881245	0.010669
04782		-0.215317	-0.103823	-0.971009	-0.854522	-0.461263	0.238806	-0.472684	0.881168	0.010599
04783		-0.215923	-0.104227	-0.970832	-0.854271	-0.461353	0.239529	-0.472861	0.881074	0.010579
04784		-0.216532	-0.104616	-0.970654	-0.853948	-0.461579	0.240246	-0.473168	0.880909	0.010610
04785		-0.217123	-0.104967	-0.970484	-0.853601	-0.461864	0.240928	-0.473521	0.880718	0.010682
04786		-0.217747	-0.105333	-0.970305	-0.853247	-0.462143	0.241646	-0.473873	0.880528	0.010755
04787		-0.218344	-0.105630	-0.970138	-0.852927	-0.462387	0.242309	-0.474175	0.880364	0.010865
04788		-0.218951	-0.106017	-0.969959	-0.852676	-0.462474	0.243025	-0.474346	0.880272	0.010861
04789		-0.219544	-0.106358	-0.969788	-0.852473	-0.462489	0.243708	-0.474437	0.880223	0.010870
04790		-0.220183	-0.106705	-0.969605	-0.852329	-0.462371	0.244436	-0.474400	0.880243	0.010859
04791		-0.220754	-0.107002	-0.969442	-0.852261	-0.462154	0.245081	-0.474256	0.880320	0.010829
04792		-0.221316	-0.107302	-0.969281	-0.852183	-0.461960	0.245719	-0.474135	0.880386	0.010799
04793		-0.221851	-0.107555	-0.969131	-0.852112	-0.461775	0.246311	-0.474012	0.880452	0.010796
04794		-0.222344	-0.107764	-0.968994	-0.852009	-0.461679	0.246845	-0.473966	0.880477	0.010836
04795		-0.222829	-0.107981	-0.968859	-0.851930	-0.461542	0.247376	-0.473881	0.880522	0.010852
04796		-0.223255	-0.108173	-0.968739	-0.851838	-0.461462	0.247842	-0.473846	0.880541	0.010878
04797		-0.223693	-0.108265	-0.968628	-0.851761	-0.461371	0.248273	-0.473776	0.880577	0.010989
04798		-0.224108	-0.108378	-0.968519	-0.851669	-0.461317	0.248691	-0.473747	0.880591	0.011082
04799		-0.224498	-0.108431	-0.968423	-0.851632	-0.461185	0.249061	-0.473628	0.880654	0.011192
04800		-0.224846	-0.108454	-0.968340	-0.851584	-0.461102	0.249379	-0.473549	0.880694	0.011319
04801		-0.225119	-0.108458	-0.968276	-0.851587	-0.460964	0.249622	-0.473414	0.880766	0.011411
04802		-0.225354	-0.108435	-0.968224	-0.851597	-0.460840	0.249820	-0.473285	0.880834	0.011509
04803		-0.225486	-0.108365	-0.968201	-0.851645	-0.460705	0.249905	-0.473136	0.880913	0.011594
04804		-0.225586	-0.108301	-0.968185	-0.851731	-0.460513	0.249965	-0.472933	0.881022	0.011642
04805		-0.225569	-0.108191	-0.968201	-0.851874	-0.460282	0.249901	-0.472683	0.881155	0.011661
04806		-0.225509	-0.108096	-0.968226	-0.852027	-0.460051	0.249807	-0.472437	0.881288	0.011645
04807		-0.225442	-0.107942	-0.968258	-0.852203	-0.459793	0.249678	-0.472150	0.881441	0.011668
04808		-0.225276	-0.107862	-0.968306	-0.852376	-0.459572	0.249498	-0.471918	0.881566	0.011592
04809		-0.225108	-0.107745	-0.968358	-0.852519	-0.459415	0.249297	-0.471739	0.881663	0.011563
04810		-0.224888	-0.107664	-0.968418	-0.852657	-0.459284	0.249067	-0.471594	0.881741	0.011487
04811		-0.224648	-0.107542	-0.968487	-0.852753	-0.459251	0.248799	-0.471536	0.881773	0.011463
04812		-0.224436	-0.107344	-0.968559	-0.852783	-0.459348	0.248517	-0.471582	0.881746	0.011553
04813		-0.224153	-0.107191	-0.968641	-0.852804	-0.459483	0.248194	-0.471678	0.881695	0.011582
04814		-0.223745	-0.107087	-0.968747	-0.852843	-0.459633	0.247784	-0.471802	0.881629	0.011513
04815		-0.223366	-0.106883	-0.968857	-0.852897	-0.459764	0.247353	-0.471883	0.881586	0.011536
