// Start Time: Unknown
// Update Rate: 100.0Hz
// Filter Profile: human (46.1)
// Option Flags: AHS Disabled ICC Disabled 
// Firmware Version: 4.0.2
PacketCounter	SampleTimeFine	Mat[1][1]	Mat[2][1]	Mat[3][1]	Mat[1][2]	Mat[2][2]	Mat[3][2]	Mat[1][3]	Mat[2][3]	Mat[3][3]
06814		-0.205786	-0.095628	-0.973913	0.719383	0.659913	-0.216801	0.663431	-0.745231	-0.067008
06815		-0.205644	-0.095580	-0.973948	0.719438	0.659897	-0.216666	0.663415	-0.745251	-0.066940
06816		-0.205503	-0.095547	-0.973981	0.719459	0.659917	-0.216538	0.663436	-0.745239	-0.066872
06817		-0.205334	-0.095511	-0.974020	0.719464	0.659962	-0.216385	0.663483	-0.745203	-0.066796
06818		-0.205200	-0.095494	-0.974050	0.719454	0.660010	-0.216271	0.663535	-0.745163	-0.066730
06819		-0.205044	-0.095513	-0.974081	0.719431	0.660070	-0.216163	0.663609	-0.745107	-0.066628
06820		-0.204914	-0.095516	-0.974108	0.719452	0.660079	-0.216068	0.663626	-0.745099	-0.066540
06821		-0.204777	-0.095537	-0.974135	0.719474	0.660082	-0.215981	0.663644	-0.745093	-0.066433
06822		-0.204626	-0.095545	-0.974166	0.719569	0.660012	-0.215880	0.663587	-0.745155	-0.066304
06823		-0.204441	-0.095573	-0.974202	0.719697	0.659908	-0.215772	0.663505	-0.745243	-0.066129
06824		-0.204243	-0.095555	-0.974245	0.719891	0.659743	-0.215628	0.663356	-0.745391	-0.065959
06825		-0.204034	-0.095532	-0.974291	0.720117	0.659547	-0.215476	0.663176	-0.745568	-0.065775
06826		-0.203799	-0.095454	-0.974348	0.720410	0.659293	-0.215273	0.662929	-0.745803	-0.065597
06827		-0.203570	-0.095368	-0.974405	0.720723	0.659016	-0.215071	0.662659	-0.746058	-0.065422
06828		-0.203339	-0.095325	-0.974457	0.721064	0.658699	-0.214901	0.662359	-0.746344	-0.065204
06829		-0.203117	-0.095283	-0.974507	0.721379	0.658409	-0.214733	0.662085	-0.746605	-0.064999
06830		-0.202914	-0.095249	-0.974553	0.721746	0.658052	-0.214592	0.661746	-0.746924	-0.064783
06831		-0.202755	-0.095266	-0.974584	0.722030	0.657768	-0.214510	0.661486	-0.747172	-0.064581
06832		-0.202659	-0.095288	-0.974602	0.722308	0.657472	-0.214479	0.661211	-0.747429	-0.064415
06833		-0.202663	-0.095328	-0.974597	0.722576	0.657159	-0.214535	0.660917	-0.747699	-0.064300
06834		-0.202701	-0.095350	-0.974588	0.722866	0.656817	-0.214606	0.660588	-0.747997	-0.064212
06835		-0.202790	-0.095385	-0.974566	0.723193	0.656417	-0.214730	0.660203	-0.748344	-0.064133
06836		-0.202941	-0.095427	-0.974530	0.723584	0.655926	-0.214912	0.659727	-0.748769	-0.064065
06837		-0.203108	-0.095452	-0.974493	0.724088	0.655307	-0.215105	0.659124	-0.749308	-0.063982
06838		-0.203261	-0.095476	-0.974458	0.724734	0.654527	-0.215301	0.658366	-0.749986	-0.063846
06839		-0.203438	-0.095519	-0.974417	0.725403	0.653710	-0.215530	0.657574	-0.750693	-0.063700
06840		-0.203670	-0.095571	-0.974364	0.726044	0.652907	-0.215805	0.656794	-0.751384	-0.063589
06841		-0.203939	-0.095644	-0.974300	0.726643	0.652137	-0.216118	0.656047	-0.752044	-0.063497
06842		-0.204283	-0.095726	-0.974220	0.727186	0.651409	-0.216489	0.655339	-0.752664	-0.063461
06843		-0.204682	-0.095790	-0.974130	0.727692	0.650710	-0.216888	0.654652	-0.753260	-0.063483
06844		-0.205119	-0.095911	-0.974026	0.728221	0.649961	-0.217356	0.653926	-0.753891	-0.063476
06845		-0.205517	-0.095977	-0.973936	0.728845	0.649125	-0.217766	0.653106	-0.754603	-0.063454
06846		-0.205919	-0.096044	-0.973844	0.729542	0.648199	-0.218189	0.652201	-0.755390	-0.063409
06847		-0.206355	-0.096110	-0.973746	0.730311	0.647179	-0.218644	0.651201	-0.756256	-0.063359
06848		-0.206734	-0.096224	-0.973654	0.731103	0.646134	-0.219090	0.650192	-0.757134	-0.063228
06849		-0.207148	-0.096321	-0.973556	0.731904	0.645069	-0.219552	0.649158	-0.758029	-0.063127
06850		-0.207635	-0.096479	-0.973437	0.732785	0.643873	-0.220120	0.648007	-0.759025	-0.062992
06851		-0.208289	-0.096649	-0.973280	0.733766	0.642510	-0.220834	0.646686	-0.760157	-0.062910
06852		-0.209195	-0.096815	-0.973070	0.734848	0.640955	-0.221752	0.645163	-0.761448	-0.062940
06853		-0.210318	-0.097052	-0.972804	0.735914	0.639337	-0.222887	0.643581	-0.762777	-0.063042
06854		-0.211657	-0.097416	-0.972477	0.736883	0.637737	-0.224265	0.642031	-0.764069	-0.063197
06855		-0.213268	-0.097983	-0.972068	0.737882	0.635969	-0.225993	0.640349	-0.765469	-0.063332
06856		-0.215001	-0.098649	-0.971619	0.739131	0.633831	-0.227909	0.638325	-0.767155	-0.063360
06857		-0.216909	-0.099380	-0.971120	0.740650	0.631286	-0.230034	0.635915	-0.769156	-0.063326
06858		-0.218932	-0.100124	-0.970590	0.742289	0.628535	-0.232273	0.633305	-0.771310	-0.063285
06859		-0.220916	-0.100969	-0.970052	0.743860	0.625829	-0.234544	0.630768	-0.773398	-0.063148
06860		-0.222933	-0.101990	-0.969484	0.745272	0.623241	-0.236941	0.628387	-0.775351	-0.062931
06861		-0.225051	-0.103049	-0.968882	0.746510	0.620805	-0.239426	0.626159	-0.777163	-0.062786
06862		-0.227132	-0.104210	-0.968272	0.747666	0.618433	-0.241942	0.624025	-0.778897	-0.062552
06863		-0.229325	-0.105381	-0.967628	0.748661	0.616204	-0.244539	0.622026	-0.780505	-0.062417
06864		-0.231565	-0.106521	-0.966970	0.749645	0.613960	-0.247154	0.620008	-0.782117	-0.062319
06865		-0.233870	-0.107796	-0.966274	0.750644	0.611619	-0.249912	0.617931	-0.783775	-0.062123
06866		-0.236427	-0.109088	-0.965506	0.751749	0.609030	-0.252895	0.615610	-0.785609	-0.061985
06867		-0.239377	-0.110445	-0.964624	0.752876	0.606233	-0.256242	0.613088	-0.787581	-0.061967
06868		-0.242568	-0.111941	-0.963655	0.753952	0.603344	-0.259869	0.610506	-0.789585	-0.061953
06869		-0.246064	-0.113602	-0.962573	0.754929	0.600391	-0.263841	0.607893	-0.791597	-0.061973
06870		-0.249801	-0.115298	-0.961408	0.755845	0.597376	-0.268031	0.605225	-0.793630	-0.062077
06871		-0.253747	-0.117001	-0.960168	0.756887	0.594065	-0.272414	0.602275	-0.795863	-0.062185
06872		-0.257764	-0.118727	-0.958886	0.758150	0.590368	-0.276901	0.598971	-0.798354	-0.062163
06873		-0.261828	-0.120515	-0.957561	0.759584	0.586340	-0.281489	0.595380	-0.801050	-0.061978
06874		-0.265987	-0.122310	-0.956186	0.761015	0.582207	-0.286168	0.591699	-0.803788	-0.061780
06875		-0.270331	-0.124117	-0.954733	0.762231	0.578211	-0.290993	0.588154	-0.806392	-0.061703
06876		-0.274819	-0.126008	-0.953203	0.763286	0.574274	-0.295980	0.584695	-0.808908	-0.061642
06877		-0.279404	-0.127942	-0.951611	0.764190	0.570414	-0.301066	0.581332	-0.811331	-0.061604
06878		-0.284037	-0.129827	-0.949983	0.765016	0.566581	-0.306164	0.577991	-0.813714	-0.061610
06879		-0.288697	-0.131803	-0.948305	0.765760	0.562742	-0.311339	0.574687	-0.816057	-0.061533
06880		-0.293343	-0.133735	-0.946607	0.766446	0.558929	-0.316478	0.571411	-0.818360	-0.061457
06881		-0.298026	-0.135623	-0.944874	0.766976	0.555259	-0.321614	0.568268	-0.820545	-0.061462
06882		-0.302582	-0.137401	-0.943168	0.767561	0.551532	-0.326592	0.565062	-0.822759	-0.061420
06883		-0.307042	-0.139144	-0.941469	0.768169	0.547756	-0.331480	0.561819	-0.824986	-0.061298
06884		-0.311335	-0.140713	-0.939825	0.768892	0.543888	-0.336142	0.558459	-0.827276	-0.061138
06885		-0.315562	-0.142172	-0.938194	0.769631	0.539996	-0.340695	0.555058	-0.829573	-0.060982
06886		-0.319587	-0.143503	-0.936628	0.770480	0.536023	-0.345021	0.551565	-0.831917	-0.060740
06887		-0.323487	-0.144896	-0.935073	0.771264	0.532127	-0.349274	0.548186	-0.834174	-0.060384
06888		-0.327062	-0.146195	-0.933626	0.772097	0.528312	-0.353204	0.544882	-0.836369	-0.059914
06889		-0.330405	-0.147443	-0.932251	0.772910	0.524623	-0.356906	0.541704	-0.838470	-0.059378
06890		-0.333426	-0.148528	-0.931003	0.773876	0.520897	-0.360254	0.538464	-0.840599	-0.058738
06891		-0.336191	-0.149531	-0.929847	0.774918	0.517186	-0.363346	0.535236	-0.842709	-0.057999
06892		-0.338652	-0.150441	-0.928807	0.776162	0.513334	-0.366142	0.531871	-0.844900	-0.057075
06893		-0.340970	-0.151196	-0.927836	0.777461	0.509499	-0.368734	0.528483	-0.847083	-0.056175
06894		-0.343103	-0.151789	-0.926952	0.778839	0.505674	-0.371084	0.525062	-0.849267	-0.055279
06895		-0.345220	-0.152403	-0.926065	0.780140	0.501933	-0.373425	0.521733	-0.851374	-0.054381
06896		-0.347335	-0.152867	-0.925197	0.781450	0.498194	-0.375685	0.518357	-0.853484	-0.053583
06897		-0.349421	-0.153286	-0.924342	0.782723	0.494513	-0.377892	0.515024	-0.855547	-0.052813
06898		-0.351401	-0.153598	-0.923539	0.784158	0.490634	-0.379967	0.511482	-0.857721	-0.051964
06899		-0.353293	-0.153787	-0.922786	0.785714	0.486619	-0.381912	0.507778	-0.859972	-0.051086
06900		-0.355094	-0.153749	-0.922100	0.787444	0.482415	-0.383676	0.503825	-0.862344	-0.050234
06901		-0.356805	-0.153537	-0.921475	0.789274	0.478128	-0.385281	0.499738	-0.864766	-0.049415
06902		-0.358238	-0.153145	-0.920984	0.791305	0.473710	-0.386567	0.495481	-0.867263	-0.048517
06903		-0.359577	-0.152609	-0.920552	0.793394	0.469267	-0.387703	0.491152	-0.869769	-0.047658
06904		-0.360695	-0.151903	-0.920231	0.795675	0.464662	-0.388576	0.486622	-0.872362	-0.046735
06905		-0.361645	-0.151082	-0.919993	0.798059	0.459983	-0.389252	0.481990	-0.874980	-0.045778
06906		-0.362412	-0.150156	-0.919843	0.800586	0.455166	-0.389727	0.477201	-0.877654	-0.044745
06907		-0.363009	-0.149221	-0.919759	0.803152	0.450342	-0.390050	0.472410	-0.880298	-0.043631
06908		-0.363442	-0.148225	-0.919750	0.805743	0.445561	-0.390197	0.467642	-0.882895	-0.042504
06909		-0.363784	-0.147231	-0.919774	0.808246	0.440950	-0.390258	0.463033	-0.885373	-0.041412
06910		-0.364072	-0.146257	-0.919815	0.810664	0.436477	-0.390272	0.458558	-0.887748	-0.040344
06911		-0.364417	-0.145396	-0.919815	0.812934	0.432136	-0.390381	0.454245	-0.890010	-0.039281
06912		-0.364987	-0.144621	-0.919711	0.815043	0.427831	-0.390724	0.449988	-0.892214	-0.038280
06913		-0.365818	-0.144035	-0.919473	0.816850	0.423773	-0.391373	0.446019	-0.894243	-0.037368
06914		-0.366852	-0.143595	-0.919130	0.818390	0.419968	-0.392256	0.442331	-0.896107	-0.036549
06915		-0.368111	-0.143227	-0.918684	0.819785	0.416189	-0.393369	0.438687	-0.897927	-0.035789
06916		-0.369635	-0.142790	-0.918140	0.821120	0.412284	-0.394694	0.434893	-0.899796	-0.035147
06917		-0.371386	-0.142317	-0.917507	0.822364	0.408331	-0.396212	0.431034	-0.901671	-0.034612
06918		-0.373168	-0.141852	-0.916855	0.823482	0.404559	-0.397756	0.427344	-0.903444	-0.034156
06919		-0.375025	-0.141380	-0.916170	0.824371	0.401159	-0.399354	0.423991	-0.905032	-0.033895
06920		-0.376902	-0.140872	-0.915478	0.825075	0.398114	-0.400944	0.420946	-0.906455	-0.033820
06921		-0.378761	-0.140317	-0.914796	0.825646	0.395360	-0.402492	0.418150	-0.907745	-0.033895
06922		-0.380623	-0.139680	-0.914120	0.826155	0.392741	-0.404008	0.415444	-0.908980	-0.034089
06923		-0.382351	-0.138958	-0.913509	0.826734	0.390107	-0.405373	0.412696	-0.910224	-0.034276
06924		-0.383980	-0.138163	-0.912946	0.827448	0.387277	-0.406629	0.409744	-0.911553	-0.034384
06925		-0.385507	-0.137249	-0.912440	0.828377	0.384083	-0.407764	0.406418	-0.913041	-0.034373
06926		-0.386939	-0.136227	-0.911987	0.829519	0.380513	-0.408788	0.402711	-0.914687	-0.034232
06927		-0.388201	-0.135091	-0.911620	0.830854	0.376680	-0.409627	0.398725	-0.916440	-0.033987
06928		-0.389372	-0.133914	-0.911294	0.832218	0.372835	-0.410374	0.394717	-0.918183	-0.033726
06929		-0.390431	-0.132785	-0.911006	0.833574	0.369056	-0.411038	0.390792	-0.919873	-0.033405
06930		-0.391351	-0.131655	-0.910775	0.834947	0.365332	-0.411578	0.386922	-0.921520	-0.033048
06931		-0.392160	-0.130524	-0.910590	0.836305	0.361712	-0.412016	0.383149	-0.923108	-0.032692
06932		-0.392832	-0.129355	-0.910467	0.837729	0.358053	-0.412319	0.379331	-0.924697	-0.032291
06933		-0.393345	-0.128148	-0.910416	0.839263	0.354269	-0.412469	0.375389	-0.926321	-0.031800
06934		-0.393675	-0.126845	-0.910456	0.840850	0.350549	-0.412416	0.371472	-0.927915	-0.031345
06935		-0.393880	-0.125511	-0.910552	0.842480	0.346822	-0.412240	0.367541	-0.929495	-0.030866
06936		-0.394002	-0.124046	-0.910700	0.844140	0.343120	-0.411942	0.363579	-0.931065	-0.030478
06937		-0.394044	-0.122538	-0.910886	0.845809	0.339451	-0.411558	0.359633	-0.932608	-0.030115
06938		-0.393983	-0.121016	-0.911116	0.847480	0.335851	-0.411074	0.355746	-0.934109	-0.029761
06939		-0.393775	-0.119531	-0.911402	0.849184	0.332266	-0.410471	0.351892	-0.935581	-0.029334
06940		-0.393557	-0.118171	-0.911674	0.850930	0.328470	-0.409910	0.347897	-0.937093	-0.028716
06941		-0.393250	-0.116820	-0.911980	0.852780	0.324431	-0.409281	0.343686	-0.938668	-0.027961
06942		-0.392993	-0.115521	-0.912256	0.854598	0.320331	-0.408718	0.339439	-0.940236	-0.027164
06943		-0.392804	-0.114243	-0.912498	0.856310	0.316364	-0.408225	0.335318	-0.941734	-0.026442
06944		-0.392724	-0.112920	-0.912698	0.857963	0.312382	-0.407820	0.331161	-0.943221	-0.025799
06945		-0.392731	-0.111590	-0.912858	0.859578	0.308332	-0.407500	0.326937	-0.944711	-0.025171
06946		-0.392817	-0.110203	-0.912989	0.861194	0.304135	-0.407243	0.322551	-0.946233	-0.024564
06947		-0.392964	-0.108758	-0.913100	0.862810	0.299807	-0.407031	0.318022	-0.947780	-0.023976
06948		-0.393220	-0.107294	-0.913163	0.864365	0.295446	-0.406921	0.313451	-0.949315	-0.023434
06949		-0.393617	-0.105895	-0.913155	0.865831	0.291054	-0.406971	0.308873	-0.950828	-0.022876
06950		-0.394171	-0.104396	-0.913089	0.867204	0.286694	-0.407142	0.304281	-0.952317	-0.022473
06951		-0.394913	-0.102946	-0.912933	0.868457	0.282342	-0.407511	0.299711	-0.953774	-0.022097
06952		-0.395755	-0.101518	-0.912728	0.869678	0.277852	-0.407993	0.295022	-0.955245	-0.021673
06953		-0.396688	-0.100123	-0.912477	0.870934	0.273007	-0.408583	0.290021	-0.956788	-0.021098
06954		-0.397718	-0.098802	-0.912172	0.872197	0.267853	-0.409301	0.284768	-0.958380	-0.020355
06955		-0.398829	-0.097588	-0.911818	0.873399	0.262614	-0.410131	0.279480	-0.959953	-0.019505
06956		-0.399986	-0.096512	-0.911426	0.874506	0.257452	-0.411046	0.274319	-0.961459	-0.018577
06957		-0.401155	-0.095503	-0.911018	0.875501	0.252517	-0.411988	0.269394	-0.962868	-0.017686
06958		-0.402381	-0.094580	-0.910574	0.876336	0.247920	-0.413002	0.264811	-0.964153	-0.016874
06959		-0.403779	-0.093766	-0.910039	0.876958	0.243671	-0.414209	0.260589	-0.965315	-0.016161
06960		-0.405273	-0.092968	-0.909456	0.877429	0.239733	-0.415507	0.256655	-0.966377	-0.015584
06961		-0.406891	-0.092208	-0.908811	0.877741	0.236089	-0.416933	0.253004	-0.967347	-0.015127
06962		-0.408653	-0.091501	-0.908092	0.877919	0.232604	-0.418513	0.249520	-0.968258	-0.014724
06963		-0.410530	-0.090855	-0.907309	0.877994	0.229219	-0.420220	0.246152	-0.969125	-0.014331
06964		-0.412477	-0.090196	-0.906492	0.878016	0.225855	-0.421992	0.242798	-0.969976	-0.013967
06965		-0.414494	-0.089580	-0.905633	0.878003	0.222407	-0.423847	0.239387	-0.970830	-0.013535
06966		-0.416461	-0.088916	-0.904795	0.878040	0.218791	-0.425647	0.235808	-0.971712	-0.013046
06967		-0.418467	-0.088294	-0.903930	0.878060	0.215073	-0.427498	0.232156	-0.972599	-0.012474
06968		-0.420419	-0.087702	-0.903081	0.878075	0.211378	-0.429306	0.228543	-0.973462	-0.011859
06969		-0.422375	-0.087145	-0.902223	0.878042	0.207782	-0.431124	0.225036	-0.974286	-0.011245
06970		-0.424349	-0.086539	-0.901354	0.877972	0.204252	-0.432951	0.221571	-0.975086	-0.010695
06971		-0.426318	-0.085975	-0.900478	0.877831	0.200942	-0.434781	0.218324	-0.975823	-0.010193
06972		-0.428286	-0.085389	-0.899600	0.877630	0.197839	-0.436606	0.215257	-0.976508	-0.009792
06973		-0.430262	-0.084814	-0.898711	0.877378	0.194881	-0.438440	0.212327	-0.977153	-0.009436
06974		-0.432254	-0.084289	-0.897804	0.877100	0.191906	-0.440303	0.209407	-0.977787	-0.009022
06975		-0.434218	-0.083787	-0.896903	0.876814	0.188959	-0.442145	0.206524	-0.978404	-0.008584
06976		-0.436217	-0.083353	-0.895973	0.876470	0.186099	-0.444035	0.203752	-0.978989	-0.008123
06977		-0.438302	-0.083119	-0.894976	0.876003	0.183466	-0.446049	0.201273	-0.979506	-0.007601
06978		-0.440563	-0.083007	-0.893876	0.875349	0.181192	-0.448257	0.199172	-0.979938	-0.007166
06979		-0.442995	-0.082915	-0.892682	0.874511	0.179330	-0.450635	0.197449	-0.980289	-0.006933
06980		-0.445582	-0.082949	-0.891390	0.873528	0.177680	-0.453187	0.195974	-0.980586	-0.006713
06981		-0.448223	-0.082950	-0.890065	0.872544	0.175851	-0.455788	0.194327	-0.980916	-0.006443
06982		-0.450840	-0.082866	-0.888750	0.871640	0.173657	-0.458352	0.192319	-0.981314	-0.006062
06983		-0.453569	-0.082783	-0.887368	0.870720	0.171173	-0.461029	0.190059	-0.981757	-0.005558
06984		-0.456331	-0.082670	-0.885961	0.869783	0.168614	-0.463732	0.187722	-0.982209	-0.005039
06985		-0.459122	-0.082425	-0.884541	0.868823	0.166078	-0.466439	0.185349	-0.982662	-0.004637
06986		-0.461862	-0.082091	-0.883145	0.867861	0.163650	-0.469081	0.183033	-0.983097	-0.004340
06987		-0.464473	-0.081644	-0.881816	0.866949	0.161294	-0.471576	0.180733	-0.983524	-0.004135
06988		-0.466958	-0.081090	-0.880553	0.866126	0.158796	-0.473931	0.178260	-0.983976	-0.003917
06989		-0.469176	-0.080345	-0.879442	0.865494	0.156053	-0.475992	0.175483	-0.984476	-0.003678
06990		-0.471170	-0.079404	-0.878461	0.865031	0.153057	-0.477802	0.172394	-0.985022	-0.003429
06991		-0.472880	-0.078397	-0.877632	0.864746	0.149871	-0.479325	0.169109	-0.985593	-0.003078
06992		-0.474399	-0.077316	-0.876908	0.864611	0.146363	-0.480651	0.165509	-0.986205	-0.002586
06993		-0.475767	-0.076178	-0.876266	0.864606	0.142489	-0.481823	0.161563	-0.986861	-0.001928
06994		-0.477000	-0.074979	-0.875700	0.864722	0.138226	-0.482855	0.157248	-0.987559	-0.001098
06995		-0.478110	-0.073711	-0.875202	0.864959	0.133508	-0.483758	0.152505	-0.988303	-0.000075
06996		-0.479068	-0.072318	-0.874794	0.865309	0.128472	-0.484495	0.147424	-0.989073	0.001031
06997		-0.479880	-0.070803	-0.874472	0.865783	0.122995	-0.485070	0.141900	-0.989878	0.002278
06998		-0.480580	-0.069196	-0.874217	0.866318	0.117307	-0.485523	0.136148	-0.990682	0.003571
06999		-0.481190	-0.067492	-0.874014	0.866880	0.111547	-0.485876	0.130286	-0.991465	0.004832
07000		-0.481674	-0.065751	-0.873880	0.867452	0.105970	-0.486104	0.124567	-0.992193	0.005993
07001		-0.482091	-0.064006	-0.873780	0.867984	0.100722	-0.486271	0.119133	-0.992854	0.006999
07002		-0.482460	-0.062231	-0.873705	0.868484	0.095697	-0.486393	0.113880	-0.993463	0.007876
07003		-0.482825	-0.060464	-0.873627	0.868951	0.090690	-0.486517	0.108646	-0.994042	0.008752
07004		-0.483170	-0.058785	-0.873551	0.869410	0.085519	-0.486635	0.103312	-0.994601	0.009788
07005		-0.483591	-0.057132	-0.873428	0.869814	0.080123	-0.486831	0.097795	-0.995146	0.010948
07006		-0.484059	-0.055406	-0.873279	0.870182	0.074482	-0.487068	0.092030	-0.995682	0.012160
07007		-0.484667	-0.053785	-0.873044	0.870443	0.068686	-0.487454	0.086184	-0.996187	0.013527
07008		-0.485376	-0.052155	-0.872749	0.870600	0.062977	-0.487944	0.080412	-0.996651	0.014838
07009		-0.486231	-0.050531	-0.872368	0.870616	0.057545	-0.488587	0.074889	-0.997063	0.016013
07010		-0.487207	-0.048935	-0.871915	0.870507	0.052378	-0.489360	0.069616	-0.997428	0.017080
07011		-0.488297	-0.047415	-0.871388	0.870290	0.047359	-0.490258	0.064514	-0.997752	0.018140
07012		-0.489416	-0.045938	-0.870839	0.870016	0.042451	-0.491193	0.059532	-0.998042	0.019190
07013		-0.490676	-0.044520	-0.870204	0.869631	0.037537	-0.492273	0.054581	-0.998303	0.020298
07014		-0.492006	-0.043101	-0.869524	0.869177	0.032594	-0.493426	0.049609	-0.998539	0.021426
07015		-0.493393	-0.041667	-0.868808	0.868666	0.027535	-0.494633	0.044533	-0.998752	0.022609
07016		-0.494906	-0.040203	-0.868016	0.868057	0.022323	-0.495963	0.039316	-0.998942	0.023851
07017		-0.496487	-0.038761	-0.867179	0.867377	0.017009	-0.497361	0.034028	-0.999104	0.025176
07018		-0.498148	-0.037399	-0.866285	0.866613	0.011727	-0.498843	0.028815	-0.999232	0.026568
07019		-0.499904	-0.036063	-0.865329	0.865756	0.006557	-0.500424	0.023721	-0.999328	0.027944
07020		-0.501721	-0.034846	-0.864327	0.864824	0.001553	-0.502072	0.018837	-0.999392	0.029356
07021		-0.503672	-0.033653	-0.863239	0.863779	-0.003251	-0.503860	0.014150	-0.999428	0.030706
07022		-0.505604	-0.032470	-0.862154	0.862711	-0.007781	-0.505637	0.009710	-0.999442	0.031946
07023		-0.507615	-0.031294	-0.861016	0.861566	-0.012030	-0.507502	0.005524	-0.999438	0.033068
07024		-0.509732	-0.030052	-0.859808	0.860332	-0.015977	-0.509484	0.001574	-0.999421	0.033998
07025		-0.511947	-0.028811	-0.858534	0.859014	-0.019648	-0.511575	-0.002129	-0.999392	0.034808
07026		-0.514202	-0.027577	-0.857225	0.857651	-0.023008	-0.513717	-0.005556	-0.999355	0.035482
07027		-0.516461	-0.026453	-0.855902	0.856267	-0.026113	-0.515874	-0.008704	-0.999309	0.036137
07028		-0.518735	-0.025558	-0.854553	0.854856	-0.029142	-0.518047	-0.011663	-0.999248	0.036966
07029		-0.520981	-0.024800	-0.853208	0.853445	-0.032073	-0.520194	-0.014464	-0.999178	0.037875
07030		-0.523198	-0.024165	-0.851869	0.852038	-0.034987	-0.522309	-0.017183	-0.999096	0.038895
07031		-0.525553	-0.023614	-0.850433	0.850529	-0.037914	-0.524559	-0.019856	-0.999002	0.040010
07032		-0.527978	-0.022965	-0.848948	0.848962	-0.040663	-0.526887	-0.022421	-0.998909	0.040965
07033		-0.530524	-0.022189	-0.847380	0.847309	-0.043058	-0.529352	-0.024741	-0.998826	0.041644
07034		-0.533146	-0.021296	-0.845755	0.845599	-0.045089	-0.531912	-0.026807	-0.998756	0.042047
07035		-0.535882	-0.020322	-0.844048	0.843800	-0.047042	-0.534592	-0.028842	-0.998686	0.042357
07036		-0.538665	-0.019381	-0.842297	0.841954	-0.049029	-0.537317	-0.030884	-0.998609	0.042728
07037		-0.541502	-0.018580	-0.840494	0.840057	-0.051036	-0.540092	-0.032860	-0.998524	0.043244
07038		-0.544407	-0.018001	-0.838628	0.838103	-0.053030	-0.542928	-0.034699	-0.998431	0.043956
07039		-0.547324	-0.017584	-0.836736	0.836128	-0.054996	-0.545771	-0.036421	-0.998332	0.044803
07040		-0.550245	-0.017356	-0.834823	0.834135	-0.057003	-0.548607	-0.038066	-0.998223	0.045843
07041		-0.553141	-0.017234	-0.832909	0.832143	-0.059014	-0.551412	-0.039651	-0.998108	0.046984
07042		-0.555965	-0.017232	-0.831027	0.830187	-0.060992	-0.554138	-0.041137	-0.997989	0.048216
07043		-0.558688	-0.017399	-0.829196	0.828298	-0.062706	-0.556767	-0.042309	-0.997880	0.049445
07044		-0.561281	-0.017597	-0.827438	0.826503	-0.063974	-0.559286	-0.043093	-0.997796	0.050452
07045		-0.563733	-0.017846	-0.825764	0.824814	-0.064731	-0.561686	-0.043428	-0.997743	0.051210
07046		-0.565933	-0.018139	-0.824251	0.823310	-0.065002	-0.563857	-0.043350	-0.997720	0.051720
07047		-0.567939	-0.018604	-0.822860	0.821953	-0.064914	-0.565845	-0.042888	-0.997717	0.052159
07048		-0.569675	-0.019114	-0.821648	0.820783	-0.064635	-0.567572	-0.042259	-0.997726	0.052509
07049		-0.571136	-0.019710	-0.820619	0.819803	-0.064300	-0.569024	-0.041551	-0.997736	0.052882
07050		-0.572353	-0.020353	-0.819755	0.818991	-0.063953	-0.570232	-0.040820	-0.997745	0.053272
07051		-0.573306	-0.021107	-0.819069	0.818365	-0.063548	-0.571175	-0.039995	-0.997756	0.053706
07052		-0.573974	-0.021884	-0.818581	0.817937	-0.063105	-0.571836	-0.039142	-0.997767	0.054120
07053		-0.574394	-0.022698	-0.818264	0.817688	-0.062538	-0.572255	-0.038184	-0.997784	0.054482
07054		-0.574589	-0.023498	-0.818105	0.817582	-0.062287	-0.572433	-0.037506	-0.997782	0.055001
07055		-0.574592	-0.024283	-0.818079	0.817598	-0.062346	-0.572404	-0.037104	-0.997759	0.055678
07056		-0.574403	-0.024966	-0.818192	0.817742	-0.062513	-0.572180	-0.036863	-0.997732	0.056324
07057		-0.573991	-0.025509	-0.818464	0.818040	-0.062637	-0.571741	-0.036681	-0.997710	0.056820
07058		-0.573426	-0.025932	-0.818847	0.818444	-0.062661	-0.571159	-0.036498	-0.997698	0.057156
07059		-0.572692	-0.026242	-0.819351	0.818961	-0.062734	-0.570410	-0.036433	-0.997685	0.057418
07060		-0.571852	-0.026452	-0.819930	0.819543	-0.062918	-0.569553	-0.036522	-0.997668	0.057658
07061		-0.570833	-0.026555	-0.820637	0.820241	-0.063256	-0.568510	-0.036814	-0.997644	0.057890
07062		-0.569675	-0.026446	-0.821445	0.821021	-0.063744	-0.567329	-0.037358	-0.997616	0.058026
07063		-0.568353	-0.026261	-0.822365	0.821891	-0.064697	-0.565959	-0.038341	-0.997559	0.058354
07064		-0.566899	-0.025972	-0.823378	0.822818	-0.066331	-0.564421	-0.039956	-0.997460	0.058973
07065		-0.565307	-0.025650	-0.824482	0.823806	-0.068554	-0.562711	-0.042088	-0.997318	0.059885
07066		-0.563624	-0.025344	-0.825642	0.824837	-0.070992	-0.560895	-0.044398	-0.997155	0.060918
07067		-0.561849	-0.025044	-0.826860	0.825918	-0.073469	-0.558983	-0.046749	-0.996983	0.061962
07068		-0.560045	-0.024624	-0.828096	0.826999	-0.076002	-0.557043	-0.049221	-0.996804	0.062929
07069		-0.558201	-0.024103	-0.829355	0.828096	-0.078411	-0.555075	-0.051651	-0.996630	0.063728
07070		-0.556371	-0.023548	-0.830600	0.829182	-0.080615	-0.553136	-0.053933	-0.996467	0.064377
07071		-0.554567	-0.022887	-0.831825	0.830246	-0.082610	-0.551241	-0.056101	-0.996319	0.064815
07072		-0.552863	-0.022127	-0.832978	0.831246	-0.084309	-0.549474	-0.058070	-0.996194	0.065004
07073		-0.551244	-0.021272	-0.834073	0.832183	-0.085926	-0.547803	-0.060015	-0.996074	0.065068
07074		-0.549771	-0.020426	-0.835066	0.833002	-0.087757	-0.546265	-0.062124	-0.995932	0.065261
07075		-0.548409	-0.019535	-0.835982	0.833722	-0.089848	-0.544826	-0.064468	-0.995764	0.065560
07076		-0.547177	-0.018558	-0.836811	0.834319	-0.092292	-0.543501	-0.067145	-0.995559	0.065984
07077		-0.546039	-0.017507	-0.837577	0.834817	-0.095093	-0.542253	-0.070155	-0.995314	0.066539
07078		-0.545046	-0.016366	-0.838246	0.835191	-0.098070	-0.541145	-0.073350	-0.995045	0.067121
07079		-0.544297	-0.015282	-0.838754	0.835398	-0.101047	-0.540278	-0.076497	-0.994764	0.067767
07080		-0.543773	-0.014211	-0.839112	0.835455	-0.103917	-0.539644	-0.079529	-0.994484	0.068380
07081		-0.543500	-0.013082	-0.839307	0.835354	-0.106598	-0.539278	-0.082414	-0.994216	0.068864
07082		-0.543465	-0.011898	-0.839347	0.835101	-0.109095	-0.539170	-0.085154	-0.993960	0.069225
07083		-0.543637	-0.010641	-0.839253	0.834709	-0.111529	-0.539279	-0.087863	-0.993704	0.069514
07084		-0.543911	-0.009259	-0.839092	0.834239	-0.113913	-0.539508	-0.090588	-0.993448	0.069683
07085		-0.544291	-0.007777	-0.838860	0.833694	-0.116210	-0.539861	-0.093286	-0.993194	0.069735
07086		-0.544765	-0.006392	-0.838564	0.833087	-0.118486	-0.540303	-0.095905	-0.992935	0.069872
07087		-0.545271	-0.004954	-0.838245	0.832454	-0.120694	-0.540790	-0.098492	-0.992677	0.069935
07088		-0.545827	-0.003568	-0.837890	0.831780	-0.122925	-0.541323	-0.101066	-0.992410	0.070064
07089		-0.546453	-0.002139	-0.837487	0.831027	-0.125378	-0.541917	-0.103843	-0.992107	0.070291
07090		-0.547182	-0.000719	-0.837013	0.830162	-0.128152	-0.542593	-0.106875	-0.991754	0.070719
07091		-0.547945	0.000620	-0.836514	0.829254	-0.131068	-0.543286	-0.109977	-0.991373	0.071304
07092		-0.548729	0.001982	-0.835998	0.828318	-0.133966	-0.544006	-0.113073	-0.990984	0.071869
07093		-0.549604	0.003293	-0.835419	0.827326	-0.136759	-0.544819	-0.116046	-0.990599	0.072439
07094		-0.550502	0.004618	-0.834821	0.826313	-0.139500	-0.545662	-0.118977	-0.990211	0.072979
07095		-0.551352	0.005992	-0.834251	0.825320	-0.142189	-0.546470	-0.121896	-0.989821	0.073451
07096		-0.552185	0.007288	-0.833690	0.824365	-0.144619	-0.547273	-0.124556	-0.989461	0.073849
07097		-0.553002	0.008457	-0.833137	0.823459	-0.146753	-0.548068	-0.126901	-0.989137	0.074191
07098		-0.553770	0.009612	-0.832614	0.822610	-0.148647	-0.548832	-0.129041	-0.988844	0.074409
07099		-0.554525	0.010661	-0.832098	0.821805	-0.150289	-0.549591	-0.130914	-0.988585	0.074578
07100		-0.555343	0.011524	-0.831541	0.820999	-0.151704	-0.550405	-0.132491	-0.988359	0.074787
07101		-0.556100	0.012281	-0.831025	0.820277	-0.152846	-0.551166	-0.133787	-0.988174	0.074924
07102		-0.557002	0.012934	-0.830411	0.819496	-0.153749	-0.552075	-0.134815	-0.988025	0.075039
07103		-0.557924	0.013428	-0.829783	0.818701	-0.154741	-0.552977	-0.135827	-0.987864	0.075341
07104		-0.558958	0.013783	-0.829081	0.817828	-0.155830	-0.553962	-0.136831	-0.987688	0.075830
07105		-0.560016	0.014055	-0.828363	0.816950	-0.156876	-0.554962	-0.137751	-0.987518	0.076370
07106		-0.561137	0.014324	-0.827599	0.816052	-0.157738	-0.556037	-0.138508	-0.987377	0.076824
07107		-0.562319	0.014554	-0.826792	0.815146	-0.158373	-0.557185	-0.139051	-0.987272	0.077192
07108		-0.563655	0.014713	-0.825879	0.814188	-0.158665	-0.558502	-0.139255	-0.987223	0.077453
07109		-0.565102	0.014763	-0.824889	0.813232	-0.158455	-0.559952	-0.138974	-0.987256	0.077538
07110		-0.566808	0.014700	-0.823718	0.812185	-0.157682	-0.561686	-0.138143	-0.987380	0.077436
07111		-0.568685	0.014566	-0.822426	0.811090	-0.156425	-0.563617	-0.136858	-0.987582	0.077142
07112		-0.570769	0.014396	-0.820985	0.809904	-0.154755	-0.565779	-0.135197	-0.987848	0.076670
07113		-0.573043	0.014192	-0.819402	0.808604	-0.152894	-0.568140	-0.133345	-0.988141	0.076139
07114		-0.575495	0.013969	-0.817686	0.807190	-0.150871	-0.570686	-0.131337	-0.988455	0.075550
07115		-0.578088	0.013707	-0.815860	0.805699	-0.148587	-0.573385	-0.129086	-0.988804	0.074853
07116		-0.580906	0.013431	-0.813859	0.804068	-0.146015	-0.576328	-0.126577	-0.989191	0.074022
07117		-0.583899	0.013096	-0.811720	0.802356	-0.142967	-0.579470	-0.123638	-0.989641	0.072971
07118		-0.587211	0.012636	-0.809336	0.800443	-0.139557	-0.582937	-0.120314	-0.990133	0.071835
07119		-0.590759	0.012065	-0.806758	0.798390	-0.135659	-0.586660	-0.116522	-0.990682	0.070509
07120		-0.594544	0.011448	-0.803982	0.796206	-0.131059	-0.590660	-0.112131	-0.991308	0.068805
07121		-0.598499	0.010707	-0.801052	0.793925	-0.125815	-0.594855	-0.107154	-0.991996	0.066800
07122		-0.602635	0.009874	-0.797956	0.791486	-0.120270	-0.599237	-0.101887	-0.992692	0.064664
07123		-0.606915	0.008993	-0.794716	0.788891	-0.114545	-0.603763	-0.096461	-0.993377	0.062425
07124		-0.611312	0.008026	-0.791349	0.786148	-0.108734	-0.608398	-0.090929	-0.994039	0.060161
07125		-0.615848	0.006875	-0.787835	0.783257	-0.102650	-0.613165	-0.085087	-0.994694	0.057832
07126		-0.620465	0.005712	-0.784214	0.780237	-0.096336	-0.618020	-0.079078	-0.995333	0.055316
07127		-0.625169	0.004269	-0.780477	0.777077	-0.090001	-0.622938	-0.072903	-0.995933	0.052949
07128		-0.630000	0.002593	-0.776591	0.773731	-0.083709	-0.627960	-0.066636	-0.996487	0.050730
07129		-0.634880	0.000698	-0.772610	0.770260	-0.077372	-0.633019	-0.060220	-0.997002	0.048585
07130		-0.639929	-0.001328	-0.768433	0.766561	-0.070879	-0.638247	-0.053618	-0.997484	0.046375
07131		-0.645141	-0.003446	-0.764055	0.762639	-0.063936	-0.643657	-0.046633	-0.997948	0.043876
07132		-0.650664	-0.005540	-0.759346	0.758346	-0.056554	-0.649394	-0.039346	-0.998384	0.040999
07133		-0.656412	-0.007690	-0.754363	0.753743	-0.048487	-0.655378	-0.031537	-0.998794	0.037623
07134		-0.662434	-0.009842	-0.749056	0.748756	-0.039880	-0.661645	-0.023360	-0.999156	0.033787
07135		-0.668679	-0.012161	-0.743452	0.743401	-0.030997	-0.668127	-0.014919	-0.999445	0.029768
07136		-0.675114	-0.014766	-0.737566	0.737685	-0.022350	-0.674775	-0.006521	-0.999641	0.025982
07137		-0.681537	-0.017713	-0.731569	0.731781	-0.013859	-0.681399	0.001931	-0.999747	0.022407
07138		-0.687953	-0.020966	-0.725452	0.725680	-0.005490	-0.688011	0.010442	-0.999765	0.018992
07139		-0.694296	-0.024605	-0.719268	0.719437	0.002714	-0.694552	0.019042	-0.999694	0.015818
07140		-0.700735	-0.028571	-0.712849	0.712887	0.010619	-0.701198	0.027603	-0.999535	0.012927
07141		-0.707182	-0.032861	-0.706267	0.706102	0.018385	-0.707872	0.036246	-0.999291	0.010201
07142		-0.713674	-0.037383	-0.699480	0.699027	0.026223	-0.714614	0.045057	-0.998957	0.007417
07143		-0.720151	-0.042073	-0.692540	0.691709	0.034217	-0.721365	0.054047	-0.998528	0.004461
07144		-0.726578	-0.046951	-0.685478	0.684172	0.042327	-0.728092	0.063199	-0.998000	0.001369
07145		-0.732930	-0.051963	-0.678316	0.676425	0.050656	-0.734767	0.072542	-0.997363	-0.001978
07146		-0.739260	-0.057169	-0.670990	0.668407	0.059067	-0.741447	0.082021	-0.996616	-0.005454
07147		-0.745543	-0.062493	-0.663521	0.660131	0.067607	-0.748102	0.091610	-0.995753	-0.009150
07148		-0.751876	-0.067899	-0.655799	0.651470	0.076380	-0.754820	0.101341	-0.994764	-0.013194
07149		-0.758167	-0.073465	-0.647909	0.642484	0.085500	-0.761514	0.111341	-0.993626	-0.017624
07150		-0.764381	-0.079226	-0.639879	0.633197	0.094914	-0.768149	0.121591	-0.992328	-0.022385
07151		-0.770443	-0.085108	-0.631803	0.623710	0.104458	-0.774645	0.131925	-0.990881	-0.027396
07152		-0.776323	-0.091187	-0.623705	0.614096	0.113741	-0.780992	0.142157	-0.989317	-0.032302
07153		-0.782039	-0.097225	-0.615599	0.604366	0.122872	-0.787175	0.152173	-0.987649	-0.037332
07154		-0.787682	-0.103295	-0.607361	0.594369	0.132013	-0.793283	0.162122	-0.985851	-0.042589
07155		-0.793184	-0.109418	-0.599071	0.584188	0.141123	-0.799255	0.171996	-0.983927	-0.048016
07156		-0.798589	-0.115610	-0.590669	0.573714	0.150467	-0.805116	0.181956	-0.981832	-0.053834
07157		-0.803879	-0.121856	-0.582177	0.562963	0.160019	-0.810843	0.191966	-0.979564	-0.060035
07158		-0.809071	-0.128345	-0.573525	0.551924	0.169399	-0.816507	0.201949	-0.977155	-0.066219
07159		-0.814101	-0.135201	-0.564765	0.540675	0.178431	-0.822091	0.211919	-0.974619	-0.072161
07160		-0.818912	-0.142665	-0.555904	0.529204	0.187127	-0.827603	0.222094	-0.971921	-0.077742
07161		-0.823342	-0.150718	-0.547168	0.517794	0.195256	-0.832925	0.232375	-0.969102	-0.082722
07162		-0.827516	-0.159209	-0.538396	0.506280	0.202913	-0.838157	0.242689	-0.966167	-0.087309
07163		-0.831411	-0.167980	-0.529658	0.494804	0.209909	-0.843272	0.252833	-0.963183	-0.091404
07164		-0.835161	-0.177013	-0.520743	0.483065	0.216613	-0.848367	0.262972	-0.960075	-0.095398
07165		-0.838751	-0.186280	-0.511661	0.470970	0.223419	-0.853388	0.273284	-0.956757	-0.099661
07166		-0.842217	-0.195736	-0.502352	0.458283	0.230883	-0.858295	0.283984	-0.953090	-0.104751
07167		-0.845439	-0.205307	-0.493034	0.445132	0.239231	-0.862917	0.295112	-0.949009	-0.110867
07168		-0.848472	-0.214915	-0.483639	0.431481	0.248263	-0.867289	0.306463	-0.944551	-0.117913
07169		-0.851289	-0.224492	-0.474247	0.417471	0.257729	-0.871375	0.317844	-0.939776	-0.125683
07170		-0.853878	-0.234103	-0.464853	0.403241	0.267134	-0.875235	0.329073	-0.934792	-0.133700
07171		-0.856208	-0.243714	-0.455534	0.388982	0.276177	-0.878874	0.340002	-0.929694	-0.141665
07172		-0.858362	-0.253418	-0.446087	0.374532	0.284713	-0.882419	0.350628	-0.924509	-0.149474
07173		-0.860232	-0.263339	-0.436640	0.360068	0.292610	-0.885850	0.361044	-0.919256	-0.156893
07174		-0.861762	-0.273668	-0.427167	0.345737	0.299383	-0.889289	0.371256	-0.914044	-0.163380
07175		-0.862864	-0.284277	-0.417913	0.331753	0.305256	-0.892613	0.381320	-0.908848	-0.169085
07176		-0.863518	-0.295253	-0.408856	0.318029	0.310388	-0.895833	0.391401	-0.903596	-0.174127
07177		-0.863818	-0.306434	-0.399896	0.304434	0.314959	-0.898956	0.401421	-0.898276	-0.178778
07178		-0.863846	-0.317920	-0.390765	0.290682	0.318954	-0.902093	0.411429	-0.892858	-0.183113
07179		-0.863618	-0.329674	-0.381417	0.276721	0.322423	-0.905245	0.421413	-0.887332	-0.187223
07180		-0.863132	-0.341740	-0.371775	0.262312	0.325679	-0.908364	0.431504	-0.881559	-0.191461
07181		-0.862154	-0.354175	-0.362286	0.247907	0.328713	-0.911312	0.441852	-0.875504	-0.195599
07182		-0.860644	-0.366959	-0.353034	0.233565	0.331581	-0.914057	0.452482	-0.869134	-0.199664
07183		-0.858656	-0.379880	-0.344093	0.219324	0.334450	-0.916537	0.463256	-0.862458	-0.203861
07184		-0.856187	-0.393086	-0.335301	0.205167	0.336941	-0.918900	0.474183	-0.855543	-0.207837
07185		-0.853146	-0.406646	-0.326772	0.191334	0.338826	-0.921188	0.485317	-0.848431	-0.211263
07186		-0.849504	-0.420521	-0.318600	0.177849	0.340284	-0.923351	0.496703	-0.841053	-0.214283
07187		-0.845308	-0.434517	-0.310883	0.164566	0.341833	-0.925239	0.508303	-0.833274	-0.217448
07188		-0.840605	-0.448668	-0.303447	0.151397	0.343273	-0.926953	0.520059	-0.825143	-0.220630
07189		-0.835404	-0.462916	-0.296326	0.138460	0.344502	-0.928519	0.531911	-0.816718	-0.223703
07190		-0.829716	-0.477379	-0.289277	0.125451	0.345506	-0.929993	0.543906	-0.807920	-0.226784
07191		-0.823448	-0.491983	-0.282643	0.112684	0.346419	-0.931287	0.556090	-0.798715	-0.229820
07192		-0.816630	-0.506694	-0.276363	0.100001	0.347371	-0.932380	0.568432	-0.789047	-0.233004
07193		-0.809303	-0.521365	-0.270567	0.087520	0.348453	-0.933231	0.580834	-0.778947	-0.236375
07194		-0.801402	-0.536146	-0.265145	0.075335	0.349284	-0.933984	0.593363	-0.768471	-0.239526
07195		-0.792979	-0.550926	-0.260126	0.063558	0.349826	-0.934656	0.605925	-0.757695	-0.242389
07196		-0.783978	-0.565805	-0.255427	0.052277	0.349823	-0.935356	0.618583	-0.746652	-0.244675
07197		-0.774267	-0.580812	-0.251335	0.041716	0.349438	-0.936030	0.631483	-0.735222	-0.246330
07198		-0.763971	-0.595767	-0.247810	0.031772	0.348853	-0.936639	0.644468	-0.723439	-0.247585
07199		-0.753167	-0.610578	-0.244813	0.022342	0.348195	-0.937156	0.657450	-0.711305	-0.248608
07200		-0.741891	-0.625260	-0.242173	0.013207	0.347475	-0.937596	0.670390	-0.698793	-0.249531
07202		-0.717969	-0.654113	-0.238028	-0.004426	0.346240	-0.938135	0.696061	-0.672498	-0.251485
07204		-0.692249	-0.682210	-0.235332	-0.022144	0.346025	-0.937964	0.721319	-0.644094	-0.254643
07205		-0.678637	-0.695953	-0.234737	-0.030636	0.346143	-0.937682	0.733835	-0.629154	-0.256226
07206		-0.664504	-0.709531	-0.234522	-0.038630	0.346028	-0.937429	0.746286	-0.613865	-0.257346
07207		-0.649866	-0.722878	-0.234781	-0.045918	0.345680	-0.937228	0.758661	-0.598292	-0.257839
07208		-0.634620	-0.736114	-0.235357	-0.052595	0.344973	-0.937138	0.771032	-0.582348	-0.257642
07209		-0.618934	-0.749053	-0.236306	-0.058948	0.344308	-0.937004	0.783228	-0.566014	-0.257259
07210		-0.602861	-0.761718	-0.237367	-0.065283	0.343607	-0.936842	0.795171	-0.549290	-0.256875
07211		-0.586392	-0.774073	-0.238655	-0.071615	0.343014	-0.936596	0.806856	-0.532121	-0.256576
07212		-0.569469	-0.786184	-0.240040	-0.078100	0.342441	-0.936288	0.818294	-0.514440	-0.256411
07213		-0.552213	-0.797923	-0.241619	-0.084830	0.342087	-0.935831	0.829376	-0.496282	-0.256593
07214		-0.534492	-0.809392	-0.243316	-0.091761	0.341760	-0.935297	0.840177	-0.477582	-0.256938
07215		-0.516294	-0.820560	-0.245197	-0.098553	0.341331	-0.934762	0.850722	-0.458447	-0.257096
07216		-0.497516	-0.831495	-0.247173	-0.105180	0.340662	-0.934284	0.861055	-0.438823	-0.256941
07217		-0.478242	-0.842057	-0.249449	-0.111487	0.339949	-0.933812	0.871123	-0.418778	-0.256456
07218		-0.458562	-0.852256	-0.251756	-0.117655	0.339028	-0.933390	0.880840	-0.398397	-0.255737
07219		-0.438486	-0.862033	-0.254223	-0.123422	0.337944	-0.933039	0.890223	-0.377748	-0.254577
07220		-0.417818	-0.871480	-0.256809	-0.128887	0.336661	-0.932763	0.899342	-0.356626	-0.252985
07221		-0.396714	-0.880472	-0.259591	-0.134250	0.335407	-0.932459	0.908072	-0.335069	-0.251264
07222		-0.375088	-0.889074	-0.262406	-0.139971	0.334148	-0.932070	0.916361	-0.312879	-0.249779
07223		-0.353215	-0.897121	-0.265353	-0.145960	0.333006	-0.931559	0.924086	-0.290310	-0.248566
07224		-0.330983	-0.904692	-0.268297	-0.152150	0.331766	-0.931011	0.931290	-0.267327	-0.247458
07225		-0.308468	-0.911694	-0.271408	-0.158128	0.330498	-0.930466	0.938000	-0.244102	-0.246112
07226		-0.285622	-0.918195	-0.274478	-0.163963	0.329006	-0.929985	0.944212	-0.220620	-0.244522
07227		-0.262563	-0.924108	-0.277643	-0.169508	0.327438	-0.929544	0.949909	-0.197001	-0.242617
07228		-0.239259	-0.929481	-0.280750	-0.174895	0.325675	-0.929165	0.955074	-0.173209	-0.240482
07229		-0.215748	-0.934236	-0.284001	-0.180234	0.323955	-0.928746	0.959671	-0.149189	-0.238274
07230		-0.192105	-0.938369	-0.287330	-0.185636	0.322244	-0.928277	0.963657	-0.124988	-0.236100
07231		-0.168524	-0.941800	-0.290881	-0.191445	0.320756	-0.927612	0.966927	-0.100638	-0.234358
07232		-0.144967	-0.944594	-0.294492	-0.197580	0.319278	-0.926835	0.969508	-0.076175	-0.232918
07233		-0.121572	-0.946697	-0.298305	-0.203535	0.317925	-0.926012	0.971490	-0.051862	-0.231337
07234		-0.098238	-0.948162	-0.302222	-0.209158	0.316580	-0.925219	0.972935	-0.027680	-0.229415
07235		-0.075028	-0.948941	-0.306402	-0.214510	0.315433	-0.924385	0.973836	-0.003628	-0.227223
07236		-0.051897	-0.949112	-0.310635	-0.219822	0.314282	-0.923529	0.974159	0.020356	-0.224946
07237		-0.028909	-0.948651	-0.315000	-0.224744	0.313232	-0.922700	0.973989	0.044120	-0.222259
07238		-0.006014	-0.947606	-0.319386	-0.229359	0.312184	-0.921919	0.973323	0.067710	-0.219219
07239		0.016514	-0.945959	-0.323866	-0.234099	0.311249	-0.921044	0.972073	0.091027	-0.216308
07240		0.038794	-0.943813	-0.328195	-0.239145	0.310128	-0.920125	0.970209	0.114181	-0.213677
07241		0.060799	-0.941122	-0.332555	-0.244627	0.308961	-0.919076	0.967709	0.137231	-0.211439
07242		0.082584	-0.937896	-0.336944	-0.250849	0.307650	-0.917838	0.964497	0.160321	-0.209863
07243		0.103766	-0.934135	-0.341504	-0.257718	0.306378	-0.916359	0.960632	0.183098	-0.208952
07244		0.124249	-0.929918	-0.346142	-0.264933	0.305090	-0.914730	0.956228	0.205358	-0.208459
07245		0.143824	-0.925322	-0.350847	-0.272027	0.303908	-0.913039	0.951481	0.226757	-0.208003
07246		0.162695	-0.920360	-0.355622	-0.279044	0.302790	-0.911291	0.946396	0.247497	-0.207559
07247		0.180928	-0.915016	-0.360571	-0.285944	0.301844	-0.909465	0.941011	0.267651	-0.207032
07248		0.198665	-0.909232	-0.365828	-0.292447	0.301267	-0.907586	0.935418	0.287291	-0.206051
07249		0.215779	-0.902974	-0.371587	-0.298156	0.301446	-0.905667	0.929808	0.306215	-0.204182
07250		0.232269	-0.896329	-0.377685	-0.302856	0.302354	-0.903803	0.924299	0.324309	-0.201231
07251		0.247898	-0.889388	-0.384103	-0.306719	0.304031	-0.901936	0.918951	0.341400	-0.197424
07252		0.262653	-0.882280	-0.390635	-0.310382	0.306076	-0.899989	0.913606	0.357631	-0.193452
07253		0.276177	-0.875169	-0.397248	-0.314647	0.308217	-0.897775	0.908143	0.372938	-0.190247
07254		0.288796	-0.868049	-0.403842	-0.320086	0.309998	-0.895235	0.902298	0.387805	-0.188324
07255		0.300465	-0.861004	-0.410357	-0.326453	0.311416	-0.892439	0.896186	0.402110	-0.187508
07256		0.311306	-0.854075	-0.416706	-0.333505	0.312417	-0.889477	0.889867	0.415874	-0.187581
07257		0.321296	-0.847283	-0.422942	-0.341000	0.313145	-0.886374	0.883452	0.429012	-0.188311
07258		0.330646	-0.840560	-0.429106	-0.348248	0.313923	-0.883275	0.877152	0.441487	-0.188926
07259		0.339201	-0.833970	-0.435242	-0.354763	0.315105	-0.880257	0.871255	0.452992	-0.188978
07260		0.347000	-0.827536	-0.441334	-0.360377	0.316795	-0.877365	0.865863	0.463492	-0.188297
07261		0.353887	-0.821379	-0.447326	-0.365269	0.318918	-0.874568	0.861012	0.472892	-0.187164
07262		0.359801	-0.815557	-0.453222	-0.369809	0.321316	-0.871778	0.856612	0.481273	-0.185990
07263		0.364509	-0.810302	-0.458851	-0.374236	0.323736	-0.868989	0.852690	0.488473	-0.185239
07264		0.368169	-0.805652	-0.464088	-0.378704	0.325923	-0.866232	0.849138	0.494671	-0.185109
07265		0.370739	-0.801721	-0.468825	-0.383466	0.327621	-0.863492	0.845876	0.499909	-0.185971
07266		0.372250	-0.798594	-0.472946	-0.388619	0.328637	-0.860798	0.842855	0.504228	-0.188014
07267		0.372710	-0.796310	-0.476421	-0.394043	0.329009	-0.858186	0.840129	0.507585	-0.191156
07268		0.372123	-0.794922	-0.479191	-0.399487	0.328838	-0.855731	0.837816	0.509867	-0.195192
07269		0.370730	-0.794247	-0.481384	-0.404722	0.328356	-0.853453	0.835918	0.511227	-0.199718
07270		0.368623	-0.794158	-0.483146	-0.409094	0.328117	-0.851458	0.834721	0.511520	-0.203934
07271		0.365911	-0.794636	-0.484420	-0.412347	0.328205	-0.849854	0.834314	0.510720	-0.207572
07272		0.362592	-0.795670	-0.485219	-0.414317	0.328743	-0.848687	0.834787	0.508761	-0.210460
07273		0.358761	-0.797186	-0.485576	-0.414985	0.329751	-0.847969	0.836109	0.505725	-0.212519
07274		0.354324	-0.799259	-0.485428	-0.414847	0.330878	-0.847597	0.838067	0.501702	-0.214332
07275		0.349354	-0.801853	-0.484751	-0.414216	0.331887	-0.847512	0.840463	0.496873	-0.216194
07276		0.343829	-0.804920	-0.483616	-0.413474	0.332629	-0.847583	0.843102	0.491387	-0.218446
07277		0.337807	-0.808510	-0.481870	-0.412753	0.332859	-0.847844	0.845885	0.485301	-0.221272
07278		0.331186	-0.812546	-0.479671	-0.412176	0.332710	-0.848183	0.848780	0.478615	-0.224723
07279		0.324059	-0.816939	-0.477070	-0.411753	0.332217	-0.848582	0.851731	0.471425	-0.228719
07280		0.316298	-0.821674	-0.474139	-0.411436	0.331530	-0.849004	0.854796	0.463616	-0.233204
07281		0.307965	-0.826671	-0.470926	-0.411014	0.330808	-0.849490	0.858036	0.455171	-0.237896
07282		0.298927	-0.831907	-0.467519	-0.410194	0.330333	-0.850071	0.861617	0.445883	-0.242498
07283		0.289295	-0.837296	-0.463944	-0.408742	0.330211	-0.850817	0.865586	0.435770	-0.246710
07284		0.278928	-0.842792	-0.460327	-0.406757	0.330541	-0.851640	0.869912	0.424788	-0.250614
07285		0.267967	-0.848366	-0.456584	-0.404530	0.331037	-0.852508	0.874385	0.413146	-0.254483
07286		0.256514	-0.853881	-0.452866	-0.402212	0.331745	-0.853329	0.878878	0.401039	-0.258343
07287		0.244549	-0.859365	-0.449097	-0.400071	0.332473	-0.854052	0.883255	0.388528	-0.262501
07288		0.231862	-0.864792	-0.445393	-0.398297	0.333328	-0.854548	0.887468	0.375536	-0.267157
07289		0.218538	-0.870125	-0.441727	-0.396895	0.334279	-0.854829	0.891468	0.362132	-0.272296
07290		0.204556	-0.875291	-0.438204	-0.395818	0.335472	-0.854861	0.895257	0.348315	-0.277833
07291		0.189971	-0.880308	-0.434705	-0.395022	0.336814	-0.854701	0.898815	0.334086	-0.283756
07292		0.174732	-0.885099	-0.431356	-0.394405	0.338495	-0.854322	0.902172	0.319406	-0.289942
07293		0.158971	-0.889687	-0.428001	-0.393686	0.340432	-0.853884	0.905395	0.304241	-0.296138
07295		0.125543	-0.898023	-0.421656	-0.391513	0.345677	-0.852775	0.911568	0.272144	-0.308190
07296		0.108435	-0.901654	-0.418642	-0.389558	0.348904	-0.852356	0.914596	0.255511	-0.313413
07297		0.091189	-0.904911	-0.415717	-0.387183	0.352394	-0.852003	0.917483	0.238651	-0.318231
07298		0.073905	-0.907806	-0.412826	-0.384603	0.355990	-0.851676	0.920119	0.221718	-0.322836
07299		0.056489	-0.910297	-0.410084	-0.382314	0.359710	-0.851143	0.922304	0.204861	-0.327700
07300		0.038917	-0.912466	-0.407298	-0.380554	0.363355	-0.850383	0.923939	0.188093	-0.333102
07301		0.020880	-0.914379	-0.404320	-0.379094	0.366968	-0.849484	0.925123	0.171013	-0.338973
07302		0.002447	-0.916115	-0.400908	-0.377961	0.370323	-0.848532	0.925818	0.153604	-0.345349
07303		-0.016443	-0.917626	-0.397104	-0.377042	0.373528	-0.847536	0.926050	0.135789	-0.352125
07304		-0.035991	-0.918997	-0.392618	-0.376135	0.376440	-0.846649	0.925865	0.117205	-0.359216
07305		-0.056405	-0.920173	-0.387427	-0.375200	0.379138	-0.845860	0.925226	0.097652	-0.366634
07306		-0.077489	-0.921160	-0.381393	-0.373721	0.381488	-0.845458	0.924299	0.077021	-0.373817
07307		-0.099188	-0.921855	-0.374626	-0.371320	0.383578	-0.845571	0.923192	0.055235	-0.380350
07308		-0.121153	-0.922278	-0.367049	-0.368260	0.385146	-0.846196	0.921795	0.032651	-0.386299
07309		-0.143337	-0.922290	-0.358938	-0.364595	0.386385	-0.847218	0.920068	0.009429	-0.391645
07310		-0.165585	-0.921940	-0.350156	-0.360853	0.387076	-0.848503	0.917806	-0.014144	-0.396778
07311		-0.188128	-0.921111	-0.340825	-0.357405	0.387434	-0.849798	0.914806	-0.038058	-0.402097
07312		-0.211076	-0.919832	-0.330691	-0.354557	0.387321	-0.851042	0.910899	-0.062386	-0.407887
07313		-0.234666	-0.917896	-0.319999	-0.352341	0.387123	-0.852052	0.905973	-0.087199	-0.414257
07314		-0.258822	-0.915271	-0.308690	-0.350381	0.386775	-0.853017	0.900136	-0.112620	-0.420799
07315		-0.283473	-0.911806	-0.297075	-0.348666	0.386576	-0.853810	0.893351	-0.138452	-0.427499
07316		-0.308457	-0.907519	-0.285066	-0.347238	0.386423	-0.854461	0.885596	-0.164579	-0.434320
07317		-0.333735	-0.902316	-0.272848	-0.346332	0.386565	-0.854764	0.876741	-0.190769	-0.441512
07318		-0.359014	-0.896294	-0.260317	-0.345974	0.386842	-0.854784	0.866840	-0.216817	-0.448976
07319		-0.384291	-0.889350	-0.247743	-0.346052	0.387546	-0.854433	0.855902	-0.242619	-0.456691
07320		-0.409234	-0.881658	-0.234961	-0.346556	0.388406	-0.853838	0.844054	-0.267993	-0.464492
07321		-0.433893	-0.873107	-0.222306	-0.346867	0.389605	-0.853165	0.831517	-0.293072	-0.471899
07322		-0.458062	-0.863864	-0.209566	-0.346995	0.390817	-0.852559	0.818397	-0.317807	-0.478775
07323		-0.482065	-0.853765	-0.196721	-0.346833	0.392151	-0.852012	0.804562	-0.342496	-0.485157
07324		-0.506026	-0.842804	-0.183352	-0.346749	0.393426	-0.851458	0.789748	-0.367283	-0.491325
07325		-0.529996	-0.830852	-0.169675	-0.346569	0.394839	-0.850877	0.773947	-0.392157	-0.497210
07326		-0.553847	-0.817976	-0.155464	-0.346720	0.396335	-0.850120	0.756993	-0.416934	-0.503118
07327		-0.577326	-0.804267	-0.140888	-0.347315	0.398050	-0.849075	0.738963	-0.441261	-0.509138
07328		-0.600462	-0.789663	-0.126005	-0.348324	0.400130	-0.847683	0.719802	-0.465111	-0.515322
07329		-0.623090	-0.774267	-0.110765	-0.350898	0.403286	-0.845122	0.699020	-0.487720	-0.522972
07330		-0.645355	-0.757935	-0.095139	-0.354521	0.407502	-0.841580	0.676632	-0.509389	-0.531687
07331		-0.667075	-0.740730	-0.079556	-0.357309	0.411814	-0.838295	0.653713	-0.530780	-0.539381
07332		-0.688159	-0.722779	-0.063461	-0.359705	0.415815	-0.835290	0.630118	-0.551986	-0.546134
07333		-0.708741	-0.703886	-0.047225	-0.361022	0.419395	-0.832929	0.606093	-0.573282	-0.551361
07334		-0.728745	-0.684106	-0.030489	-0.361746	0.422390	-0.831100	0.581439	-0.594630	-0.555287
07335		-0.747990	-0.663573	-0.013511	-0.362145	0.425106	-0.829540	0.556204	-0.615594	-0.558284
07336		-0.766345	-0.642417	0.004032	-0.362680	0.427448	-0.828101	0.530262	-0.636073	-0.560564
07337		-0.783790	-0.620639	0.021932	-0.363633	0.430022	-0.826348	0.503433	-0.655658	-0.562732
07338		-0.800249	-0.598286	0.040679	-0.365573	0.432955	-0.823958	0.475350	-0.674243	-0.565189
07339		-0.815718	-0.575335	0.059947	-0.368396	0.436808	-0.820660	0.445969	-0.691511	-0.568264
07340		-0.830037	-0.551948	0.079950	-0.372021	0.441159	-0.816688	0.415499	-0.707624	-0.571515
07341		-0.843129	-0.528307	0.100126	-0.375755	0.445679	-0.812513	0.384633	-0.722676	-0.574279
07342		-0.854920	-0.504509	0.120755	-0.379612	0.449770	-0.808457	0.353562	-0.737006	-0.576035
07343		-0.865415	-0.480677	0.141443	-0.383446	0.453636	-0.804477	0.322530	-0.750442	-0.576898
07344		-0.874684	-0.456610	0.162592	-0.387504	0.457270	-0.800465	0.291152	-0.763159	-0.576905
07345		-0.882831	-0.432262	0.183738	-0.391526	0.461178	-0.796255	0.259455	-0.774897	-0.576384
07346		-0.889846	-0.407585	0.205058	-0.395686	0.465603	-0.791610	0.227173	-0.785549	-0.575591
07347		-0.895720	-0.382787	0.226184	-0.399617	0.470094	-0.786968	0.194914	-0.795290	-0.574041
07348		-0.900354	-0.357898	0.247532	-0.403568	0.473963	-0.782619	0.162776	-0.804530	-0.571170
07349		-0.903785	-0.333055	0.268788	-0.407467	0.477468	-0.778456	0.130931	-0.813080	-0.567238
07350		-0.905991	-0.308140	0.290223	-0.411507	0.480468	-0.774476	0.099204	-0.821097	-0.562101
07351		-0.907081	-0.283051	0.311587	-0.415480	0.482992	-0.770775	0.067675	-0.828614	-0.555715
07352		-0.907067	-0.257327	0.333184	-0.419449	0.484857	-0.767448	0.035938	-0.835881	-0.547733
07353		-0.905978	-0.231222	0.354598	-0.423301	0.486078	-0.764555	0.004419	-0.842772	-0.538253
07354		-0.903703	-0.205164	0.375804	-0.427346	0.486279	-0.762173	-0.026375	-0.849377	-0.527128
07355		-0.900255	-0.179463	0.396654	-0.431733	0.485422	-0.760245	-0.056108	-0.855662	-0.514484
07356		-0.895519	-0.154157	0.417470	-0.436839	0.483582	-0.758498	-0.084954	-0.861617	-0.500399
07357		-0.889600	-0.129223	0.438079	-0.442500	0.481473	-0.756556	-0.113159	-0.866882	-0.485500
07358		-0.882351	-0.104741	0.458788	-0.449000	0.479303	-0.754101	-0.140913	-0.871377	-0.469942
07359		-0.873883	-0.080625	0.479404	-0.456145	0.477006	-0.751264	-0.168108	-0.875194	-0.453625
07360		-0.864124	-0.056854	0.500057	-0.464028	0.474693	-0.747894	-0.194853	-0.878313	-0.436575
07361		-0.853383	-0.033915	0.520180	-0.472383	0.472288	-0.744177	-0.220436	-0.880792	-0.419063
07362		-0.841558	-0.011685	0.540040	-0.481543	0.469200	-0.740248	-0.244738	-0.883014	-0.400486
07363		-0.829075	0.009772	0.559052	-0.490981	0.465673	-0.736265	-0.267530	-0.884903	-0.381280
07364		-0.815868	0.030804	0.577418	-0.500850	0.461404	-0.732295	-0.288980	-0.886655	-0.361017
07365		-0.802096	0.051388	0.594980	-0.511186	0.456014	-0.728519	-0.308756	-0.888488	-0.339499
07366		-0.787745	0.071309	0.611861	-0.522102	0.449833	-0.724610	-0.326907	-0.890261	-0.317123
07367		-0.773027	0.090560	0.627876	-0.533315	0.443188	-0.720527	-0.343517	-0.891843	-0.294299
07368		-0.757723	0.109011	0.643407	-0.545093	0.436351	-0.715871	-0.358789	-0.893148	-0.271212
07369		-0.741904	0.126813	0.658405	-0.557339	0.429275	-0.710701	-0.372763	-0.894227	-0.247803
07370		-0.725711	0.143626	0.672841	-0.570045	0.422047	-0.704929	-0.385216	-0.895125	-0.224411
07371		-0.709579	0.159238	0.686398	-0.582925	0.414593	-0.698793	-0.395850	-0.895966	-0.201363
07372		-0.693359	0.173912	0.699291	-0.595821	0.407434	-0.692095	-0.405278	-0.896522	-0.178878
07373		-0.677202	0.187670	0.711461	-0.608445	0.400893	-0.684894	-0.413754	-0.896696	-0.157299
07374		-0.661010	0.200477	0.723101	-0.620906	0.394986	-0.677098	-0.421357	-0.896546	-0.136612
07375		-0.644816	0.212088	0.734323	-0.633330	0.389602	-0.668658	-0.427908	-0.896230	-0.116900
07376		-0.628375	0.222533	0.745402	-0.645932	0.384706	-0.659373	-0.433493	-0.895813	-0.097999
07377		-0.611989	0.231547	0.756211	-0.658612	0.380143	-0.649401	-0.437835	-0.895476	-0.080144
07378		-0.595315	0.239816	0.766869	-0.671653	0.375312	-0.638767	-0.441002	-0.895338	-0.062355
07379		-0.578705	0.247194	0.777171	-0.684596	0.370638	-0.627659	-0.443203	-0.895278	-0.045262
07380		-0.561932	0.253880	0.787259	-0.697558	0.366071	-0.615958	-0.444573	-0.895286	-0.028611
07381		-0.545200	0.259469	0.797140	-0.710298	0.362050	-0.603652	-0.445234	-0.895319	-0.013089
07382		-0.528401	0.263751	0.806987	-0.723117	0.358236	-0.590567	-0.444854	-0.895602	0.001430
07383		-0.511755	0.266729	0.816677	-0.735999	0.354250	-0.576899	-0.443184	-0.896305	0.015023
07384		-0.495129	0.268675	0.826233	-0.748704	0.350521	-0.562652	-0.440782	-0.897189	0.027605
07385		-0.478514	0.269918	0.835565	-0.760658	0.347957	-0.548019	-0.438661	-0.897814	0.038813
07386		-0.461746	0.270801	0.844664	-0.771583	0.347111	-0.533079	-0.437551	-0.897876	0.048668
07387		-0.444741	0.271725	0.853447	-0.781821	0.347127	-0.517936	-0.436991	-0.897590	0.058059
07388		-0.427440	0.272447	0.862014	-0.791448	0.348062	-0.502457	-0.436927	-0.897009	0.066851
07389		-0.410025	0.273177	0.870203	-0.800707	0.349055	-0.486856	-0.436747	-0.896401	0.075613
07390		-0.392699	0.273752	0.877979	-0.809365	0.350460	-0.471282	-0.436711	-0.895677	0.083940
07391		-0.375466	0.274428	0.885277	-0.817506	0.351991	-0.455837	-0.436704	-0.894869	0.092186
07392		-0.358286	0.275398	0.892069	-0.825340	0.353202	-0.440525	-0.436401	-0.894094	0.100750
07393		-0.341644	0.276655	0.898188	-0.832969	0.353463	-0.425708	-0.435250	-0.893603	0.109687
07394		-0.325459	0.278618	0.903575	-0.840372	0.352792	-0.411477	-0.433419	-0.893258	0.119323
07395		-0.309623	0.281417	0.908261	-0.847166	0.352120	-0.397897	-0.431791	-0.892646	0.129382
07396		-0.294081	0.285148	0.912254	-0.853361	0.351524	-0.384974	-0.430454	-0.891696	0.139958
07397		-0.279394	0.289346	0.915543	-0.858992	0.350738	-0.372983	-0.429037	-0.890653	0.150552
07398		-0.266030	0.293476	0.918205	-0.864343	0.349092	-0.362002	-0.426777	-0.889948	0.160795
07399		-0.254399	0.297675	0.920147	-0.869262	0.346627	-0.352467	-0.423868	-0.889516	0.170576
07400		-0.244188	0.301695	0.921603	-0.873429	0.344467	-0.344187	-0.421301	-0.889001	0.179394
07401		-0.234817	0.306010	0.922615	-0.877023	0.342590	-0.336843	-0.419156	-0.888251	0.187932
07402		-0.225854	0.310318	0.923414	-0.879732	0.342155	-0.330153	-0.418403	-0.886923	0.195719
07403		-0.216944	0.314725	0.924058	-0.881748	0.343004	-0.323834	-0.418875	-0.885040	0.203096
07404		-0.208403	0.319253	0.924471	-0.883005	0.345031	-0.318207	-0.420559	-0.882628	0.209996
07405		-0.200512	0.323693	0.924672	-0.883495	0.348121	-0.313447	-0.423358	-0.879792	0.216179
07406		-0.193384	0.327632	0.924803	-0.883976	0.350764	-0.309112	-0.425663	-0.877281	0.221786
07407		-0.186957	0.330909	0.924957	-0.884741	0.352491	-0.304934	-0.426944	-0.875357	0.226868
07408		-0.180666	0.334280	0.924995	-0.886266	0.352481	-0.300483	-0.426489	-0.874079	0.232579
07409		-0.175081	0.337771	0.924801	-0.889061	0.349310	-0.295895	-0.422987	-0.874010	0.239142
07410		-0.170843	0.340917	0.924439	-0.892874	0.343171	-0.291565	-0.416641	-0.875219	0.245768
07411		-0.168012	0.343244	0.924097	-0.896648	0.336319	-0.287943	-0.409626	-0.876968	0.251264
07412		-0.166280	0.344988	0.923761	-0.900203	0.329255	-0.285003	-0.402475	-0.878962	0.255811
07413		-0.164202	0.347514	0.923185	-0.903229	0.323221	-0.282323	-0.396504	-0.880206	0.260811
07414		-0.160703	0.350873	0.922530	-0.905247	0.320073	-0.279429	-0.393321	-0.880023	0.266190
07415		-0.156823	0.354065	0.921978	-0.906770	0.318320	-0.276480	-0.391376	-0.879380	0.271136
07416		-0.153759	0.356546	0.921538	-0.907848	0.317213	-0.274206	-0.390091	-0.878778	0.274915
07417		-0.150863	0.358976	0.921074	-0.908124	0.317803	-0.272601	-0.390577	-0.877575	0.278050
07418		-0.148255	0.361295	0.920590	-0.907851	0.319455	-0.271577	-0.392207	-0.876022	0.280642
07419		-0.145407	0.363507	0.920174	-0.907080	0.322384	-0.270693	-0.395048	-0.874032	0.282853
07420		-0.142926	0.366143	0.919517	-0.906602	0.324270	-0.270040	-0.397045	-0.872232	0.285599
07421		-0.141389	0.368447	0.918834	-0.906937	0.323848	-0.269419	-0.396830	-0.871418	0.288370
07422		-0.140676	0.370906	0.917954	-0.907463	0.322430	-0.269349	-0.395879	-0.870900	0.291225
07423		-0.140947	0.373234	0.916968	-0.907671	0.321114	-0.270221	-0.395307	-0.870392	0.293514
07424		-0.141907	0.375908	0.915727	-0.907027	0.321113	-0.272376	-0.396440	-0.869241	0.295391
07425		-0.143810	0.378589	0.914324	-0.905836	0.321667	-0.275666	-0.398472	-0.867871	0.296681
07426		-0.146468	0.381572	0.912661	-0.904740	0.321388	-0.279565	-0.399992	-0.866668	0.298150
07427		-0.149928	0.384890	0.910704	-0.903923	0.319815	-0.283974	-0.400555	-0.865782	0.299962
07428		-0.154368	0.388492	0.908430	-0.903334	0.316929	-0.289038	-0.400197	-0.865234	0.302014
07429		-0.159536	0.392764	0.905696	-0.902538	0.313679	-0.295010	-0.399967	-0.864490	0.304441
07430		-0.165590	0.397547	0.902517	-0.901440	0.310152	-0.302011	-0.399981	-0.863575	0.307006
07431		-0.172257	0.402845	0.898912	-0.900317	0.305893	-0.309611	-0.399696	-0.862639	0.309996
07432		-0.179710	0.408331	0.894969	-0.899441	0.300236	-0.317591	-0.398384	-0.862047	0.313314
07433		-0.187445	0.413968	0.890783	-0.898553	0.294090	-0.325751	-0.396821	-0.861476	0.316847
07434		-0.195899	0.419529	0.886351	-0.897554	0.287366	-0.334391	-0.394994	-0.861055	0.320256
07435		-0.204919	0.424922	0.881731	-0.896227	0.280643	-0.343534	-0.393427	-0.860628	0.323317
07436		-0.214249	0.430439	0.876824	-0.894368	0.274436	-0.353258	-0.392688	-0.859888	0.326173
07437		-0.223856	0.436358	0.871481	-0.892195	0.268143	-0.363438	-0.392271	-0.858889	0.329291
07438		-0.234160	0.442604	0.865604	-0.889753	0.261256	-0.374279	-0.391801	-0.857816	0.332632
07439		-0.245458	0.449095	0.859107	-0.887018	0.253479	-0.385938	-0.391088	-0.856774	0.336137
07440		-0.257426	0.456079	0.851894	-0.883921	0.245043	-0.398293	-0.390403	-0.855538	0.340058
07441		-0.269880	0.463648	0.843917	-0.880281	0.236380	-0.411376	-0.390218	-0.853906	0.344346
07442		-0.282660	0.471679	0.835238	-0.876173	0.227446	-0.424958	-0.390415	-0.851931	0.348983
07443		-0.295760	0.479895	0.825971	-0.871523	0.218465	-0.439000	-0.391119	-0.849691	0.353626
07444		-0.309613	0.487958	0.816111	-0.866099	0.209514	-0.453846	-0.392445	-0.847349	0.357752
07445		-0.324226	0.495805	0.805639	-0.860017	0.200234	-0.469338	-0.394016	-0.845035	0.361479
07446		-0.340084	0.503730	0.794103	-0.852984	0.190294	-0.486011	-0.395931	-0.842641	0.364958
07447		-0.357163	0.512267	0.781036	-0.844718	0.179694	-0.504144	-0.398604	-0.839817	0.368541
07448		-0.375380	0.521989	0.765909	-0.835500	0.167196	-0.523436	-0.401285	-0.836405	0.373360
07449		-0.394456	0.532629	0.748806	-0.824974	0.153663	-0.543881	-0.404750	-0.832283	0.378791
07450		-0.414288	0.543730	0.729879	-0.812995	0.139424	-0.565331	-0.409150	-0.827598	0.384288
07451		-0.434791	0.554616	0.709477	-0.799730	0.124384	-0.587334	-0.413993	-0.822757	0.389462
07452		-0.456189	0.564808	0.687666	-0.784835	0.108867	-0.610067	-0.419434	-0.818010	0.393617
07453		-0.478094	0.574001	0.664793	-0.768080	0.093883	-0.633435	-0.426005	-0.813455	0.395993
07454		-0.500197	0.581946	0.641204	-0.749634	0.079622	-0.657046	-0.433419	-0.809320	0.396420
07455		-0.522382	0.588603	0.616979	-0.729468	0.066223	-0.680801	-0.441580	-0.805706	0.394773
07456		-0.544463	0.595057	0.591158	-0.706340	0.054837	-0.705746	-0.452376	-0.801811	0.390456
07457		-0.566396	0.601631	0.563237	-0.680008	0.044941	-0.731826	-0.465602	-0.797509	0.383659
07458		-0.588390	0.608236	0.532772	-0.651257	0.034031	-0.758094	-0.479231	-0.793026	0.376095
07459		-0.609861	0.615098	0.499724	-0.620174	0.022174	-0.784151	-0.493411	-0.788139	0.367944
07460		-0.630760	0.621446	0.464700	-0.586414	0.010452	-0.809944	-0.508194	-0.783387	0.357832
07461		-0.651134	0.625933	0.429222	-0.551276	-0.001349	-0.834322	-0.521651	-0.779875	0.345940
07462		-0.671062	0.628094	0.393921	-0.515796	-0.013849	-0.856599	-0.532569	-0.778014	0.333262
07463		-0.690367	0.627867	0.359412	-0.480114	-0.025984	-0.876821	-0.541188	-0.777887	0.319386
07464		-0.709549	0.625218	0.325028	-0.442953	-0.037016	-0.895780	-0.548026	-0.779572	0.303207
07465		-0.727689	0.621749	0.289649	-0.402951	-0.045777	-0.914076	-0.555066	-0.781878	0.283846
07466		-0.744027	0.618366	0.253076	-0.358421	-0.049725	-0.932235	-0.563878	-0.784315	0.258633
07467		-0.758042	0.615375	0.216069	-0.310325	-0.048929	-0.949371	-0.573647	-0.786715	0.228056
07468		-0.770150	0.612099	0.179455	-0.260209	-0.044621	-0.964521	-0.582374	-0.789521	0.193639
07469		-0.781506	0.606824	0.144961	-0.210795	-0.038136	-0.976786	-0.587209	-0.793921	0.157719
07470		-0.793119	0.598569	0.112597	-0.164487	-0.032503	-0.985844	-0.586435	-0.800412	0.124235
07471		-0.805415	0.586915	0.082692	-0.122233	-0.027959	-0.992108	-0.579971	-0.809166	0.094259
07472		-0.818134	0.572406	0.054845	-0.082913	-0.023048	-0.996290	-0.569018	-0.819647	0.066316
07473		-0.830279	0.556596	0.028934	-0.045676	-0.016213	-0.998825	-0.555473	-0.830625	0.038885
07474		-0.841222	0.540676	0.003888	-0.008108	-0.005425	-0.999952	-0.540629	-0.841214	0.008947
07475		-0.850835	0.525054	-0.019957	0.029079	0.009130	-0.999535	-0.524627	-0.851020	-0.023036
07476		-0.859585	0.509207	-0.042675	0.064524	0.025316	-0.997595	-0.506902	-0.860272	-0.054618
07477		-0.868062	0.492336	-0.063825	0.096428	0.041094	-0.994491	-0.487001	-0.869435	-0.083147
07478		-0.876464	0.474053	-0.084174	0.125361	0.055895	-0.990535	-0.464861	-0.878721	-0.108417
07479		-0.884983	0.454007	-0.103359	0.150603	0.069052	-0.986180	-0.440595	-0.888318	-0.129485
07480		-0.893550	0.432215	-0.121486	0.172754	0.081238	-0.981609	-0.414397	-0.898104	-0.147257
07481		-0.902028	0.409035	-0.137970	0.192013	0.093929	-0.976887	-0.386621	-0.907672	-0.163266
07482		-0.910024	0.385233	-0.153138	0.209346	0.108207	-0.971836	-0.357813	-0.916453	-0.179118
07483		-0.917435	0.361357	-0.166536	0.224500	0.124557	-0.966481	-0.328502	-0.924071	-0.195398
07484		-0.924583	0.336611	-0.178436	0.237207	0.142122	-0.961007	-0.298126	-0.930857	-0.211250
07485		-0.931870	0.310145	-0.188222	0.245682	0.157739	-0.956430	-0.266942	-0.937512	-0.223190
07486		-0.939076	0.281900	-0.196645	0.250706	0.170415	-0.952946	-0.235124	-0.944188	-0.230707
07487		-0.946149	0.251743	-0.203537	0.252581	0.180778	-0.950538	-0.202496	-0.950760	-0.234629
07488		-0.952792	0.219931	-0.209329	0.252113	0.188877	-0.949086	-0.169196	-0.957056	-0.235408
07489		-0.958923	0.186739	-0.213531	0.249182	0.194807	-0.948661	-0.135555	-0.962901	-0.233337
07490		-0.964297	0.152525	-0.216488	0.244650	0.200131	-0.948733	-0.101380	-0.967824	-0.230301
07491		-0.968856	0.117716	-0.217856	0.238439	0.206077	-0.949041	-0.066822	-0.971430	-0.227727
07492		-0.972396	0.082510	-0.218262	0.231161	0.213208	-0.949267	-0.031789	-0.973517	-0.226395
07493		-0.974924	0.046977	-0.217525	0.222511	0.221343	-0.949472	0.003544	-0.974064	-0.226245
07494		-0.976303	0.011089	-0.216122	0.212822	0.230206	-0.949585	0.039222	-0.973079	-0.227111
07495		-0.976521	-0.025385	-0.213921	0.201895	0.238506	-0.949923	0.075136	-0.970809	-0.227781
07496		-0.975485	-0.062015	-0.211149	0.190160	0.245390	-0.950591	0.110765	-0.967439	-0.227581
07497		-0.973304	-0.098576	-0.207273	0.177445	0.249608	-0.951950	0.145576	-0.963316	-0.225453
07498		-0.969813	-0.135346	-0.202840	0.164413	0.251382	-0.953821	0.180087	-0.958378	-0.221541
07499		-0.965093	-0.172255	-0.197292	0.150466	0.251918	-0.955980	0.214374	-0.952295	-0.217206
07500		-0.959126	-0.208845	-0.190947	0.135862	0.252066	-0.958125	0.248231	-0.944906	-0.213389
07501		-0.951985	-0.244974	-0.183610	0.120505	0.251485	-0.960330	0.281431	-0.936346	-0.209889
07502		-0.943607	-0.280426	-0.175975	0.105093	0.250330	-0.962440	0.313945	-0.926659	-0.206743
07503		-0.934059	-0.315237	-0.167805	0.089402	0.248511	-0.964494	0.345746	-0.915897	-0.203941
07504		-0.923334	-0.349290	-0.159532	0.073791	0.246312	-0.966377	0.376840	-0.904061	-0.201654
07505		-0.911383	-0.382836	-0.151055	0.058384	0.243055	-0.968254	0.407397	-0.891269	-0.199164
07506		-0.898192	-0.415735	-0.142883	0.043748	0.238882	-0.970063	0.437421	-0.877553	-0.196374
07507		-0.883836	-0.447981	-0.134712	0.029741	0.233577	-0.971883	0.466851	-0.862992	-0.193120
07508		-0.868323	-0.479453	-0.127041	0.016643	0.227823	-0.973560	0.495720	-0.847479	-0.189845
07509		-0.851728	-0.510163	-0.119551	0.004075	0.221702	-0.975106	0.523968	-0.831012	-0.186751
07510		-0.834464	-0.539441	-0.112574	-0.007827	0.215868	-0.976391	0.551007	-0.813882	-0.184356
07511		-0.816227	-0.567931	-0.105958	-0.019630	0.210562	-0.977383	0.577398	-0.795687	-0.183015
07512		-0.797392	-0.595137	-0.099891	-0.031021	0.205735	-0.978116	0.602664	-0.776843	-0.182513
07513		-0.777503	-0.621779	-0.094235	-0.042500	0.201454	-0.978575	0.627442	-0.756840	-0.183057
07514		-0.757022	-0.647286	-0.089098	-0.053810	0.197662	-0.978792	0.651170	-0.736173	-0.184465
07515		-0.735475	-0.672282	-0.084341	-0.065172	0.194095	-0.978815	0.674410	-0.714398	-0.186566
07516		-0.713226	-0.696309	-0.080384	-0.075665	0.190496	-0.978768	0.696838	-0.692000	-0.188553
07517		-0.689907	-0.719771	-0.077185	-0.085500	0.186899	-0.978651	0.718831	-0.668579	-0.190484
07518		-0.665954	-0.742242	-0.074707	-0.094732	0.183477	-0.978449	0.739953	-0.644525	-0.192501
07519		-0.641047	-0.764042	-0.072783	-0.103693	0.180180	-0.978153	0.760464	-0.619495	-0.194730
07520		-0.615573	-0.784836	-0.071429	-0.112264	0.177041	-0.977780	0.780043	-0.593876	-0.197090
07521		-0.589112	-0.804965	-0.070559	-0.121187	0.174346	-0.977199	0.798912	-0.567129	-0.200260
07522		-0.562093	-0.824087	-0.070222	-0.130618	0.172289	-0.976348	0.816695	-0.539626	-0.204483
07523		-0.534024	-0.842544	-0.070266	-0.140985	0.170688	-0.975187	0.833632	-0.510866	-0.209938
07524		-0.505435	-0.859956	-0.070785	-0.151852	0.169404	-0.973778	0.849398	-0.481433	-0.216209
07525		-0.475789	-0.876623	-0.071817	-0.162840	0.168032	-0.972239	0.864354	-0.450886	-0.222697
07526		-0.445583	-0.892227	-0.073390	-0.173516	0.166496	-0.970655	0.878264	-0.419774	-0.229003
07527		-0.414814	-0.906776	-0.075411	-0.184002	0.164762	-0.969019	0.891107	-0.388087	-0.235194
07528		-0.383880	-0.920089	-0.077920	-0.193874	0.162817	-0.967421	0.902801	-0.356267	-0.240884
07529		-0.352404	-0.932363	-0.080691	-0.203476	0.160496	-0.965836	0.913460	-0.323946	-0.246273
07530		-0.320796	-0.943430	-0.083849	-0.213358	0.158233	-0.964075	0.922805	-0.291381	-0.252048
07531		-0.288937	-0.953371	-0.087169	-0.223367	0.155674	-0.962223	0.930926	-0.258551	-0.257932
07532		-0.256685	-0.962185	-0.091177	-0.232963	0.153152	-0.960350	0.937999	-0.225267	-0.263465
07533		-0.223965	-0.969909	-0.095482	-0.241961	0.150239	-0.958584	0.944084	-0.191586	-0.268328
07534		-0.190935	-0.976455	-0.100394	-0.250328	0.147331	-0.956885	0.949147	-0.157572	-0.272565
07535		-0.157582	-0.981853	-0.105508	-0.257757	0.144036	-0.955413	0.953273	-0.123360	-0.275777
07536		-0.124117	-0.986020	-0.111176	-0.264819	0.140895	-0.953950	0.956277	-0.088960	-0.278604
07537		-0.091007	-0.988974	-0.116828	-0.272643	0.137576	-0.952228	0.957801	-0.054808	-0.282157
07538		-0.058483	-0.990706	-0.122807	-0.282140	0.134405	-0.949912	0.957589	-0.020905	-0.287378
07539		-0.026551	-0.991312	-0.128826	-0.293210	0.130926	-0.947041	0.955679	0.012629	-0.294138
07540		0.004594	-0.990820	-0.135110	-0.305764	0.127249	-0.943566	0.952096	0.045647	-0.302372
07541		0.035018	-0.989340	-0.141348	-0.318608	0.123003	-0.939872	0.947239	0.077947	-0.310905
07542		0.064779	-0.986860	-0.148024	-0.331111	0.118676	-0.936099	0.941366	0.109652	-0.319072
07543		0.093891	-0.983458	-0.154901	-0.342334	0.114209	-0.932611	0.934875	0.140591	-0.325948
07544		0.122281	-0.979121	-0.162385	-0.351908	0.110210	-0.929524	0.928013	0.170808	-0.331084
07545		0.149895	-0.973974	-0.170018	-0.359909	0.106410	-0.926899	0.920867	0.200129	-0.334592
07546		0.176357	-0.968091	-0.178040	-0.367041	0.103154	-0.924467	0.913334	0.228385	-0.337137
07547		0.201523	-0.961633	-0.186144	-0.373812	0.100150	-0.922082	0.905347	0.255404	-0.339288
07548		0.225172	-0.954664	-0.194714	-0.381125	0.097618	-0.919355	0.896683	0.281224	-0.341866
07549		0.247115	-0.947411	-0.203337	-0.389579	0.094998	-0.916081	0.887222	0.305593	-0.345616
07550		0.267221	-0.939994	-0.212142	-0.399283	0.092353	-0.912164	0.877021	0.328454	-0.350645
07551		0.285570	-0.932522	-0.221026	-0.409588	0.089747	-0.907845	0.866422	0.349783	-0.356321
07552		0.301993	-0.925116	-0.230131	-0.420012	0.087592	-0.903281	0.855798	0.369442	-0.362108
07553		0.316585	-0.917867	-0.239362	-0.429782	0.086156	-0.898813	0.845613	0.387424	-0.367207
07554		0.329192	-0.910808	-0.249123	-0.438781	0.086064	-0.894463	0.836124	0.403760	-0.371314
07555		0.339832	-0.904080	-0.259141	-0.446979	0.087174	-0.890287	0.827481	0.418378	-0.374480
07556		0.348418	-0.897849	-0.269205	-0.454834	0.089180	-0.886100	0.819592	0.431177	-0.377300
07557		0.354764	-0.892424	-0.278787	-0.462617	0.091570	-0.881816	0.812483	0.441808	-0.380365
07558		0.358905	-0.887895	-0.287801	-0.470604	0.094142	-0.877308	0.806052	0.450310	-0.384059
07559		0.360802	-0.884389	-0.296105	-0.478719	0.096859	-0.872609	0.800406	0.456590	-0.388427
07560		0.360451	-0.881961	-0.303676	-0.486669	0.099921	-0.867853	0.795757	0.460608	-0.393206
07561		0.358026	-0.880588	-0.310455	-0.493738	0.103657	-0.863411	0.792490	0.462407	-0.397668
07562		0.353668	-0.880174	-0.316565	-0.499662	0.108328	-0.859420	0.790732	0.462125	-0.401477
07563		0.347427	-0.880659	-0.322079	-0.504216	0.114143	-0.856001	0.790607	0.459795	-0.404386
07564		0.339206	-0.882118	-0.326814	-0.507378	0.120991	-0.853187	0.792153	0.455225	-0.406526
07565		0.329204	-0.884423	-0.330787	-0.509157	0.128760	-0.850988	0.795225	0.448571	-0.407922
07566		0.317450	-0.887583	-0.333800	-0.509786	0.137078	-0.849310	0.799590	0.439780	-0.408962
07567		0.303916	-0.891516	-0.335907	-0.509485	0.145840	-0.848030	0.805022	0.428870	-0.409891
07568		0.288869	-0.896093	-0.337004	-0.508475	0.154654	-0.847075	0.811177	0.416052	-0.410966
07569		0.272407	-0.901120	-0.337307	-0.506781	0.163627	-0.846404	0.817904	0.401507	-0.412098
07570		0.254681	-0.906536	-0.336645	-0.504383	0.172492	-0.846076	0.825067	0.385278	-0.413311
07571		0.235644	-0.912159	-0.335318	-0.501246	0.181525	-0.846050	0.832601	0.367444	-0.414441
07572		0.215522	-0.917939	-0.333073	-0.497050	0.190471	-0.846559	0.840530	0.348006	-0.415211
07573		0.194263	-0.923739	-0.330104	-0.491647	0.199513	-0.847631	0.848849	0.326958	-0.415395
07574		0.172131	-0.929516	-0.326145	-0.484982	0.208214	-0.849376	0.857416	0.304379	-0.414959
07575		0.149150	-0.935045	-0.321627	-0.477311	0.216780	-0.851575	0.865984	0.280529	-0.413975
07576		0.125374	-0.940318	-0.316359	-0.468643	0.224925	-0.854273	0.874445	0.255363	-0.412474
07577		0.100855	-0.945111	-0.310794	-0.458998	0.232954	-0.857352	0.882694	0.229123	-0.410310
07578		0.075640	-0.949479	-0.304579	-0.448404	0.240437	-0.860885	0.890625	0.201692	-0.407564
07579		0.049699	-0.953260	-0.298035	-0.436971	0.247575	-0.864733	0.898101	0.173209	-0.404243
07580		0.023044	-0.956460	-0.290951	-0.424484	0.254131	-0.869040	0.905142	0.143531	-0.400146
07581		-0.004345	-0.958891	-0.283740	-0.410966	0.260386	-0.873674	0.911640	0.112812	-0.395203
07582		-0.032157	-0.960607	-0.276045	-0.396502	0.265786	-0.878717	0.917471	0.081195	-0.389429
07583		-0.060070	-0.961455	-0.268319	-0.381313	0.270521	-0.883979	0.922492	0.049213	-0.382866
07584		-0.087792	-0.961546	-0.260235	-0.365234	0.274122	-0.889641	0.926767	0.016943	-0.375255
07585		-0.115189	-0.960820	-0.252105	-0.348925	0.276759	-0.895352	0.930045	-0.015169	-0.367134
07586		-0.142238	-0.959424	-0.243464	-0.332879	0.278004	-0.901058	0.932180	-0.047121	-0.358915
07587		-0.168927	-0.957275	-0.234710	-0.317362	0.278278	-0.906556	0.933137	-0.078653	-0.350811
07588		-0.195370	-0.954514	-0.225243	-0.302470	0.277117	-0.911986	0.932922	-0.110045	-0.342852
07589		-0.221746	-0.950974	-0.215585	-0.287968	0.275094	-0.917277	0.931613	-0.141321	-0.334851
07590		-0.247855	-0.946726	-0.205617	-0.273575	0.271998	-0.922591	0.929368	-0.172417	-0.326416
07591		-0.273575	-0.941673	-0.195980	-0.259182	0.268388	-0.927789	0.926273	-0.203025	-0.317489
07592		-0.298640	-0.935989	-0.186386	-0.244276	0.263759	-0.933145	0.922574	-0.233145	-0.307409
07593		-0.323156	-0.929598	-0.177253	-0.228700	0.258465	-0.938559	0.918296	-0.262763	-0.296123
07594		-0.347265	-0.922574	-0.168119	-0.212898	0.252155	-0.943977	0.913281	-0.292018	-0.283979
07595		-0.371252	-0.914780	-0.159214	-0.197600	0.245377	-0.949076	0.907263	-0.320885	-0.271857
07596		-0.395272	-0.906245	-0.149930	-0.183373	0.237787	-0.953851	0.900074	-0.349538	-0.260172
07597		-0.419258	-0.896917	-0.140581	-0.170133	0.229725	-0.958270	0.891783	-0.377845	-0.248910
07598		-0.443405	-0.886724	-0.130813	-0.157189	0.220610	-0.962613	0.882431	-0.406265	-0.237203
07599		-0.467449	-0.875699	-0.121006	-0.144839	0.210899	-0.966718	0.872074	-0.434365	-0.225419
07600		-0.491007	-0.864048	-0.111055	-0.132107	0.199857	-0.970878	0.861081	-0.462037	-0.212278
07601		-0.513760	-0.851907	-0.101509	-0.118410	0.187596	-0.975083	0.849723	-0.488939	-0.197254
07602		-0.535443	-0.839531	-0.092135	-0.103744	0.173644	-0.979329	0.838176	-0.514816	-0.180073
07603		-0.556192	-0.826874	-0.083248	-0.088260	0.158377	-0.983426	0.826354	-0.539626	-0.161068
07604		-0.576004	-0.814076	-0.074153	-0.073106	0.141651	-0.987214	0.814171	-0.563218	-0.141106
07605		-0.595311	-0.800847	-0.065176	-0.058828	0.124340	-0.990494	0.801339	-0.585818	-0.121134
07606		-0.614154	-0.787210	-0.055819	-0.046493	0.106698	-0.993204	0.787816	-0.607385	-0.102129
07607		-0.632635	-0.773055	-0.046476	-0.036139	0.089414	-0.995339	0.773607	-0.628006	-0.084504
07608		-0.650888	-0.758288	-0.036666	-0.028262	0.072466	-0.996970	0.758647	-0.647880	-0.068597
07609		-0.668772	-0.742980	-0.026931	-0.022207	0.056169	-0.998174	0.743136	-0.666953	-0.054064
07610		-0.686086	-0.727323	-0.016962	-0.017218	0.039541	-0.999070	0.727317	-0.685155	-0.039651
07611		-0.702830	-0.711322	-0.007106	-0.012719	0.022553	-0.999665	0.711244	-0.702504	-0.024898
07612		-0.718727	-0.695287	0.002696	-0.008266	0.004667	-0.999955	0.695243	-0.718717	-0.009101
07613		-0.733710	-0.679356	0.012069	-0.003422	-0.014068	-0.999895	0.679454	-0.733674	0.007997
07614		-0.747974	-0.663384	0.021374	0.001332	-0.033703	-0.999431	0.663727	-0.747520	0.026092
07615		-0.761816	-0.647079	0.030419	0.006154	-0.054186	-0.998512	0.647765	-0.760495	0.045262
07616		-0.775162	-0.630532	0.039407	0.010406	-0.075111	-0.997121	0.631677	-0.772520	0.064785
07617		-0.787554	-0.614369	0.048060	0.014506	-0.096449	-0.995232	0.616075	-0.783102	0.084871
07618		-0.799013	-0.598640	0.056641	0.017743	-0.117626	-0.992899	0.601052	-0.792335	0.104606
07619		-0.809727	-0.583235	0.064647	0.020416	-0.138101	-0.990208	0.586451	-0.800478	0.123731
07620		-0.819622	-0.568360	0.072016	0.022701	-0.157823	-0.987206	0.572454	-0.807502	0.142257
07621		-0.828982	-0.553764	0.078327	0.025032	-0.176648	-0.983956	0.558715	-0.813721	0.160299
07622		-0.838174	-0.538884	0.084072	0.026339	-0.193961	-0.980656	0.544766	-0.819746	0.176766
07623		-0.847212	-0.523740	0.089038	0.027070	-0.209941	-0.977339	0.530565	-0.825603	0.192043
07624		-0.856047	-0.508361	0.093550	0.027410	-0.225373	-0.973887	0.516170	-0.831129	0.206864
07625		-0.864732	-0.492711	0.097338	0.027669	-0.240253	-0.970316	0.501471	-0.836370	0.221387
07626		-0.873236	-0.476784	0.100675	0.027449	-0.254398	-0.966710	0.486523	-0.841403	0.235237
07627		-0.881389	-0.460890	0.103605	0.026453	-0.267130	-0.963297	0.471650	-0.846299	0.247637
07628		-0.889106	-0.445170	0.106366	0.024741	-0.278797	-0.960031	0.457032	-0.850938	0.258894
07629		-0.896605	-0.429298	0.108637	0.022666	-0.289493	-0.956912	0.442250	-0.855510	0.269292
07630		-0.903696	-0.413646	0.110594	0.020311	-0.299415	-0.953907	0.427693	-0.859795	0.278982
07631		-0.910675	-0.397687	0.111879	0.018046	-0.308848	-0.950940	0.412730	-0.863978	0.288437
07632		-0.917369	-0.381806	0.112514	0.016510	-0.318926	-0.947636	0.397696	-0.867474	0.298876
07633		-0.923721	-0.366178	0.112488	0.015872	-0.329985	-0.943853	0.382737	-0.870071	0.310626
07634		-0.929891	-0.350406	0.111887	0.015808	-0.341963	-0.939581	0.367496	-0.871939	0.323527
07635		-0.935783	-0.334701	0.110844	0.016089	-0.354590	-0.934883	0.352210	-0.873064	0.337204
07636		-0.941317	-0.319154	0.109834	0.016186	-0.367722	-0.929795	0.337136	-0.873454	0.351308
07637		-0.946502	-0.303794	0.108824	0.015771	-0.380379	-0.924696	0.322311	-0.873511	0.364821
07638		-0.951286	-0.288684	0.108243	0.014301	-0.392024	-0.919844	0.307978	-0.873487	0.377055
07639		-0.955694	-0.273808	0.108061	0.011916	-0.402791	-0.915215	0.294119	-0.873378	0.388207
07640		-0.959846	-0.258711	0.108458	0.008519	-0.413330	-0.910542	0.280397	-0.873056	0.398937
07641		-0.963767	-0.243323	0.109304	0.004350	-0.424052	-0.905628	0.266711	-0.872338	0.409745
07642		-0.967422	-0.227653	0.110762	-0.000383	-0.436189	-0.899855	0.253168	-0.870582	0.421892
07643		-0.970848	-0.211656	0.112500	-0.005357	-0.450068	-0.892978	0.239637	-0.867548	0.435814
07644		-0.974020	-0.195335	0.114581	-0.010759	-0.465478	-0.884994	0.226206	-0.863235	0.451284
07645		-0.976991	-0.178481	0.116758	-0.016619	-0.482071	-0.875975	0.212630	-0.857760	0.468013
07646		-0.979762	-0.160767	0.119249	-0.023453	-0.499445	-0.866028	0.198787	-0.851298	0.485567
07647		-0.982272	-0.142352	0.121977	-0.031385	-0.516610	-0.855645	0.184817	-0.844304	0.502984
07648		-0.984452	-0.123278	0.125130	-0.040766	-0.532568	-0.845405	0.170860	-0.837361	0.519262
07649		-0.986309	-0.103418	0.128453	-0.051483	-0.546898	-0.835615	0.156668	-0.830787	0.534086
07650		-0.987733	-0.082891	0.132337	-0.063600	-0.560453	-0.825740	0.142616	-0.824027	0.548306
07651		-0.988730	-0.061792	0.136360	-0.076513	-0.574322	-0.815046	0.128678	-0.816294	0.563122
07652		-0.989243	-0.040121	0.140674	-0.090253	-0.589406	-0.802780	0.115123	-0.806840	0.579444
07653		-0.989309	-0.017701	0.144753	-0.104602	-0.605502	-0.788940	0.101613	-0.795647	0.597177
07654		-0.988862	0.005476	0.148732	-0.119740	-0.622780	-0.773180	0.088393	-0.782378	0.616499
07655		-0.987928	0.029171	0.152145	-0.135354	-0.640263	-0.756137	0.075355	-0.767602	0.636482
07656		-0.986471	0.053420	0.154988	-0.151581	-0.657282	-0.738244	0.062434	-0.751750	0.656487
07657		-0.984429	0.077080	0.157981	-0.168352	-0.671951	-0.721207	0.050565	-0.736574	0.674464
07658		-0.981768	0.101339	0.160819	-0.185992	-0.686768	-0.702678	0.039237	-0.719778	0.693095
07659		-0.978580	0.125620	0.163100	-0.203918	-0.700272	-0.684132	0.028274	-0.702737	0.710888
07660		-0.974999	0.149064	0.164791	-0.221442	-0.713290	-0.664967	0.018422	-0.684834	0.728466
07661		-0.971181	0.171217	0.165807	-0.238149	-0.725145	-0.646104	0.009610	-0.666971	0.745022
07662		-0.967220	0.192105	0.166076	-0.253935	-0.735663	-0.627946	0.001544	-0.649535	0.760330
07663		-0.963343	0.211536	0.164996	-0.268206	-0.745544	-0.610106	-0.006048	-0.631994	0.774950
07664		-0.959504	0.229619	0.163181	-0.281430	-0.756195	-0.590734	-0.012246	-0.612735	0.790193
07665		-0.955803	0.246246	0.160633	-0.293523	-0.767881	-0.569389	-0.016863	-0.591373	0.806222
07666		-0.952292	0.261098	0.158009	-0.304561	-0.779909	-0.546795	-0.019535	-0.568832	0.822221
07667		-0.949123	0.274139	0.154964	-0.314191	-0.791229	-0.524634	-0.021211	-0.546630	0.837105
07668		-0.946296	0.285384	0.151919	-0.322557	-0.801534	-0.503488	-0.021919	-0.525451	0.850542
07669		-0.943922	0.294757	0.148762	-0.329441	-0.810902	-0.483639	-0.021925	-0.505526	0.862533
07670		-0.942015	0.302341	0.145595	-0.334909	-0.819813	-0.464480	-0.021071	-0.486308	0.873533
07671		-0.940744	0.307984	0.141938	-0.338536	-0.828407	-0.446246	-0.019854	-0.467855	0.883582
07672		-0.940308	0.311043	0.138108	-0.339856	-0.836899	-0.429066	-0.017876	-0.450391	0.892653
07673		-0.940647	0.312058	0.133432	-0.338978	-0.844550	-0.414523	-0.016666	-0.435150	0.900204
07674		-0.941476	0.311354	0.129153	-0.336739	-0.851551	-0.401831	-0.015131	-0.421805	0.906560
07675		-0.942823	0.308959	0.125015	-0.333036	-0.858565	-0.389811	-0.013102	-0.409158	0.912370
07676		-0.944647	0.304537	0.122063	-0.327959	-0.866022	-0.377425	-0.009231	-0.396565	0.917960
07677		-0.946949	0.298037	0.120257	-0.321367	-0.874288	-0.363790	-0.003283	-0.383137	0.923686
07678		-0.949652	0.289511	0.119766	-0.313269	-0.883307	-0.348756	0.004821	-0.368716	0.929530
07679		-0.952836	0.279069	0.119267	-0.303197	-0.892489	-0.333969	0.013244	-0.354379	0.935008
07680		-0.956505	0.266393	0.118886	-0.290890	-0.901654	-0.320004	0.021947	-0.340668	0.939927
07681		-0.960834	0.250625	0.118264	-0.275460	-0.910450	-0.308549	0.030343	-0.329042	0.943828
07682		-0.965659	0.231786	0.117378	-0.256962	-0.918775	-0.299705	0.038376	-0.319574	0.946784
07683		-0.970693	0.211011	0.115022	-0.236140	-0.926378	-0.293364	0.044650	-0.311927	0.949056
07684		-0.975682	0.187922	0.112831	-0.213200	-0.933163	-0.289401	0.050905	-0.306419	0.950535
07685		-0.980506	0.162493	0.110469	-0.188164	-0.938419	-0.289766	0.056581	-0.304903	0.950701
07686		-0.984832	0.135324	0.108601	-0.161881	-0.941890	-0.294341	0.062459	-0.307457	0.949510
07687		-0.988540	0.106477	0.107011	-0.134388	-0.943614	-0.302544	0.068763	-0.313458	0.947109
07688		-0.991541	0.075591	0.105509	-0.105267	-0.943893	-0.313024	0.075928	-0.321483	0.943866
07689		-0.993758	0.042310	0.103227	-0.073775	-0.943320	-0.323580	0.083685	-0.329176	0.940553
07690		-0.994973	0.006320	0.099947	-0.039452	-0.942038	-0.333180	0.092049	-0.335448	0.937551
07691		-0.995032	-0.032192	0.094211	-0.002087	-0.939329	-0.343010	0.099537	-0.341502	0.934595
07692		-0.993650	-0.072564	0.085990	0.037425	-0.933884	-0.355613	0.106109	-0.350136	0.930669
07693		-0.990652	-0.113881	0.075103	0.078155	-0.925035	-0.371755	0.111808	-0.362410	0.925288
07694		-0.985848	-0.155185	0.063414	0.118560	-0.912841	-0.390722	0.118521	-0.377675	0.918322
07695		-0.979374	-0.195399	0.051444	0.157803	-0.898678	-0.409239	0.126196	-0.392680	0.910976
07696		-0.971732	-0.232938	0.038441	0.195125	-0.884070	-0.424673	0.132907	-0.405167	0.904531
07697		-0.963362	-0.267217	0.022972	0.231181	-0.870756	-0.433981	0.135970	-0.412770	0.900629
07698		-0.954592	-0.297750	0.009945	0.263185	-0.858477	-0.440171	0.139599	-0.417567	0.897859
07699		-0.946293	-0.323304	-0.001830	0.290270	-0.847085	-0.445185	0.142380	-0.421807	0.895437
07700		-0.939858	-0.341338	-0.012476	0.310001	-0.837097	-0.450742	0.143412	-0.427501	0.892567
07701		-0.935375	-0.353041	-0.020882	0.322800	-0.828148	-0.458227	0.144479	-0.435355	0.888590
07702		-0.932773	-0.359427	-0.027313	0.329941	-0.820820	-0.466254	0.145165	-0.443921	0.884229
07703		-0.932112	-0.360653	-0.033103	0.332651	-0.816414	-0.472029	0.143213	-0.450996	0.880961
07704		-0.933091	-0.357613	-0.038136	0.332145	-0.816229	-0.472704	0.137918	-0.453742	0.880396
07705		-0.935221	-0.351474	-0.042748	0.329306	-0.819107	-0.469704	0.130074	-0.453354	0.881789
07706		-0.938041	-0.343318	-0.047021	0.324524	-0.822784	-0.466595	0.121503	-0.452944	0.883221
07707		-0.941047	-0.334475	-0.050572	0.318695	-0.826481	-0.464072	0.113423	-0.452830	0.884353
07708		-0.943966	-0.325695	-0.053386	0.312567	-0.830279	-0.461452	0.105968	-0.452282	0.885557
07709		-0.946606	-0.317519	-0.055839	0.306822	-0.834102	-0.458403	0.098977	-0.451060	0.886988
07710		-0.948842	-0.310326	-0.058281	0.301919	-0.837658	-0.455163	0.092430	-0.449474	0.888498
07711		-0.950618	-0.304432	-0.060387	0.298010	-0.840988	-0.451585	0.086692	-0.447281	0.890182
07712		-0.952064	-0.299449	-0.062478	0.294855	-0.843967	-0.448084	0.081450	-0.445027	0.891805
07713		-0.953312	-0.295034	-0.064436	0.292002	-0.846139	-0.445852	0.077019	-0.443851	0.892784
07714		-0.954398	-0.291021	-0.066567	0.289433	-0.847354	-0.445219	0.073162	-0.444183	0.892944
07715		-0.955362	-0.287421	-0.068356	0.286992	-0.847942	-0.445679	0.070136	-0.445403	0.892579
07716		-0.956284	-0.283999	-0.069759	0.284601	-0.848917	-0.445357	0.067261	-0.445741	0.892631
07717		-0.957243	-0.280661	-0.070109	0.281875	-0.850412	-0.444236	0.065058	-0.445004	0.893162
07718		-0.958239	-0.277419	-0.069407	0.278751	-0.851931	-0.443297	0.063849	-0.444132	0.893684
07719		-0.959342	-0.274078	-0.067414	0.274911	-0.853264	-0.443129	0.063930	-0.443646	0.893919
07720		-0.960578	-0.270377	-0.064706	0.270345	-0.854152	-0.444228	0.064840	-0.444209	0.893574
07721		-0.961975	-0.266114	-0.061550	0.264876	-0.853871	-0.448046	0.066675	-0.447312	0.891889
07722		-0.963468	-0.261389	-0.058353	0.258735	-0.852139	-0.454880	0.069176	-0.453360	0.888639
07723		-0.965052	-0.256257	-0.054833	0.251936	-0.849646	-0.463282	0.072130	-0.460906	0.884513
07724		-0.966770	-0.250443	-0.051320	0.244578	-0.847656	-0.470809	0.074409	-0.467716	0.880741
07725		-0.968681	-0.243768	-0.047261	0.236383	-0.847034	-0.476084	0.076022	-0.472345	0.878129
07726		-0.970782	-0.236155	-0.042579	0.227276	-0.847931	-0.478914	0.076994	-0.474598	0.876829
07727		-0.973081	-0.227519	-0.036708	0.216866	-0.850091	-0.479910	0.077984	-0.474953	0.876549
07728		-0.975468	-0.218034	-0.030399	0.205650	-0.853240	-0.479259	0.078557	-0.473753	0.877147
07729		-0.977818	-0.208144	-0.023392	0.193855	-0.857041	-0.477390	0.079318	-0.471335	0.878380
07730		-0.980078	-0.197966	-0.016015	0.181699	-0.861130	-0.474806	0.080204	-0.468257	0.879945
07731		-0.982225	-0.187542	-0.007910	0.168939	-0.864857	-0.472739	0.081818	-0.465672	0.881167
07732		-0.984215	-0.176979	0.000295	0.155884	-0.867687	-0.472038	0.083797	-0.464541	0.881578
07733		-0.986008	-0.166464	0.008788	0.142490	-0.869020	-0.473815	0.086510	-0.465933	0.880580
07734		-0.987612	-0.156039	0.016581	0.129291	-0.869062	-0.477510	0.088920	-0.469450	0.878470
07735		-0.988968	-0.146100	0.024422	0.116347	-0.868203	-0.482376	0.091678	-0.474213	0.875624
07736		-0.990045	-0.137015	0.032201	0.104055	-0.866585	-0.488060	0.094776	-0.479851	0.872216
07737		-0.990848	-0.128779	0.040456	0.092168	-0.864419	-0.494252	0.098620	-0.485999	0.868377
07738		-0.991363	-0.121558	0.049231	0.080847	-0.862006	-0.500409	0.103267	-0.492106	0.864388
07739		-0.991486	-0.115940	0.059275	0.070137	-0.859040	-0.507081	0.109710	-0.498606	0.859858
07740		-0.991316	-0.111837	0.069167	0.060545	-0.855113	-0.514895	0.116730	-0.506236	0.854459
07741		-0.990961	-0.108762	0.078533	0.051932	-0.850775	-0.522959	0.123692	-0.514153	0.848732
07742		-0.990517	-0.106440	0.086872	0.044381	-0.846282	-0.530883	0.130025	-0.521993	0.842981
07743		-0.989986	-0.104676	0.094711	0.037350	-0.841252	-0.539352	0.136133	-0.530414	0.836737
07744		-0.989428	-0.103566	0.101523	0.031146	-0.835439	-0.548699	0.141643	-0.539736	0.829833
07745		-0.988734	-0.103477	0.108159	0.025549	-0.828634	-0.559208	0.147490	-0.550145	0.821941
07746		-0.987900	-0.104587	0.114521	0.020583	-0.820290	-0.571578	0.153720	-0.562304	0.812517
07747		-0.986864	-0.106858	0.121167	0.015765	-0.810121	-0.586051	0.160784	-0.576442	0.801164
07748		-0.985740	-0.110137	0.127227	0.011525	-0.798472	-0.601921	0.167881	-0.591872	0.788355
07749		-0.984488	-0.114525	0.132920	0.007646	-0.784867	-0.619617	0.175286	-0.608989	0.773568
07750		-0.983272	-0.119881	0.137128	0.004652	-0.769148	-0.639053	0.182082	-0.627726	0.756840
07751		-0.982018	-0.126478	0.140160	0.002636	-0.751526	-0.659698	0.188772	-0.647466	0.738345
07752		-0.980705	-0.134357	0.142003	0.001834	-0.732684	-0.680567	0.195482	-0.667175	0.718794
07753		-0.979301	-0.143438	0.142813	0.002322	-0.713476	-0.700675	0.202397	-0.685840	0.699041
07754		-0.977692	-0.154070	0.142761	0.004338	-0.694340	-0.719634	0.209999	-0.702962	0.679519
07755		-0.975721	-0.166423	0.142382	0.007593	-0.675400	-0.737413	0.218887	-0.718428	0.660265
07756		-0.973462	-0.180358	0.140862	0.012640	-0.656964	-0.753816	0.228498	-0.732031	0.641810
07757		-0.971014	-0.195292	0.137818	0.019487	-0.639344	-0.768674	0.238229	-0.743707	0.624618
07758		-0.968504	-0.210732	0.132638	0.028356	-0.622561	-0.782057	0.247380	-0.753664	0.608928
07759		-0.966048	-0.225963	0.125267	0.038941	-0.606657	-0.794010	0.255411	-0.762173	0.594859
07760		-0.963890	-0.240233	0.114910	0.051158	-0.590508	-0.805409	0.261341	-0.770447	0.581474
07761		-0.961878	-0.253603	0.102356	0.064338	-0.573611	-0.816598	0.265804	-0.778882	0.568060
07762		-0.960073	-0.265735	0.087437	0.078603	-0.556205	-0.827320	0.268481	-0.787414	0.554885
07763		-0.958211	-0.277064	0.071179	0.093518	-0.538555	-0.837385	0.270343	-0.795735	0.541960
07764		-0.955903	-0.288658	0.054093	0.108959	-0.519621	-0.847421	0.272723	-0.804158	0.528159
07765		-0.952658	-0.301721	0.037521	0.124309	-0.499138	-0.857559	0.277472	-0.812296	0.513015
07766		-0.948322	-0.316622	0.020865	0.140536	-0.478058	-0.867012	0.284489	-0.819275	0.497850
07767		-0.942935	-0.332950	0.004281	0.157597	-0.457576	-0.875093	0.293321	-0.824481	0.483936
07768		-0.936628	-0.350076	-0.013226	0.176394	-0.438650	-0.881176	0.302677	-0.827667	0.472603
07769		-0.929614	-0.367214	-0.031168	0.195718	-0.420263	-0.886044	0.312269	-0.829779	0.462552
07770		-0.922168	-0.383665	-0.049057	0.214302	-0.401219	-0.890561	0.321994	-0.831760	0.452211
07771		-0.914361	-0.399520	-0.065781	0.230868	-0.380962	-0.895303	0.332632	-0.833817	0.440573
07772		-0.906123	-0.415066	-0.081621	0.244911	-0.357434	-0.901255	0.344906	-0.836637	0.425533
07773		-0.897563	-0.430158	-0.096672	0.256372	-0.330839	-0.908195	0.358685	-0.839946	0.407230
07774		-0.888677	-0.444698	-0.111790	0.266544	-0.302619	-0.915083	0.373106	-0.843010	0.387462
07775		-0.879567	-0.458765	-0.126080	0.275511	-0.275084	-0.921098	0.387885	-0.844904	0.368350
07776		-0.870685	-0.471552	-0.139810	0.284127	-0.250199	-0.925566	0.401472	-0.845600	0.351825
07777		-0.862198	-0.483013	-0.152686	0.291916	-0.227408	-0.929016	0.414005	-0.845567	0.337069
07778		-0.853996	-0.493471	-0.164854	0.298989	-0.206168	-0.931719	0.425789	-0.844974	0.323609
07779		-0.846351	-0.502762	-0.175842	0.305618	-0.188018	-0.933406	0.436220	-0.843730	0.312782
07780		-0.839236	-0.510922	-0.186121	0.312588	-0.173228	-0.933960	0.444939	-0.841992	0.305087
07781		-0.832709	-0.517987	-0.195667	0.319505	-0.160883	-0.933827	0.452231	-0.840123	0.299468
07782		-0.826893	-0.523884	-0.204435	0.325254	-0.148973	-0.933818	0.458757	-0.838661	0.293580
07783		-0.821997	-0.528820	-0.211354	0.328449	-0.137038	-0.934527	0.465233	-0.837598	0.286335
07784		-0.818107	-0.532881	-0.216192	0.328457	-0.124406	-0.936290	0.472036	-0.836995	0.276806
07785		-0.815268	-0.536219	-0.218648	0.325341	-0.111777	-0.938967	0.479052	-0.836645	0.265582
07786		-0.813572	-0.538668	-0.218945	0.319928	-0.100270	-0.942121	0.485537	-0.836530	0.253912
07787		-0.813071	-0.540144	-0.217164	0.313272	-0.091531	-0.945242	0.490690	-0.836580	0.243633
07788		-0.813762	-0.540547	-0.213543	0.306228	-0.086493	-0.948021	0.493979	-0.836856	0.235915
07789		-0.815582	-0.539865	-0.208259	0.299177	-0.085354	-0.950372	0.495297	-0.837413	0.231128
07790		-0.818318	-0.538258	-0.201580	0.292207	-0.087590	-0.952336	0.494946	-0.838216	0.228959
07791		-0.821799	-0.535895	-0.193555	0.284806	-0.092133	-0.954147	0.493490	-0.839243	0.228341
07792		-0.826254	-0.532359	-0.184115	0.276023	-0.097717	-0.956171	0.491035	-0.840860	0.227682
07793		-0.831752	-0.527415	-0.173268	0.265297	-0.103461	-0.958600	0.487653	-0.843285	0.225976
07794		-0.838250	-0.520959	-0.161057	0.252411	-0.108899	-0.961473	0.483349	-0.846606	0.222781
07795		-0.845482	-0.513063	-0.148077	0.237736	-0.113343	-0.964694	0.478166	-0.850835	0.217803
07796		-0.853063	-0.504255	-0.134200	0.221022	-0.116205	-0.968321	0.472686	-0.855701	0.210582
07797		-0.860852	-0.494594	-0.119628	0.202689	-0.117650	-0.972150	0.466745	-0.861124	0.201528
07798		-0.868492	-0.484626	-0.104206	0.183611	-0.119240	-0.975740	0.460444	-0.866556	0.192542
07799		-0.875812	-0.474549	-0.088066	0.164385	-0.121728	-0.978856	0.453795	-0.871771	0.184620
07800		-0.882677	-0.464570	-0.071104	0.144713	-0.124717	-0.981582	0.447146	-0.876710	0.177315
07801		-0.888913	-0.454944	-0.053479	0.124429	-0.127450	-0.984009	0.440853	-0.881353	0.169900
07802		-0.894535	-0.445629	-0.034956	0.102951	-0.129296	-0.986247	0.434980	-0.885832	0.161538
07803		-0.899640	-0.436357	-0.015521	0.079872	-0.129516	-0.988355	0.429265	-0.890404	0.151371
07804		-0.904118	-0.427252	0.005025	0.054804	-0.127619	-0.990308	0.423753	-0.895080	0.138798
07805		-0.907779	-0.418631	0.026188	0.028602	-0.124068	-0.991861	0.418473	-0.899642	0.124600
07806		-0.910363	-0.411045	0.047752	0.001686	-0.119080	-0.992883	0.413806	-0.903804	0.109099
07807		-0.911682	-0.405001	0.069349	-0.025181	-0.113388	-0.993232	0.410123	-0.907258	0.093175
07808		-0.911513	-0.401086	0.090962	-0.051461	-0.108205	-0.992796	0.408039	-0.909627	0.077990
07809		-0.909788	-0.399597	0.112286	-0.076426	-0.104627	-0.991571	0.407977	-0.910700	0.064649
07810		-0.906733	-0.400118	0.133199	-0.100096	-0.102627	-0.989671	0.409654	-0.910700	0.053005
07811		-0.902581	-0.402084	0.153872	-0.123364	-0.100873	-0.987221	0.412467	-0.910029	0.041443
07812		-0.897260	-0.405658	0.174260	-0.146746	-0.098240	-0.984284	0.416402	-0.908730	0.028618
07813		-0.890741	-0.410825	0.194433	-0.170479	-0.094564	-0.980813	0.421329	-0.906797	0.014195
07814		-0.883316	-0.417026	0.214107	-0.194432	-0.089676	-0.976808	0.426555	-0.904460	-0.001871
07815		-0.875129	-0.424004	0.233175	-0.218497	-0.083700	-0.972241	0.431751	-0.901784	-0.019395
07816		-0.866289	-0.431760	0.251250	-0.242121	-0.077030	-0.967183	0.436945	-0.898693	-0.037808
07817		-0.856804	-0.440445	0.268132	-0.264821	-0.070319	-0.961730	0.442444	-0.895021	-0.056389
07818		-0.846695	-0.450274	0.283479	-0.285957	-0.064211	-0.956089	0.448705	-0.890579	-0.074391
07819		-0.836010	-0.461151	0.297368	-0.305329	-0.059328	-0.950397	0.455918	-0.885336	-0.091204
07820		-0.824502	-0.473601	0.309676	-0.322525	-0.056344	-0.944882	0.464945	-0.878936	-0.106292
07821		-0.811883	-0.487951	0.320547	-0.337409	-0.055908	-0.939696	0.476447	-0.871079	-0.119248
07822		-0.798155	-0.504226	0.329704	-0.349863	-0.057590	-0.935029	0.490453	-0.861649	-0.130444
07823		-0.783545	-0.521919	0.337133	-0.359918	-0.061033	-0.930986	0.506475	-0.850809	-0.140026
07824		-0.768237	-0.540754	0.342633	-0.367965	-0.064967	-0.927567	0.523845	-0.838668	-0.149068
07825		-0.752243	-0.560403	0.346523	-0.374752	-0.068670	-0.924578	0.541932	-0.825368	-0.158356
07826		-0.735576	-0.580914	0.348521	-0.380604	-0.071217	-0.921992	0.560419	-0.810843	-0.168713
07827		-0.718069	-0.602188	0.348921	-0.385878	-0.072747	-0.919677	0.579201	-0.795033	-0.180134
07828		-0.699690	-0.624271	0.347447	-0.390603	-0.072947	-0.917665	0.598217	-0.777794	-0.192802
07829		-0.680291	-0.646893	0.344578	-0.394986	-0.072451	-0.915826	0.617406	-0.759131	-0.206226
07830		-0.659677	-0.670252	0.339984	-0.398264	-0.071874	-0.914451	0.637348	-0.738645	-0.219524
07831		-0.637738	-0.694168	0.333798	-0.399719	-0.072181	-0.913791	0.658418	-0.716185	-0.231439
07832		-0.614680	-0.718509	0.325442	-0.398673	-0.073008	-0.914183	0.680609	-0.691675	-0.241573
07833		-0.590475	-0.742955	0.315209	-0.395023	-0.074523	-0.915644	0.703772	-0.665180	-0.249480
07834		-0.565257	-0.767320	0.302827	-0.388345	-0.076350	-0.918346	0.727786	-0.636703	-0.254828
07835		-0.538857	-0.791306	0.288909	-0.379240	-0.078364	-0.921974	0.752203	-0.606378	-0.257868
07836		-0.511287	-0.814888	0.273027	-0.367477	-0.079887	-0.926595	0.776883	-0.574087	-0.258607
07837		-0.482596	-0.837685	0.255705	-0.353874	-0.080569	-0.931817	0.801171	-0.540178	-0.257552
07838		-0.452887	-0.859610	0.236568	-0.339253	-0.079227	-0.937353	0.824500	-0.504771	-0.255744
07839		-0.421739	-0.880605	0.216033	-0.323850	-0.076249	-0.943031	0.846910	-0.467675	-0.253026
07840		-0.389383	-0.900464	0.193766	-0.308006	-0.070964	-0.948734	0.868051	-0.429102	-0.249717
07841		-0.356031	-0.918821	0.170321	-0.292344	-0.063599	-0.954196	0.887568	-0.389516	-0.245969
07842		-0.321978	-0.935521	0.145365	-0.276987	-0.053740	-0.959370	0.905322	-0.349160	-0.241824
07843		-0.287357	-0.950331	0.119570	-0.261733	-0.042176	-0.964218	0.921370	-0.308370	-0.236614
07844		-0.252192	-0.963239	0.092576	-0.246414	-0.028590	-0.968743	0.935777	-0.267121	-0.230146
07845		-0.216682	-0.974064	0.065176	-0.231464	-0.013599	-0.972748	0.948406	-0.225863	-0.222514
07846		-0.181073	-0.982771	0.037059	-0.217090	0.003189	-0.976146	0.959210	-0.184799	-0.213927
07847		-0.145463	-0.989324	0.008839	-0.203272	0.021141	-0.978894	0.968257	-0.144189	-0.204178
07848		-0.110308	-0.993705	-0.019561	-0.190256	0.040429	-0.980902	0.975518	-0.104479	-0.193518
07849		-0.076056	-0.995983	-0.047263	-0.178065	0.060205	-0.982175	0.981075	-0.066284	-0.181929
07850		-0.042804	-0.996310	-0.074391	-0.166354	0.080527	-0.982772	0.985137	-0.029691	-0.169187
07851		-0.010961	-0.994897	-0.100301	-0.155915	0.100780	-0.982616	0.987710	0.004868	-0.156224
07852		0.019316	-0.991933	-0.125286	-0.147315	0.121118	-0.981646	0.988901	0.037418	-0.143787
07853		0.047978	-0.987695	-0.148850	-0.140293	0.140881	-0.980036	0.988947	0.067902	-0.131807
07854		0.074945	-0.982381	-0.171205	-0.134872	0.160124	-0.977839	0.988025	0.096375	-0.120495
07855		0.099913	-0.976266	-0.192153	-0.131602	0.178456	-0.975107	0.986255	0.122714	-0.110649
07856		0.122479	-0.969628	-0.211708	-0.130625	0.195709	-0.971923	0.983837	0.146695	-0.102687
07857		0.142317	-0.962870	-0.229407	-0.131030	0.211400	-0.968577	0.981110	0.167904	-0.096079
07858		0.159136	-0.956358	-0.245063	-0.132516	0.225288	-0.965238	0.978323	0.186079	-0.090881
07859		0.172614	-0.950541	-0.258216	-0.134386	0.236973	-0.962177	0.975779	0.200786	-0.086835
07860		0.182546	-0.945798	-0.268593	-0.135718	0.246329	-0.959637	0.973785	0.211631	-0.083395
07861		0.188845	-0.942423	-0.276000	-0.135801	0.253294	-0.957810	0.972572	0.218359	-0.080149
07862		0.191577	-0.940592	-0.280330	-0.134421	0.257784	-0.956806	0.972229	0.220984	-0.077050
07863		0.190717	-0.940324	-0.281812	-0.131670	0.259983	-0.956594	0.972774	0.219545	-0.074229
07864		0.186456	-0.941512	-0.280695	-0.127804	0.260033	-0.957104	0.974115	0.214332	-0.071844
07865		0.178781	-0.943985	-0.277363	-0.122625	0.258329	-0.958243	0.976217	0.205327	-0.069572
07866		0.167572	-0.947729	-0.271532	-0.116107	0.254537	-0.960068	0.978999	0.192407	-0.067385
07867		0.153021	-0.952442	-0.263513	-0.108154	0.248911	-0.962469	0.982287	0.175778	-0.064922
07868		0.135198	-0.957942	-0.253118	-0.099275	0.241082	-0.965414	0.985833	0.155650	-0.062506
07869		0.114223	-0.963827	-0.240813	-0.089971	0.231367	-0.968697	0.989373	0.132314	-0.060289
07870		0.090270	-0.969891	-0.226190	-0.080390	0.219280	-0.972345	0.992668	0.105957	-0.058175
07871		0.063578	-0.975693	-0.209715	-0.071138	0.205175	-0.976137	0.995438	0.076979	-0.056364
07872		0.034165	-0.980995	-0.191004	-0.062693	0.188635	-0.980044	0.997448	0.045458	-0.055056
07873		0.001911	-0.985317	-0.170722	-0.055143	0.170359	-0.983838	0.998477	0.011294	-0.054008
07874		-0.033195	-0.988360	-0.148466	-0.048365	0.149962	-0.987508	0.998278	-0.025600	-0.052780
07875		-0.070749	-0.989622	-0.125073	-0.042245	0.128248	-0.990842	0.996599	-0.064818	-0.050880
07876		-0.110383	-0.988862	-0.099842	-0.036996	0.104475	-0.993839	0.993200	-0.106009	-0.048116
07877		-0.151749	-0.985672	-0.073641	-0.032504	0.079440	-0.996310	0.987884	-0.148795	-0.044094
07878		-0.194673	-0.979791	-0.045947	-0.028603	0.052494	-0.998212	0.980451	-0.193011	-0.038244
07879		-0.238478	-0.970984	-0.017823	-0.024990	0.024482	-0.999388	0.970826	-0.237886	-0.030103
07880		-0.282873	-0.959093	0.011130	-0.021994	-0.005115	-0.999745	0.958905	-0.283046	-0.019647
07881		-0.327813	-0.943899	0.039920	-0.019782	-0.035388	-0.999178	0.944535	-0.328334	-0.007071
07882		-0.373242	-0.925150	0.069200	-0.019015	-0.066946	-0.997575	0.927539	-0.373653	0.007395
07883		-0.418546	-0.902911	0.097830	-0.019923	-0.098566	-0.994931	0.907977	-0.418374	0.023266
07884		-0.463641	-0.876924	0.126653	-0.023247	-0.130856	-0.991129	0.885718	-0.462473	0.040284
07885		-0.508176	-0.847230	0.154784	-0.029692	-0.162378	-0.986282	0.860741	-0.505801	0.057361
07886		-0.551155	-0.814024	0.183283	-0.038969	-0.194306	-0.980167	0.833492	-0.547366	0.075371
07887		-0.592205	-0.777560	0.211410	-0.050846	-0.225782	-0.972850	0.804181	-0.586876	0.094173
07888		-0.630738	-0.737970	0.239939	-0.065229	-0.257686	-0.964024	0.773250	-0.623697	0.114395
07889		-0.666407	-0.695733	0.268063	-0.081016	-0.289833	-0.953642	0.741174	-0.657231	0.136781
07890		-0.699431	-0.650389	0.296296	-0.097993	-0.323389	-0.941179	0.707951	-0.687324	0.162454
07891		-0.730260	-0.601835	0.323289	-0.115581	-0.357558	-0.926711	0.673321	-0.714106	0.191550
07892		-0.758574	-0.549886	0.349557	-0.134658	-0.392590	-0.909802	0.637520	-0.737223	0.223762
07893		-0.784135	-0.495121	0.374148	-0.155289	-0.427167	-0.890737	0.600847	-0.756560	0.258070
07894		-0.806171	-0.437890	0.397921	-0.179382	-0.459991	-0.869615	0.563836	-0.772438	0.292282
07895		-0.824718	-0.378831	0.419915	-0.206533	-0.489467	-0.847211	0.526484	-0.785436	0.325431
07896		-0.839548	-0.317901	0.440565	-0.236355	-0.516444	-0.823056	0.489178	-0.795125	0.358442
07897		-0.850947	-0.255750	0.458783	-0.267550	-0.540594	-0.797606	0.452003	-0.801467	0.391591
07898		-0.858890	-0.192588	0.474572	-0.299783	-0.562245	-0.770721	0.415258	-0.804233	0.425172
07899		-0.863812	-0.129777	0.486812	-0.331589	-0.581028	-0.743274	0.379311	-0.803470	0.458866
07900		-0.865481	-0.068046	0.496298	-0.362300	-0.599171	-0.713956	0.345950	-0.797724	0.493918
07901		-0.864721	-0.008345	0.502184	-0.390311	-0.618100	-0.682356	0.316094	-0.786055	0.531227
07902		-0.861745	0.048170	0.505049	-0.415825	-0.637383	-0.648716	0.290661	-0.769040	0.569292
07903		-0.857907	0.099673	0.504044	-0.437188	-0.656984	-0.614198	0.269930	-0.747286	0.607207
07904		-0.853857	0.145636	0.499719	-0.454683	-0.676009	-0.579893	0.253361	-0.722359	0.643433
07905		-0.850661	0.185507	0.491897	-0.467920	-0.693681	-0.547592	0.239638	-0.695984	0.676890
07906		-0.848836	0.218714	0.481291	-0.476468	-0.710926	-0.517264	0.229029	-0.668392	0.707671
07907		-0.849440	0.244710	0.467512	-0.479685	-0.727286	-0.490873	0.219894	-0.641226	0.735170
07908		-0.852578	0.262219	0.452052	-0.476351	-0.745703	-0.465851	0.214942	-0.612510	0.760678
07909		-0.858847	0.271044	0.434645	-0.466063	-0.765547	-0.443534	0.212524	-0.583500	0.783812
07910		-0.867545	0.271940	0.416431	-0.449240	-0.787742	-0.421480	0.213423	-0.552730	0.805568
07911		-0.878734	0.264872	0.397076	-0.425642	-0.811306	-0.400764	0.215999	-0.521177	0.825663
07912		-0.891722	0.249902	0.377333	-0.396063	-0.834343	-0.383414	0.219009	-0.491346	0.842979
07913		-0.905726	0.228737	0.356847	-0.361756	-0.855895	-0.369563	0.220891	-0.463814	0.857953
07914		-0.919286	0.203675	0.336794	-0.325645	-0.874198	-0.360185	0.221064	-0.440788	0.869963
07915		-0.932004	0.176234	0.316717	-0.288457	-0.889748	-0.353753	0.219455	-0.421058	0.880085
07916		-0.943024	0.147611	0.298190	-0.252314	-0.901470	-0.351695	0.216895	-0.406894	0.887352
07917		-0.951774	0.119435	0.282599	-0.219486	-0.908664	-0.355183	0.214366	-0.400080	0.891057
07918		-0.957904	0.095827	0.270623	-0.192492	-0.913746	-0.357792	0.212994	-0.394823	0.893727
07919		-0.961879	0.074837	0.263038	-0.168193	-0.920300	-0.353212	0.215641	-0.383989	0.897804
07920		-0.964707	0.057414	0.256989	-0.146393	-0.928158	-0.342186	0.218880	-0.367731	0.903806
07921		-0.966382	0.043916	0.253332	-0.127350	-0.937706	-0.323248	0.223356	-0.344643	0.911775
07923		-0.967132	0.032816	0.252150	-0.106784	-0.952372	-0.285631	0.230768	-0.303168	0.924573
07924		-0.966137	0.034615	0.255699	-0.107080	-0.955388	-0.275259	0.234764	-0.293318	0.926742
07925		-0.964504	0.040532	0.260941	-0.113686	-0.955622	-0.271777	0.238345	-0.291796	0.926308
07926		-0.962355	0.049793	0.267196	-0.125407	-0.953523	-0.273983	0.241135	-0.297178	0.923872
07927		-0.959805	0.061306	0.273890	-0.140282	-0.950004	-0.278952	0.243095	-0.306161	0.920418
07928		-0.957003	0.073987	0.280485	-0.156107	-0.946328	-0.283008	0.244492	-0.314625	0.917188
07929		-0.954242	0.087320	0.286002	-0.171488	-0.943316	-0.284160	0.244977	-0.320203	0.915126
07930		-0.951664	0.101091	0.290028	-0.185712	-0.941506	-0.281207	0.244636	-0.321476	0.914771
07931		-0.949518	0.115240	0.291779	-0.198581	-0.940815	-0.274649	0.242859	-0.318726	0.916206
07932		-0.947726	0.129828	0.291478	-0.210679	-0.940661	-0.266029	0.239644	-0.313530	0.918841
07933		-0.946247	0.144675	0.289286	-0.222299	-0.940566	-0.256747	0.234948	-0.307254	0.922168
07934		-0.944913	0.159197	0.286001	-0.233245	-0.940498	-0.247105	0.229645	-0.300201	0.925820
07935		-0.943813	0.172805	0.281701	-0.243104	-0.940452	-0.237592	0.223869	-0.292725	0.929621
07936		-0.942828	0.185154	0.277117	-0.251536	-0.940802	-0.227203	0.218645	-0.283918	0.933587
07937		-0.942054	0.196249	0.272068	-0.258481	-0.941602	-0.215808	0.213828	-0.273627	0.937766
07938		-0.941448	0.205515	0.267281	-0.263684	-0.942828	-0.203829	0.210110	-0.262372	0.941815
07939		-0.941075	0.213050	0.262653	-0.267375	-0.944258	-0.192060	0.207094	-0.250970	0.945582
07940		-0.940831	0.218802	0.258771	-0.269799	-0.945694	-0.181304	0.205049	-0.240392	0.948771
07941		-0.940802	0.223135	0.255151	-0.271380	-0.946873	-0.172579	0.203087	-0.231606	0.951375
07942		-0.940938	0.225765	0.252321	-0.271702	-0.948158	-0.164845	0.202024	-0.223665	0.953499
07943		-0.941365	0.226146	0.250379	-0.269983	-0.949972	-0.157044	0.202338	-0.215434	0.955326
07944		-0.941960	0.223689	0.250349	-0.265639	-0.952592	-0.148340	0.205299	-0.206233	0.956724
07945		-0.942734	0.218447	0.252060	-0.258636	-0.955942	-0.138864	0.210620	-0.196104	0.957697
07946		-0.943483	0.210584	0.255917	-0.249480	-0.959596	-0.130139	0.218172	-0.186630	0.957899
07947		-0.944158	0.200638	0.261362	-0.238705	-0.963293	-0.122829	0.227124	-0.178358	0.957394
07948		-0.944616	0.188672	0.268522	-0.226607	-0.966832	-0.117837	0.237383	-0.172160	0.956039
07949		-0.944879	0.174901	0.276790	-0.213486	-0.970058	-0.115808	0.248248	-0.168515	0.953926
07950		-0.944880	0.159428	0.285981	-0.199358	-0.973007	-0.116249	0.259728	-0.166854	0.951158
07951		-0.944520	0.142604	0.295882	-0.184214	-0.975808	-0.117747	0.271933	-0.165720	0.947940
07952		-0.943630	0.123931	0.306927	-0.167263	-0.978697	-0.119063	0.285633	-0.163689	0.944256
07953		-0.942283	0.103365	0.318463	-0.148011	-0.981766	-0.119284	0.300327	-0.159535	0.940400
07954		-0.940317	0.081130	0.330487	-0.126276	-0.985014	-0.117479	0.316003	-0.152200	0.936471
07955		-0.937730	0.057699	0.342541	-0.102337	-0.988231	-0.113694	0.331949	-0.141669	0.932598
07956		-0.934305	0.033566	0.354891	-0.076802	-0.991131	-0.108451	0.348103	-0.128583	0.928596
07957		-0.930087	0.009239	0.367224	-0.050190	-0.993505	-0.102124	0.363896	-0.113415	0.924509
07958		-0.924971	-0.015075	0.379738	-0.022863	-0.995196	-0.095199	0.379349	-0.096739	0.920183
07959		-0.918962	-0.039133	0.392400	0.004604	-0.996061	-0.088552	0.394319	-0.079570	0.915522
07960		-0.912025	-0.063028	0.405262	0.031810	-0.996015	-0.083318	0.408898	-0.063096	0.910396
07961		-0.904317	-0.086705	0.417963	0.058145	-0.995048	-0.080615	0.422883	-0.048599	0.904880
07962		-0.895792	-0.110629	0.430485	0.083750	-0.993192	-0.080963	0.436512	-0.036473	0.898959
07963		-0.886476	-0.134636	0.442757	0.108351	-0.990535	-0.084269	0.449911	-0.026729	0.892673
07964		-0.876019	-0.158512	0.455482	0.132257	-0.987195	-0.089187	0.463787	-0.017889	0.885766
07965		-0.864567	-0.182048	0.468384	0.156310	-0.983259	-0.093642	0.477590	-0.007747	0.878549
07966		-0.852154	-0.205211	0.481375	0.181445	-0.978702	-0.096019	0.490827	0.005520	0.871240
07967		-0.839029	-0.228016	0.494002	0.208147	-0.973398	-0.095766	0.502697	0.022474	0.864170
07968		-0.825089	-0.250552	0.506410	0.235949	-0.967198	-0.094102	0.513377	0.041844	0.857142
07969		-0.810413	-0.272771	0.518486	0.264088	-0.960071	-0.092306	0.522962	0.062120	0.850090
07970		-0.794862	-0.294763	0.530386	0.291679	-0.952082	-0.091998	0.532088	0.081577	0.842750
07971		-0.778245	-0.316310	0.542479	0.317670	-0.943490	-0.094401	0.541683	0.098862	0.834749
07972		-0.760897	-0.337121	0.554423	0.341560	-0.934577	-0.099516	0.551700	0.113647	0.826264
07973		-0.743372	-0.356759	0.565792	0.362438	-0.925781	-0.107556	0.562171	0.125111	0.817503
07975		-0.707323	-0.393096	0.587511	0.396917	-0.908592	-0.130067	0.584936	0.141194	0.798695
07976		-0.688792	-0.409829	0.598001	0.411907	-0.900034	-0.142378	0.596572	0.148252	0.788748
07977		-0.669984	-0.425656	0.608226	0.426373	-0.891323	-0.154110	0.607724	0.156080	0.778660
07978		-0.650883	-0.440717	0.618158	0.440933	-0.882289	-0.164754	0.618004	0.165331	0.768594
07979		-0.631177	-0.455413	0.627865	0.456214	-0.872628	-0.174327	0.627283	0.176410	0.758548
07980		-0.611142	-0.469831	0.636996	0.472422	-0.862227	-0.182708	0.635077	0.189270	0.748902
07981		-0.590976	-0.484018	0.645348	0.489129	-0.851162	-0.190462	0.641483	0.203100	0.739763
07982		-0.570993	-0.497620	0.652948	0.505340	-0.839861	-0.198156	0.646992	0.216815	0.731022
07983		-0.551354	-0.510129	0.660134	0.520221	-0.828818	-0.205987	0.652211	0.229844	0.722352
07984		-0.531835	-0.521500	0.667225	0.533010	-0.818390	-0.214796	0.658067	0.241401	0.713214
07985		-0.512336	-0.531854	0.674272	0.543229	-0.808815	-0.225214	0.665142	0.250899	0.703304
07986		-0.492345	-0.541408	0.681524	0.551495	-0.799812	-0.236967	0.673387	0.259187	0.692367
07987		-0.471950	-0.550339	0.688760	0.558900	-0.790958	-0.249030	0.681831	0.267418	0.680877
07988		-0.451554	-0.558884	0.695520	0.565943	-0.782046	-0.260983	0.689788	0.275777	0.669432
07989		-0.431009	-0.566861	0.702068	0.573056	-0.772958	-0.272292	0.697021	0.284964	0.657995
07990		-0.410199	-0.574041	0.708671	0.580376	-0.763710	-0.282686	0.703492	0.295338	0.646432
07991		-0.389613	-0.580303	0.715157	0.587700	-0.754522	-0.292070	0.709091	0.306504	0.635017
07992		-0.369280	-0.585890	0.721363	0.594080	-0.745739	-0.301566	0.714633	0.317185	0.623452
07993		-0.349406	-0.591010	0.727064	0.598748	-0.737705	-0.311919	0.720706	0.326342	0.611624
07994		-0.329920	-0.595895	0.732162	0.601476	-0.730468	-0.323485	0.727584	0.333654	0.599413
07996		-0.292000	-0.604790	0.740921	0.604800	-0.716891	-0.346821	0.740913	0.346838	0.575110
07997		-0.273296	-0.608706	0.744839	0.606494	-0.710058	-0.357747	0.746642	0.353970	0.563233
07998		-0.254982	-0.612343	0.748345	0.608416	-0.703122	-0.368034	0.751541	0.361463	0.551843
07999		-0.236883	-0.615951	0.751326	0.610086	-0.696155	-0.378369	0.756097	0.368744	0.540690
08000		-0.219101	-0.619486	0.753812	0.611112	-0.689402	-0.388930	0.760616	0.375449	0.529624
08001		-0.201618	-0.623060	0.755743	0.611294	-0.682914	-0.399936	0.765291	0.381346	0.518560
08002		-0.184392	-0.626632	0.757187	0.610479	-0.676787	-0.411429	0.770269	0.386382	0.507340
08003		-0.167041	-0.629965	0.758447	0.608062	-0.671363	-0.423713	0.776118	0.390405	0.495203
08004		-0.149727	-0.633007	0.759529	0.604290	-0.666602	-0.436435	0.782570	0.393629	0.482328
08005		-0.132907	-0.635784	0.760338	0.598954	-0.662741	-0.449477	0.789677	0.395669	0.468888
08006		-0.116776	-0.638263	0.760910	0.592953	-0.659422	-0.462135	0.796725	0.397218	0.455465
08007		-0.101236	-0.640391	0.761348	0.587533	-0.656056	-0.473704	0.802843	0.399361	0.442667
08008		-0.086536	-0.642138	0.761689	0.582314	-0.652956	-0.484313	0.808345	0.401632	0.430430
08009		-0.072946	-0.643448	0.762006	0.577100	-0.650371	-0.493937	0.813409	0.403723	0.418775
08010		-0.060398	-0.644071	0.762578	0.572225	-0.648314	-0.502243	0.817870	0.406032	0.407710
08011		-0.048957	-0.643895	0.763546	0.567568	-0.646978	-0.509202	0.821870	0.408435	0.397128
08012		-0.038880	-0.643034	0.764850	0.563460	-0.646240	-0.514672	0.825228	0.410953	0.387450
08013		-0.029867	-0.641612	0.766448	0.559343	-0.646219	-0.519169	0.828398	0.413202	0.378182
08014		-0.021881	-0.639751	0.768271	0.554853	-0.647017	-0.522978	0.831660	0.414834	0.369125
08015		-0.014544	-0.637573	0.770253	0.550594	-0.648132	-0.526091	0.834646	0.416445	0.360470
08016		-0.007835	-0.635333	0.772199	0.546374	-0.649480	-0.528821	0.837505	0.417766	0.352218
08017		-0.001545	-0.633368	0.773849	0.541758	-0.650977	-0.531720	0.840533	0.418418	0.344138
08018		0.004051	-0.631583	0.775298	0.537600	-0.652359	-0.534242	0.843190	0.418964	0.336896
08019		0.008946	-0.629597	0.776870	0.534141	-0.653769	-0.535984	0.845348	0.419753	0.330445
08020		0.012940	-0.627363	0.778619	0.531324	-0.655341	-0.536864	0.847070	0.420646	0.324853
08021		0.015922	-0.625030	0.780439	0.530235	-0.656469	-0.536563	0.847701	0.422359	0.320960
08022		0.017875	-0.622594	0.782341	0.530778	-0.657198	-0.535132	0.847322	0.424815	0.318712
08023		0.018852	-0.620229	0.784194	0.531945	-0.657889	-0.533121	0.846569	0.427198	0.317525
08024		0.018813	-0.618195	0.785800	0.532704	-0.658897	-0.531113	0.846093	0.428590	0.316919
08025		0.018025	-0.616584	0.787083	0.532626	-0.660292	-0.529456	0.846159	0.428764	0.316507
08026		0.017018	-0.615349	0.788071	0.531863	-0.661850	-0.528277	0.846660	0.428136	0.316018
08027		0.015664	-0.614286	0.788928	0.530732	-0.663590	-0.527231	0.847395	0.426968	0.315626
08028		0.014212	-0.613248	0.789763	0.529304	-0.665487	-0.526273	0.848313	0.425504	0.315137
08029		0.012825	-0.612256	0.790555	0.527350	-0.667586	-0.525576	0.849551	0.423640	0.314312
08030		0.011077	-0.611211	0.791390	0.524698	-0.670174	-0.524937	0.851216	0.421056	0.313278
08031		0.008582	-0.610027	0.792334	0.522502	-0.672854	-0.523698	0.852595	0.418490	0.312966
08032		0.005397	-0.608754	0.793340	0.521317	-0.675301	-0.521725	0.853346	0.416397	0.313709
08033		0.001542	-0.607607	0.794236	0.521025	-0.677426	-0.519256	0.853540	0.414617	0.315534
08034		-0.002566	-0.606748	0.794890	0.521434	-0.679086	-0.516670	0.853288	0.413157	0.318121
08035		-0.007289	-0.605990	0.795439	0.522428	-0.680577	-0.513697	0.852652	0.411815	0.321547
08036		-0.012556	-0.605233	0.795949	0.523533	-0.682165	-0.510454	0.851913	0.410296	0.325425
08037		-0.017954	-0.604202	0.796629	0.524202	-0.684161	-0.507086	0.851405	0.408490	0.329008
08038		-0.023670	-0.602848	0.797505	0.524660	-0.686534	-0.503391	0.850983	0.406503	0.332540
08039		-0.029448	-0.601379	0.798421	0.525627	-0.688727	-0.499371	0.850205	0.404966	0.336383
08040		-0.035578	-0.600333	0.798959	0.525115	-0.691435	-0.496157	0.850287	0.401893	0.339844
08041		-0.042235	-0.599695	0.799114	0.527246	-0.692768	-0.492021	0.848663	0.400549	0.345445
08042		-0.049253	-0.599103	0.799156	0.530104	-0.693811	-0.487458	0.846501	0.399627	0.351759
08043		-0.056643	-0.598468	0.799142	0.531927	-0.695453	-0.483113	0.844893	0.397720	0.357734
08044		-0.063492	-0.597349	0.799464	0.532738	-0.697682	-0.478989	0.843895	0.395493	0.362528
08045		-0.069713	-0.596895	0.799285	0.532670	-0.699720	-0.476083	0.843447	0.392565	0.366728
08046		-0.078935	-0.595081	0.799780	0.534759	-0.702358	-0.469815	0.841310	0.390605	0.373665
08047		-0.077461	-0.588423	0.804835	0.533387	-0.706477	-0.465176	0.842317	0.393255	0.368582
08048		-0.086735	-0.589058	0.803423	0.529395	-0.710425	-0.463721	0.843930	0.385107	0.373462
08049		-0.095112	-0.589035	0.802491	0.528645	-0.712966	-0.460667	0.843497	0.380418	0.379202
08050		-0.103409	-0.588463	0.801884	0.531090	-0.714326	-0.455720	0.840981	0.378747	0.386395
08051		-0.112505	-0.586863	0.801832	0.532499	-0.716906	-0.449990	0.838920	0.376349	0.393159
08052		-0.120911	-0.583766	0.802869	0.532036	-0.720932	-0.444066	0.838044	0.373463	0.397753
08053		-0.129917	-0.579461	0.804578	0.530476	-0.726175	-0.437338	0.837685	0.369992	0.401733
08054		-0.137966	-0.574316	0.806924	0.528964	-0.731519	-0.430207	0.837354	0.367480	0.404718
08055		-0.146761	-0.568857	0.809236	0.526936	-0.737314	-0.422736	0.837138	0.364375	0.407960
08056		-0.156386	-0.563508	0.811173	0.526426	-0.742459	-0.414284	0.835715	0.362234	0.412756
08057		-0.166679	-0.558398	0.812656	0.527614	-0.746773	-0.404912	0.832971	0.361279	0.419090
08058		-0.177201	-0.553602	0.813710	0.530061	-0.750318	-0.395043	0.829238	0.361314	0.426400
08059		-0.187868	-0.548814	0.814560	0.533008	-0.753556	-0.384780	0.824989	0.361879	0.434092
08060		-0.198886	-0.543814	0.815298	0.535718	-0.756950	-0.374210	0.820641	0.362344	0.441877
08061		-0.209898	-0.538714	0.815923	0.538429	-0.760261	-0.363452	0.816111	0.363028	0.449637
08062		-0.220818	-0.533510	0.816460	0.540528	-0.763747	-0.352875	0.811831	0.363398	0.457026
08063		-0.231853	-0.528313	0.816780	0.541518	-0.767623	-0.342801	0.808086	0.362821	0.464067
08064		-0.243032	-0.522941	0.816988	0.541525	-0.771919	-0.333005	0.804790	0.361488	0.470786
08065		-0.254459	-0.517335	0.817077	0.540565	-0.776661	-0.323400	0.801898	0.359391	0.477281
08066		-0.266204	-0.511728	0.816866	0.538447	-0.781844	-0.314316	0.799506	0.356167	0.483668
08067		-0.278015	-0.506237	0.816353	0.535679	-0.787146	-0.305696	0.797343	0.352315	0.490018
08068		-0.289643	-0.500848	0.815634	0.532466	-0.792440	-0.297520	0.795353	0.348123	0.496209
08069		-0.301017	-0.495397	0.814844	0.529260	-0.797584	-0.289386	0.793267	0.344154	0.502280
08070		-0.311933	-0.489931	0.814043	0.526163	-0.802490	-0.281357	0.791107	0.340555	0.508107
08071		-0.322681	-0.484308	0.813218	0.523494	-0.807123	-0.272958	0.788563	0.337636	0.513975
08072		-0.333658	-0.478824	0.812035	0.521278	-0.811434	-0.264281	0.785457	0.335116	0.520341
08073		-0.344663	-0.473783	0.810393	0.519154	-0.815457	-0.255945	0.782103	0.332504	0.527025
08074		-0.355587	-0.469250	0.808308	0.517050	-0.819205	-0.248117	0.778599	0.329709	0.533925
08075		-0.366464	-0.465003	0.805901	0.514992	-0.822752	-0.240545	0.774911	0.326882	0.540982
08076		-0.377136	-0.460943	0.803306	0.512627	-0.826266	-0.233450	0.771351	0.323754	0.547906
08077		-0.387507	-0.456953	0.800645	0.509066	-0.830144	-0.227404	0.768564	0.319461	0.554306
08078		-0.397342	-0.452971	0.798083	0.504187	-0.834420	-0.222574	0.766756	0.313945	0.559932
08079		-0.406515	-0.449286	0.795543	0.498197	-0.838899	-0.219198	0.765862	0.307230	0.564858
08080		-0.415105	-0.445921	0.792996	0.491482	-0.843419	-0.217001	0.765593	0.299665	0.569270
08081		-0.423061	-0.442718	0.790582	0.484376	-0.847877	-0.215601	0.765767	0.291726	0.573146
08082		-0.430587	-0.439654	0.788225	0.476918	-0.852283	-0.214856	0.766253	0.283405	0.576661
08083		-0.438004	-0.437115	0.785547	0.469549	-0.856397	-0.214728	0.766601	0.274801	0.580352
08084		-0.445562	-0.435379	0.782253	0.462474	-0.860099	-0.215286	0.766546	0.265849	0.584579
08085		-0.453239	-0.434266	0.778452	0.455606	-0.863472	-0.216426	0.766158	0.256574	0.589213
08086		-0.460847	-0.433689	0.774296	0.448419	-0.866693	-0.218550	0.765859	0.246491	0.593887
08087		-0.468114	-0.433755	0.769887	0.440391	-0.869849	-0.222304	0.766111	0.234988	0.598210
08088		-0.475217	-0.434516	0.765092	0.431796	-0.872811	-0.227493	0.766630	0.222255	0.602396
08089		-0.482621	-0.435738	0.759743	0.422518	-0.875673	-0.233827	0.767174	0.208155	0.606725
08090		-0.490233	-0.437244	0.753982	0.413122	-0.878285	-0.240720	0.767464	0.193478	0.611199
08091		-0.497859	-0.439090	0.747888	0.403486	-0.880617	-0.248421	0.767682	0.178084	0.615589
08092		-0.505535	-0.441268	0.741429	0.393715	-0.882620	-0.256849	0.767739	0.162066	0.619928
08093		-0.513555	-0.443926	0.734296	0.384619	-0.884075	-0.265480	0.767026	0.146085	0.624764
08094		-0.522045	-0.447422	0.726142	0.376296	-0.884846	-0.274679	0.765422	0.129850	0.630293
08095		-0.530805	-0.451816	0.717014	0.368927	-0.884858	-0.284463	0.762980	0.113531	0.636374
08096		-0.539388	-0.456892	0.707327	0.362278	-0.884196	-0.294876	0.760142	0.097196	0.642446
08097		-0.547730	-0.462372	0.697283	0.356438	-0.882960	-0.305507	0.756931	0.081203	0.648430
