// Start Time: Unknown
// Update Rate: 100.0Hz
// Filter Profile: human (46.1)
// Option Flags: AHS Disabled ICC Disabled 
// Firmware Version: 4.0.2
PacketCounter	SampleTimeFine	Mat[1][1]	Mat[2][1]	Mat[3][1]	Mat[1][2]	Mat[2][2]	Mat[3][2]	Mat[1][3]	Mat[2][3]	Mat[3][3]
51869		-0.250183	0.006416	-0.968177	0.924717	0.297893	-0.236979	0.286892	-0.954578	-0.080460
51870		-0.250133	0.006506	-0.968190	0.924660	0.298143	-0.236884	0.287118	-0.954499	-0.080591
51871		-0.250076	0.006651	-0.968203	0.924624	0.298346	-0.236771	0.287285	-0.954435	-0.080759
51872		-0.250051	0.006711	-0.968210	0.924573	0.298552	-0.236711	0.287472	-0.954370	-0.080858
51873		-0.250001	0.006856	-0.968221	0.924544	0.298720	-0.236608	0.287605	-0.954316	-0.081019
51874		-0.249928	0.006990	-0.968239	0.924534	0.298848	-0.236489	0.287703	-0.954275	-0.081153
51875		-0.249899	0.007109	-0.968246	0.924523	0.298936	-0.236420	0.287763	-0.954247	-0.081276
51876		-0.249879	0.007193	-0.968250	0.924482	0.299109	-0.236361	0.287912	-0.954192	-0.081391
51877		-0.249936	0.007244	-0.968235	0.924419	0.299283	-0.236387	0.288064	-0.954137	-0.081498
51878		-0.249942	0.007245	-0.968234	0.924376	0.299420	-0.236380	0.288196	-0.954094	-0.081535
51879		-0.250044	0.007242	-0.968207	0.924323	0.299513	-0.236471	0.288279	-0.954065	-0.081585
51880		-0.250075	0.007177	-0.968200	0.924274	0.299636	-0.236508	0.288411	-0.954026	-0.081565
51881		-0.250093	0.007130	-0.968195	0.924254	0.299675	-0.236536	0.288458	-0.954015	-0.081536
51882		-0.250100	0.007018	-0.968195	0.924214	0.299774	-0.236566	0.288579	-0.953984	-0.081460
51883		-0.250107	0.006911	-0.968194	0.924162	0.299914	-0.236592	0.288740	-0.953941	-0.081398
51884		-0.250134	0.006780	-0.968187	0.924067	0.300175	-0.236634	0.289022	-0.953860	-0.081349
51885		-0.250180	0.006679	-0.968176	0.923966	0.300446	-0.236683	0.289304	-0.953776	-0.081337
51886		-0.250282	0.006560	-0.968151	0.923830	0.300781	-0.236787	0.289648	-0.953671	-0.081340
51887		-0.250406	0.006481	-0.968119	0.923713	0.301050	-0.236904	0.289916	-0.953586	-0.081371
51888		-0.250573	0.006449	-0.968076	0.923590	0.301312	-0.237052	0.290164	-0.953504	-0.081457
51889		-0.250720	0.006433	-0.968038	0.923508	0.301457	-0.237184	0.290296	-0.953458	-0.081522
51890		-0.250893	0.006442	-0.967993	0.923433	0.301567	-0.237336	0.290386	-0.953423	-0.081610
51891		-0.251080	0.006461	-0.967945	0.923371	0.301624	-0.237505	0.290421	-0.953405	-0.081698
51892		-0.251256	0.006474	-0.967899	0.923294	0.301739	-0.237658	0.290515	-0.953368	-0.081792
51893		-0.251448	0.006497	-0.967849	0.923227	0.301809	-0.237829	0.290561	-0.953346	-0.081888
51894		-0.251615	0.006473	-0.967806	0.923121	0.302018	-0.237977	0.290755	-0.953280	-0.081968
51895		-0.251757	0.006500	-0.967769	0.923027	0.302217	-0.238088	0.290928	-0.953217	-0.082085
51896		-0.251876	0.006422	-0.967738	0.922902	0.302510	-0.238199	0.291221	-0.953125	-0.082122
51897		-0.252053	0.006429	-0.967692	0.922791	0.302735	-0.238347	0.291422	-0.953053	-0.082238
51898		-0.252182	0.006408	-0.967658	0.922683	0.302978	-0.238455	0.291651	-0.952976	-0.082319
51899		-0.252280	0.006420	-0.967633	0.922622	0.303101	-0.238534	0.291759	-0.952937	-0.082389
51900		-0.252329	0.006413	-0.967620	0.922577	0.303207	-0.238574	0.291860	-0.952903	-0.082425
51901		-0.252366	0.006437	-0.967610	0.922566	0.303219	-0.238601	0.291863	-0.952899	-0.082461
51902		-0.252421	0.006469	-0.967596	0.922525	0.303315	-0.238636	0.291943	-0.952868	-0.082531
51903		-0.252460	0.006522	-0.967585	0.922470	0.303479	-0.238643	0.292085	-0.952816	-0.082633
51904		-0.252558	0.006507	-0.967560	0.922386	0.303670	-0.238725	0.292266	-0.952755	-0.082696
51905		-0.252667	0.006525	-0.967531	0.922315	0.303819	-0.238809	0.292396	-0.952707	-0.082783
51906		-0.252750	0.006502	-0.967510	0.922251	0.303954	-0.238884	0.292525	-0.952665	-0.082821
51907		-0.252774	0.006522	-0.967503	0.922236	0.303987	-0.238899	0.292550	-0.952654	-0.082855
51908		-0.252748	0.006504	-0.967510	0.922248	0.303964	-0.238881	0.292535	-0.952661	-0.082825
51909		-0.252697	0.006514	-0.967524	0.922292	0.303866	-0.238838	0.292442	-0.952692	-0.082794
51910		-0.252635	0.006484	-0.967540	0.922331	0.303782	-0.238794	0.292372	-0.952720	-0.082727
51911		-0.252497	0.006512	-0.967576	0.922384	0.303726	-0.238659	0.292324	-0.952737	-0.082696
51912		-0.252392	0.006507	-0.967603	0.922391	0.303787	-0.238556	0.292393	-0.952718	-0.082676
51913		-0.252272	0.006570	-0.967634	0.922437	0.303747	-0.238426	0.292350	-0.952730	-0.082688
51914		-0.252149	0.006624	-0.967666	0.922485	0.303704	-0.238297	0.292305	-0.952743	-0.082689
51915		-0.252068	0.006687	-0.967686	0.922536	0.303617	-0.238209	0.292213	-0.952771	-0.082701
51916		-0.251996	0.006746	-0.967705	0.922596	0.303496	-0.238133	0.292088	-0.952809	-0.082704
51917		-0.251931	0.006815	-0.967721	0.922685	0.303273	-0.238071	0.291861	-0.952879	-0.082692
51918		-0.251923	0.006852	-0.967723	0.922741	0.303105	-0.238067	0.291690	-0.952933	-0.082682
51919		-0.251927	0.006896	-0.967722	0.922822	0.302849	-0.238080	0.291431	-0.953014	-0.082660
51920		-0.251942	0.006911	-0.967718	0.922883	0.302641	-0.238108	0.291225	-0.953080	-0.082626
51921		-0.251965	0.006964	-0.967711	0.922923	0.302504	-0.238127	0.291078	-0.953123	-0.082648
51922		-0.252029	0.006979	-0.967695	0.922917	0.302475	-0.238185	0.291041	-0.953132	-0.082674
51923		-0.252059	0.007009	-0.967687	0.922918	0.302455	-0.238207	0.291012	-0.953138	-0.082705
51924		-0.252085	0.006992	-0.967680	0.922894	0.302509	-0.238233	0.291066	-0.953121	-0.082711
51925		-0.252085	0.007039	-0.967679	0.922887	0.302543	-0.238216	0.291088	-0.953110	-0.082763
51926		-0.252118	0.006995	-0.967671	0.922853	0.302617	-0.238254	0.291168	-0.953086	-0.082751
51927		-0.252087	0.006991	-0.967679	0.922882	0.302548	-0.238231	0.291104	-0.953108	-0.082721
51928		-0.252036	0.006959	-0.967693	0.922916	0.302468	-0.238199	0.291039	-0.953134	-0.082655
51929		-0.251988	0.006983	-0.967705	0.922961	0.302365	-0.238155	0.290937	-0.953167	-0.082637
51930		-0.251947	0.006962	-0.967716	0.922985	0.302315	-0.238126	0.290897	-0.953183	-0.082593
51931		-0.251909	0.006993	-0.967726	0.923020	0.302238	-0.238088	0.290818	-0.953207	-0.082592
51932		-0.251878	0.006983	-0.967734	0.923045	0.302181	-0.238066	0.290768	-0.953225	-0.082558
51933		-0.251856	0.006997	-0.967739	0.923070	0.302120	-0.238046	0.290708	-0.953244	-0.082549
51934		-0.251821	0.007000	-0.967748	0.923083	0.302103	-0.238014	0.290694	-0.953249	-0.082537
51935		-0.251846	0.007026	-0.967742	0.923089	0.302070	-0.238033	0.290654	-0.953260	-0.082560
51936		-0.251838	0.006992	-0.967744	0.923078	0.302106	-0.238031	0.290697	-0.953249	-0.082536
51937		-0.251895	0.006973	-0.967729	0.923057	0.302123	-0.238090	0.290713	-0.953243	-0.082540
51938		-0.251986	0.006910	-0.967706	0.923009	0.302194	-0.238189	0.290789	-0.953221	-0.082527
51939		-0.252098	0.006857	-0.967677	0.922955	0.302265	-0.238305	0.290861	-0.953199	-0.082529
51940		-0.252242	0.006782	-0.967641	0.922881	0.302374	-0.238454	0.290973	-0.953165	-0.082530
51941		-0.252383	0.006704	-0.967604	0.922814	0.302458	-0.238605	0.291060	-0.953139	-0.082522
51942		-0.252546	0.006636	-0.967562	0.922732	0.302579	-0.238770	0.291180	-0.953101	-0.082538
51943		-0.252666	0.006611	-0.967531	0.922682	0.302640	-0.238886	0.291234	-0.953082	-0.082566
51944		-0.252789	0.006553	-0.967499	0.922613	0.302752	-0.239010	0.291346	-0.953047	-0.082578
51945		-0.252828	0.006555	-0.967489	0.922589	0.302801	-0.239043	0.291390	-0.953031	-0.082604
51946		-0.252877	0.006537	-0.967476	0.922559	0.302856	-0.239090	0.291443	-0.953014	-0.082616
51947		-0.252864	0.006524	-0.967480	0.922558	0.302864	-0.239081	0.291455	-0.953012	-0.082602
51948		-0.252828	0.006517	-0.967489	0.922561	0.302882	-0.239047	0.291477	-0.953006	-0.082589
51949		-0.252783	0.006549	-0.967501	0.922587	0.302840	-0.238998	0.291433	-0.953019	-0.082594
51950		-0.252698	0.006540	-0.967523	0.922609	0.302836	-0.238920	0.291439	-0.953020	-0.082560
51951		-0.252646	0.006578	-0.967536	0.922647	0.302763	-0.238866	0.291363	-0.953043	-0.082561
51952		-0.252586	0.006578	-0.967552	0.922659	0.302773	-0.238808	0.291378	-0.953040	-0.082546
51953		-0.252589	0.006599	-0.967551	0.922691	0.302669	-0.238814	0.291271	-0.953073	-0.082540
51954		-0.252598	0.006608	-0.967549	0.922695	0.302653	-0.238821	0.291254	-0.953078	-0.082547
51955		-0.252650	0.006630	-0.967535	0.922701	0.302596	-0.238869	0.291189	-0.953096	-0.082569
51956		-0.252713	0.006622	-0.967519	0.922687	0.302590	-0.238932	0.291179	-0.953098	-0.082578
51957		-0.252785	0.006631	-0.967500	0.922678	0.302561	-0.239000	0.291143	-0.953107	-0.082601
51958		-0.252871	0.006621	-0.967477	0.922630	0.302650	-0.239077	0.291224	-0.953079	-0.082640
51959		-0.252952	0.006602	-0.967456	0.922596	0.302690	-0.239157	0.291260	-0.953066	-0.082658
51960		-0.253024	0.006603	-0.967437	0.922580	0.302683	-0.239227	0.291247	-0.953069	-0.082678
51961		-0.253049	0.006628	-0.967431	0.922586	0.302650	-0.239246	0.291207	-0.953079	-0.082701
51962		-0.253033	0.006598	-0.967435	0.922589	0.302643	-0.239240	0.291209	-0.953081	-0.082667
51963		-0.253015	0.006581	-0.967440	0.922594	0.302638	-0.239228	0.291210	-0.953083	-0.082644
51964		-0.252979	0.006522	-0.967450	0.922562	0.302758	-0.239200	0.291343	-0.953045	-0.082609
51965		-0.252912	0.006480	-0.967468	0.922545	0.302858	-0.239140	0.291455	-0.953014	-0.082575
51966		-0.252834	0.006417	-0.967488	0.922511	0.303017	-0.239070	0.291631	-0.952964	-0.082532
51967		-0.252778	0.006372	-0.967503	0.922477	0.303162	-0.239017	0.291787	-0.952918	-0.082511
51968		-0.252729	0.006249	-0.967517	0.922407	0.303398	-0.238986	0.292049	-0.952843	-0.082442
51969		-0.252707	0.006166	-0.967523	0.922367	0.303526	-0.238978	0.292195	-0.952803	-0.082390
51970		-0.252700	0.006108	-0.967525	0.922327	0.303649	-0.238978	0.292328	-0.952764	-0.082366
51971		-0.252696	0.006067	-0.967527	0.922301	0.303726	-0.238980	0.292413	-0.952740	-0.082346
51972		-0.252713	0.006017	-0.967523	0.922269	0.303805	-0.239004	0.292500	-0.952715	-0.082325
51973		-0.252750	0.006011	-0.967513	0.922263	0.303793	-0.239041	0.292487	-0.952719	-0.082327
51974		-0.252783	0.005968	-0.967505	0.922243	0.303820	-0.239083	0.292521	-0.952711	-0.082304
51975		-0.252852	0.005928	-0.967487	0.922178	0.303968	-0.239148	0.292667	-0.952664	-0.082326
51976		-0.252951	0.005851	-0.967461	0.922072	0.304212	-0.239244	0.292914	-0.952586	-0.082346
51977		-0.253056	0.005764	-0.967434	0.921955	0.304489	-0.239346	0.293193	-0.952499	-0.082367
51978		-0.253157	0.005661	-0.967409	0.921838	0.304760	-0.239448	0.293472	-0.952412	-0.082371
51979		-0.253261	0.005562	-0.967382	0.921753	0.304927	-0.239563	0.293649	-0.952359	-0.082353
51980		-0.253314	0.005437	-0.967369	0.921690	0.305059	-0.239638	0.293801	-0.952318	-0.082287
51981		-0.253350	0.005367	-0.967360	0.921674	0.305065	-0.239692	0.293821	-0.952316	-0.082235
51982		-0.253275	0.005296	-0.967380	0.921653	0.305176	-0.239632	0.293952	-0.952281	-0.082174
51983		-0.253275	0.005240	-0.967380	0.921634	0.305224	-0.239644	0.294012	-0.952266	-0.082135
51984		-0.253204	0.005231	-0.967399	0.921627	0.305299	-0.239573	0.294093	-0.952242	-0.082124
51985		-0.253175	0.005229	-0.967406	0.921616	0.305359	-0.239541	0.294153	-0.952223	-0.082128
51986		-0.253139	0.005247	-0.967416	0.921597	0.305455	-0.239493	0.294246	-0.952192	-0.082158
51987		-0.253147	0.005329	-0.967413	0.921614	0.305413	-0.239481	0.294184	-0.952205	-0.082226
51988		-0.253173	0.005400	-0.967406	0.921650	0.305293	-0.239495	0.294049	-0.952243	-0.082269
51989		-0.253194	0.005520	-0.967400	0.921726	0.305059	-0.239499	0.293792	-0.952317	-0.082327
51990		-0.253284	0.005566	-0.967376	0.921783	0.304815	-0.239593	0.293537	-0.952395	-0.082335
51991		-0.253298	0.005635	-0.967372	0.921881	0.304501	-0.239613	0.293215	-0.952495	-0.082324
51992		-0.253362	0.005684	-0.967355	0.921967	0.304181	-0.239687	0.292889	-0.952597	-0.082308
51993		-0.253422	0.005729	-0.967339	0.922031	0.303937	-0.239752	0.292637	-0.952675	-0.082307
51994		-0.253484	0.005757	-0.967322	0.922073	0.303758	-0.239819	0.292451	-0.952732	-0.082307
51995		-0.253549	0.005783	-0.967305	0.922083	0.303679	-0.239879	0.292363	-0.952757	-0.082330
51996		-0.253629	0.005771	-0.967284	0.922062	0.303679	-0.239960	0.292359	-0.952757	-0.082343
51997		-0.253675	0.005783	-0.967272	0.922053	0.303676	-0.240000	0.292349	-0.952758	-0.082367
51998		-0.253707	0.005771	-0.967264	0.922025	0.303736	-0.240029	0.292407	-0.952739	-0.082381
51999		-0.253759	0.005800	-0.967250	0.922052	0.303612	-0.240081	0.292276	-0.952778	-0.082392
52000		-0.253747	0.005789	-0.967253	0.922070	0.303561	-0.240078	0.292231	-0.952794	-0.082365
52001		-0.253760	0.005811	-0.967250	0.922072	0.303550	-0.240084	0.292214	-0.952798	-0.082387
52002		-0.253778	0.005785	-0.967245	0.922030	0.303667	-0.240098	0.292331	-0.952761	-0.082398
52003		-0.253799	0.005808	-0.967239	0.922001	0.303749	-0.240105	0.292403	-0.952734	-0.082446
52004		-0.253841	0.005785	-0.967229	0.921954	0.303864	-0.240142	0.292516	-0.952698	-0.082466
52005		-0.253829	0.005783	-0.967232	0.921921	0.303981	-0.240120	0.292632	-0.952661	-0.082490
52006		-0.253801	0.005743	-0.967239	0.921878	0.304132	-0.240093	0.292789	-0.952613	-0.082483
52007		-0.253755	0.005722	-0.967252	0.921862	0.304218	-0.240048	0.292882	-0.952585	-0.082472
52008		-0.253708	0.005732	-0.967264	0.921857	0.304272	-0.239995	0.292936	-0.952568	-0.082480
52009		-0.253622	0.005756	-0.967286	0.921858	0.304344	-0.239900	0.293007	-0.952545	-0.082495
52010		-0.253529	0.005768	-0.967311	0.921852	0.304444	-0.239799	0.293108	-0.952513	-0.082503
52011		-0.253430	0.005800	-0.967336	0.921856	0.304518	-0.239688	0.293181	-0.952489	-0.082521
52012		-0.253320	0.005830	-0.967365	0.921865	0.304586	-0.239569	0.293249	-0.952467	-0.082532
52013		-0.253202	0.005900	-0.967395	0.921892	0.304608	-0.239435	0.293263	-0.952460	-0.082567
52014		-0.253121	0.005953	-0.967416	0.921901	0.304658	-0.239337	0.293307	-0.952443	-0.082603
52015		-0.253082	0.006052	-0.967426	0.921932	0.304612	-0.239275	0.293242	-0.952457	-0.082671
52016		-0.252963	0.006061	-0.967457	0.921981	0.304552	-0.239164	0.293191	-0.952477	-0.082628
52017		-0.252929	0.006152	-0.967465	0.922040	0.304410	-0.239117	0.293035	-0.952521	-0.082666
52018		-0.252897	0.006225	-0.967473	0.922084	0.304311	-0.239074	0.292924	-0.952552	-0.082699
52019		-0.252873	0.006324	-0.967479	0.922133	0.304195	-0.239033	0.292791	-0.952589	-0.082754
52020		-0.252883	0.006374	-0.967476	0.922160	0.304111	-0.239035	0.292697	-0.952615	-0.082782
52021		-0.252922	0.006392	-0.967465	0.922162	0.304076	-0.239070	0.292655	-0.952626	-0.082802
52022		-0.252938	0.006399	-0.967461	0.922147	0.304116	-0.239079	0.292691	-0.952613	-0.082824
52023		-0.253019	0.006380	-0.967440	0.922113	0.304157	-0.239159	0.292728	-0.952601	-0.082841
52024		-0.253008	0.006344	-0.967443	0.922074	0.304283	-0.239148	0.292859	-0.952561	-0.082836
52025		-0.253003	0.006314	-0.967445	0.922055	0.304341	-0.239147	0.292924	-0.952542	-0.082821
52026		-0.252978	0.006274	-0.967452	0.922032	0.304426	-0.239127	0.293017	-0.952515	-0.082798
52027		-0.252971	0.006254	-0.967454	0.922020	0.304466	-0.239123	0.293061	-0.952503	-0.082787
52028		-0.252945	0.006215	-0.967461	0.921991	0.304572	-0.239101	0.293175	-0.952469	-0.082770
52029		-0.252903	0.006209	-0.967472	0.921976	0.304653	-0.239056	0.293259	-0.952443	-0.082772
52030		-0.252816	0.006172	-0.967495	0.921972	0.304726	-0.238976	0.293346	-0.952420	-0.082731
52031		-0.252739	0.006129	-0.967515	0.921985	0.304733	-0.238915	0.293370	-0.952418	-0.082669
52032		-0.252664	0.006122	-0.967535	0.921997	0.304753	-0.238844	0.293397	-0.952412	-0.082645
52033		-0.252581	0.006115	-0.967556	0.922018	0.304752	-0.238767	0.293405	-0.952412	-0.082612
52034		-0.252512	0.006102	-0.967574	0.922033	0.304755	-0.238705	0.293416	-0.952411	-0.082581
52035		-0.252458	0.006116	-0.967588	0.922062	0.304706	-0.238654	0.293370	-0.952427	-0.082565
52036		-0.252430	0.006075	-0.967596	0.922079	0.304663	-0.238643	0.293341	-0.952441	-0.082508
52037		-0.252421	0.006093	-0.967598	0.922108	0.304581	-0.238636	0.293258	-0.952467	-0.082501
52038		-0.252411	0.006115	-0.967601	0.922133	0.304513	-0.238626	0.293188	-0.952488	-0.082502
52039		-0.252416	0.006126	-0.967600	0.922159	0.304428	-0.238634	0.293103	-0.952516	-0.082491
52040		-0.252429	0.006128	-0.967596	0.922183	0.304338	-0.238654	0.293014	-0.952544	-0.082475
52041		-0.252414	0.006142	-0.967600	0.922217	0.304243	-0.238644	0.292920	-0.952575	-0.082460
52042		-0.252419	0.006143	-0.967599	0.922253	0.304123	-0.238658	0.292803	-0.952613	-0.082432
52043		-0.252415	0.006171	-0.967599	0.922298	0.303987	-0.238658	0.292665	-0.952656	-0.082423
52044		-0.252391	0.006167	-0.967606	0.922323	0.303925	-0.238642	0.292608	-0.952676	-0.082396
52045		-0.252376	0.006181	-0.967610	0.922357	0.303830	-0.238632	0.292514	-0.952706	-0.082380
52046		-0.252328	0.006186	-0.967622	0.922387	0.303770	-0.238591	0.292458	-0.952725	-0.082355
52047		-0.252294	0.006203	-0.967631	0.922429	0.303664	-0.238562	0.292355	-0.952759	-0.082334
52048		-0.252284	0.006189	-0.967633	0.922443	0.303624	-0.238560	0.292320	-0.952772	-0.082309
52049		-0.252239	0.006192	-0.967645	0.922475	0.303558	-0.238522	0.292260	-0.952793	-0.082281
52050		-0.252231	0.006160	-0.967647	0.922512	0.303435	-0.238534	0.292149	-0.952832	-0.082218
52051		-0.252228	0.006142	-0.967648	0.922534	0.303361	-0.238543	0.292081	-0.952856	-0.082182
52052		-0.252226	0.006090	-0.967649	0.922544	0.303317	-0.238560	0.292052	-0.952870	-0.082123
52053		-0.252250	0.006069	-0.967643	0.922567	0.303218	-0.238597	0.291959	-0.952902	-0.082085
52054		-0.252268	0.006031	-0.967639	0.922562	0.303212	-0.238626	0.291960	-0.952904	-0.082055
52055		-0.252313	0.006014	-0.967627	0.922558	0.303184	-0.238677	0.291934	-0.952913	-0.082046
52056		-0.252312	0.005925	-0.967628	0.922554	0.303176	-0.238703	0.291947	-0.952916	-0.081961
52057		-0.252362	0.005848	-0.967615	0.922535	0.303180	-0.238772	0.291965	-0.952916	-0.081906
52058		-0.252399	0.005769	-0.967606	0.922509	0.303213	-0.238828	0.292013	-0.952905	-0.081853
52059		-0.252433	0.005710	-0.967597	0.922500	0.303202	-0.238879	0.292013	-0.952909	-0.081805
52060		-0.252489	0.005647	-0.967583	0.922476	0.303217	-0.238949	0.292039	-0.952905	-0.081768
52061		-0.252532	0.005577	-0.967572	0.922469	0.303189	-0.239013	0.292025	-0.952914	-0.081709
52062		-0.252594	0.005530	-0.967557	0.922456	0.303170	-0.239087	0.292012	-0.952921	-0.081680
52063		-0.252608	0.005548	-0.967553	0.922472	0.303111	-0.239100	0.291949	-0.952939	-0.081686
52064		-0.252600	0.005568	-0.967555	0.922463	0.303152	-0.239084	0.291985	-0.952926	-0.081712
52065		-0.252623	0.005597	-0.967549	0.922455	0.303168	-0.239095	0.291992	-0.952921	-0.081750
52066		-0.252624	0.005600	-0.967548	0.922416	0.303294	-0.239084	0.292112	-0.952881	-0.081785
52067		-0.252574	0.005640	-0.967561	0.922415	0.303349	-0.239021	0.292161	-0.952863	-0.081820
52068		-0.252527	0.005684	-0.967573	0.922412	0.303406	-0.238958	0.292210	-0.952844	-0.081862
52069		-0.252425	0.005761	-0.967599	0.922478	0.303293	-0.238848	0.292090	-0.952880	-0.081873
52070		-0.252326	0.005842	-0.967625	0.922551	0.303155	-0.238741	0.291946	-0.952923	-0.081883
52071		-0.252161	0.005896	-0.967667	0.922651	0.302974	-0.238584	0.291771	-0.952981	-0.081838
52072		-0.252009	0.005966	-0.967707	0.922724	0.302875	-0.238427	0.291672	-0.953012	-0.081832
52073		-0.251828	0.006059	-0.967753	0.922808	0.302769	-0.238237	0.291562	-0.953045	-0.081837
52074		-0.251647	0.006123	-0.967800	0.922872	0.302720	-0.238050	0.291515	-0.953060	-0.081829
52075		-0.251475	0.006205	-0.967844	0.922958	0.302598	-0.237873	0.291391	-0.953098	-0.081823
52076		-0.251332	0.006246	-0.967881	0.922999	0.302589	-0.237724	0.291385	-0.953101	-0.081815
52077		-0.251230	0.006270	-0.967907	0.923022	0.302603	-0.237619	0.291401	-0.953096	-0.081810
52078		-0.251189	0.006223	-0.967918	0.922981	0.302756	-0.237581	0.291564	-0.953048	-0.081793
52079		-0.251184	0.006191	-0.967919	0.922962	0.302815	-0.237581	0.291629	-0.953029	-0.081777
52080		-0.251192	0.006098	-0.967918	0.922915	0.302940	-0.237604	0.291772	-0.952990	-0.081724
52081		-0.251233	0.006038	-0.967908	0.922914	0.302893	-0.237665	0.291738	-0.953005	-0.081670
52082		-0.251248	0.005931	-0.967905	0.922907	0.302879	-0.237712	0.291748	-0.953011	-0.081572
52083		-0.251242	0.005888	-0.967906	0.922921	0.302828	-0.237723	0.291710	-0.953027	-0.081518
52084		-0.251211	0.005834	-0.967915	0.922923	0.302832	-0.237709	0.291729	-0.953026	-0.081459
52085		-0.251174	0.005802	-0.967924	0.922908	0.302903	-0.237677	0.291808	-0.953004	-0.081436
52086		-0.251112	0.005773	-0.967941	0.922886	0.303019	-0.237616	0.291933	-0.952967	-0.081420
52087		-0.251072	0.005767	-0.967951	0.922831	0.303228	-0.237562	0.292140	-0.952900	-0.081455
52088		-0.251020	0.005750	-0.967965	0.922784	0.303418	-0.237501	0.292332	-0.952840	-0.081470
52089		-0.250949	0.005768	-0.967983	0.922782	0.303487	-0.237422	0.292401	-0.952818	-0.081482
52090		-0.250880	0.005757	-0.968001	0.922792	0.303508	-0.237358	0.292429	-0.952812	-0.081457
52091		-0.250846	0.005774	-0.968010	0.922833	0.303403	-0.237329	0.292327	-0.952845	-0.081436
52092		-0.250813	0.005765	-0.968018	0.922869	0.303310	-0.237309	0.292242	-0.952874	-0.081394
52093		-0.250808	0.005786	-0.968019	0.922893	0.303242	-0.237304	0.292171	-0.952896	-0.081395
52094		-0.250859	0.005803	-0.968006	0.922869	0.303285	-0.237343	0.292204	-0.952882	-0.081437
52095		-0.250904	0.005786	-0.967995	0.922865	0.303257	-0.237394	0.292178	-0.952891	-0.081428
52096		-0.250954	0.005759	-0.967982	0.922828	0.303330	-0.237443	0.292250	-0.952868	-0.081437
52097		-0.250971	0.005749	-0.967978	0.922809	0.303375	-0.237458	0.292295	-0.952854	-0.081444
52098		-0.250979	0.005706	-0.967976	0.922810	0.303357	-0.237480	0.292288	-0.952860	-0.081402
52099		-0.250965	0.005645	-0.967980	0.922826	0.303299	-0.237489	0.292247	-0.952879	-0.081327
52100		-0.250914	0.005591	-0.967993	0.922873	0.303174	-0.237467	0.292143	-0.952919	-0.081230
52101		-0.250815	0.005567	-0.968019	0.922962	0.302958	-0.237398	0.291948	-0.952987	-0.081125
52102		-0.250704	0.005572	-0.968048	0.923054	0.302748	-0.237309	0.291752	-0.953054	-0.081043
52103		-0.250613	0.005559	-0.968071	0.923118	0.302607	-0.237238	0.291626	-0.953099	-0.080969
52104		-0.250545	0.005521	-0.968089	0.923126	0.302626	-0.237183	0.291660	-0.953093	-0.080918
52105		-0.250509	0.005489	-0.968099	0.923111	0.302697	-0.237151	0.291738	-0.953071	-0.080895
52106		-0.250509	0.005464	-0.968099	0.923085	0.302777	-0.237152	0.291822	-0.953046	-0.080892
52107		-0.250501	0.005453	-0.968101	0.923079	0.302799	-0.237146	0.291846	-0.953039	-0.080885
52108		-0.250508	0.005393	-0.968099	0.923066	0.302821	-0.237168	0.291882	-0.953032	-0.080837
52109		-0.250484	0.005388	-0.968106	0.923103	0.302718	-0.237156	0.291785	-0.953065	-0.080800
52110		-0.250479	0.005354	-0.968107	0.923126	0.302639	-0.237167	0.291717	-0.953090	-0.080747
52111		-0.250376	0.005337	-0.968134	0.923186	0.302520	-0.237084	0.291614	-0.953128	-0.080671
52112		-0.250343	0.005330	-0.968143	0.923214	0.302455	-0.237060	0.291556	-0.953149	-0.080638
52113		-0.250227	0.005368	-0.968172	0.923260	0.302406	-0.236943	0.291509	-0.953164	-0.080626
52114		-0.250136	0.005376	-0.968196	0.923266	0.302461	-0.236849	0.291568	-0.953147	-0.080619
52115		-0.250044	0.005435	-0.968219	0.923273	0.302526	-0.236739	0.291624	-0.953126	-0.080663
52116		-0.249967	0.005450	-0.968239	0.923279	0.302570	-0.236656	0.291671	-0.953111	-0.080665
52117		-0.249927	0.005514	-0.968249	0.923295	0.302567	-0.236600	0.291656	-0.953112	-0.080710
52118		-0.249898	0.005522	-0.968256	0.923325	0.302494	-0.236577	0.291585	-0.953135	-0.080692
52119		-0.249917	0.005590	-0.968251	0.923358	0.302388	-0.236584	0.291465	-0.953169	-0.080733
52120		-0.249926	0.005593	-0.968249	0.923378	0.302315	-0.236598	0.291393	-0.953192	-0.080721
52121		-0.249964	0.005628	-0.968239	0.923408	0.302195	-0.236634	0.291265	-0.953230	-0.080735
52122		-0.250024	0.005669	-0.968223	0.923399	0.302187	-0.236680	0.291243	-0.953232	-0.080789
52123		-0.250073	0.005752	-0.968210	0.923381	0.302227	-0.236699	0.291257	-0.953219	-0.080890
52124		-0.250142	0.005804	-0.968192	0.923316	0.302396	-0.236735	0.291403	-0.953165	-0.081001
52125		-0.250171	0.005877	-0.968184	0.923265	0.302558	-0.236728	0.291541	-0.953113	-0.081117
52126		-0.250203	0.005891	-0.968176	0.923175	0.302831	-0.236731	0.291799	-0.953026	-0.081207
52127		-0.250219	0.005931	-0.968171	0.923125	0.302991	-0.236721	0.291943	-0.952975	-0.081289
52128		-0.250221	0.005917	-0.968171	0.923072	0.303159	-0.236712	0.292109	-0.952922	-0.081319
52129		-0.250237	0.005957	-0.968166	0.923022	0.303320	-0.236702	0.292254	-0.952870	-0.081400
52130		-0.250233	0.005929	-0.968168	0.922941	0.303579	-0.236684	0.292512	-0.952788	-0.081438
52131		-0.250246	0.005920	-0.968164	0.922834	0.303915	-0.236671	0.292838	-0.952681	-0.081517
52132		-0.250293	0.005878	-0.968152	0.922682	0.304363	-0.236690	0.293278	-0.952538	-0.081604
52133		-0.250361	0.005886	-0.968135	0.922510	0.304867	-0.236709	0.293759	-0.952377	-0.081757
52134		-0.250470	0.005820	-0.968107	0.922280	0.305510	-0.236777	0.294388	-0.952171	-0.081888
52135		-0.250639	0.005768	-0.968063	0.922040	0.306139	-0.236899	0.294995	-0.951969	-0.082049
52136		-0.250806	0.005716	-0.968021	0.921760	0.306896	-0.237008	0.295727	-0.951726	-0.082240
52137		-0.250999	0.005693	-0.967970	0.921501	0.307571	-0.237141	0.296370	-0.951508	-0.082447
52138		-0.251212	0.005669	-0.967915	0.921235	0.308250	-0.237292	0.297015	-0.951288	-0.082659
52139		-0.251425	0.005644	-0.967860	0.920967	0.308936	-0.237442	0.297667	-0.951066	-0.082872
52140		-0.251667	0.005614	-0.967798	0.920662	0.309710	-0.237613	0.298403	-0.950814	-0.083113
52141		-0.251899	0.005614	-0.967737	0.920379	0.310430	-0.237771	0.299080	-0.950580	-0.083364
52142		-0.252146	0.005536	-0.967673	0.920042	0.311290	-0.237953	0.299910	-0.950299	-0.083584
52143		-0.252443	0.005491	-0.967596	0.919686	0.312174	-0.238172	0.300751	-0.950009	-0.083856
52144		-0.252781	0.005426	-0.967508	0.919275	0.313190	-0.238423	0.301720	-0.949675	-0.084157
52145		-0.253168	0.005382	-0.967407	0.918854	0.314201	-0.238714	0.302675	-0.949341	-0.084491
52146		-0.253640	0.005328	-0.967284	0.918399	0.315247	-0.239086	0.303659	-0.948995	-0.084852
52147		-0.254135	0.005323	-0.967154	0.917984	0.316159	-0.239475	0.304499	-0.948691	-0.085233
52148		-0.254680	0.005361	-0.967011	0.917603	0.316935	-0.239911	0.305193	-0.948432	-0.085636
52149		-0.255177	0.005485	-0.966879	0.917326	0.317442	-0.240298	0.305610	-0.948262	-0.086035
52150		-0.255648	0.005649	-0.966754	0.917123	0.317751	-0.240666	0.305827	-0.948157	-0.086413
52151		-0.256009	0.005884	-0.966657	0.917047	0.317765	-0.240936	0.305752	-0.948151	-0.086746
52152		-0.256242	0.006126	-0.966593	0.917068	0.317580	-0.241101	0.305494	-0.948212	-0.086995
52153		-0.256326	0.006425	-0.966569	0.917168	0.317277	-0.241117	0.305121	-0.948311	-0.087219
52154		-0.256303	0.006727	-0.966573	0.917294	0.316979	-0.241030	0.304762	-0.948409	-0.087413
52155		-0.256221	0.007032	-0.966593	0.917428	0.316702	-0.240885	0.304428	-0.948499	-0.087597
52156		-0.256149	0.007323	-0.966610	0.917536	0.316494	-0.240747	0.304163	-0.948566	-0.087789
52157		-0.256085	0.007639	-0.966624	0.917613	0.316384	-0.240600	0.303986	-0.948601	-0.088031
52158		-0.256110	0.007876	-0.966616	0.917610	0.316431	-0.240548	0.303972	-0.948583	-0.088268
52159		-0.256240	0.008137	-0.966579	0.917590	0.316457	-0.240589	0.303923	-0.948572	-0.088556
52160		-0.256486	0.008379	-0.966512	0.917507	0.316585	-0.240737	0.303966	-0.948527	-0.088887
52161		-0.256861	0.008613	-0.966410	0.917450	0.316530	-0.241027	0.303822	-0.948543	-0.089207
52162		-0.257313	0.008849	-0.966288	0.917426	0.316313	-0.241405	0.303513	-0.948614	-0.089509
52163		-0.257844	0.009063	-0.966144	0.917415	0.315983	-0.241875	0.303093	-0.948721	-0.089789
52164		-0.258438	0.009267	-0.965983	0.917437	0.315499	-0.242424	0.302520	-0.948881	-0.090039
52165		-0.259108	0.009490	-0.965802	0.917490	0.314861	-0.243053	0.301787	-0.949090	-0.090290
52166		-0.259790	0.009705	-0.965616	0.917540	0.314215	-0.243698	0.301046	-0.949302	-0.090535
52167		-0.260511	0.009990	-0.965419	0.917589	0.313558	-0.244360	0.300274	-0.949516	-0.090852
52168		-0.261229	0.010292	-0.965222	0.917601	0.313022	-0.245003	0.299614	-0.949690	-0.091214
52169		-0.261926	0.010645	-0.965029	0.917617	0.312499	-0.245610	0.298956	-0.949858	-0.091620
52170		-0.262568	0.010967	-0.964851	0.917620	0.312050	-0.246168	0.298382	-0.950002	-0.091998
52171		-0.263171	0.011303	-0.964683	0.917619	0.311647	-0.246680	0.297852	-0.950131	-0.092388
52172		-0.263715	0.011592	-0.964531	0.917602	0.311333	-0.247142	0.297425	-0.950230	-0.092740
52173		-0.264224	0.011916	-0.964388	0.917607	0.310982	-0.247564	0.296957	-0.950341	-0.093103
52174		-0.264708	0.012211	-0.964251	0.917602	0.310673	-0.247968	0.296539	-0.950438	-0.093442
52175		-0.265232	0.012472	-0.964104	0.917574	0.310398	-0.248416	0.296158	-0.950525	-0.093771
52176		-0.265852	0.012750	-0.963930	0.917494	0.310216	-0.248942	0.295852	-0.950581	-0.094169
52177		-0.266521	0.013006	-0.963741	0.917362	0.310147	-0.249509	0.295657	-0.950600	-0.094591
52178		-0.267212	0.013229	-0.963547	0.917219	0.310090	-0.250107	0.295478	-0.950615	-0.094994
52179		-0.267925	0.013479	-0.963345	0.917079	0.310007	-0.250721	0.295265	-0.950639	-0.095420
52180		-0.268643	0.013710	-0.963142	0.916917	0.309990	-0.251336	0.295119	-0.950641	-0.095848
52181		-0.269377	0.013956	-0.962934	0.916727	0.310045	-0.251958	0.295037	-0.950619	-0.096313
52182		-0.270129	0.014153	-0.962720	0.916479	0.310263	-0.252593	0.295122	-0.950545	-0.096782
52183		-0.270866	0.014308	-0.962511	0.916189	0.310615	-0.253213	0.295347	-0.950428	-0.097244
52184		-0.271660	0.014435	-0.962285	0.915826	0.311142	-0.253877	0.295742	-0.950254	-0.097744
52185		-0.272465	0.014514	-0.962056	0.915427	0.311761	-0.254556	0.296237	-0.950050	-0.098230
52186		-0.273242	0.014531	-0.961836	0.915010	0.312442	-0.255219	0.296809	-0.949826	-0.098668
52187		-0.273987	0.014530	-0.961624	0.914615	0.313071	-0.255862	0.297339	-0.949618	-0.099067
52188		-0.274714	0.014472	-0.961417	0.914201	0.313758	-0.256499	0.297941	-0.949393	-0.099424
52189		-0.275415	0.014419	-0.961217	0.913783	0.314481	-0.257106	0.298577	-0.949154	-0.099789
52190		-0.276114	0.014340	-0.961018	0.913313	0.315354	-0.257702	0.299366	-0.948866	-0.100170
52191		-0.276831	0.014280	-0.960812	0.912793	0.316375	-0.258294	0.300289	-0.948527	-0.100617
52192		-0.277569	0.014164	-0.960601	0.912182	0.317644	-0.258894	0.301462	-0.948104	-0.101088
52193		-0.278318	0.014108	-0.960385	0.911542	0.319002	-0.259477	0.302704	-0.947649	-0.101644
52194		-0.279059	0.013987	-0.960172	0.910860	0.320473	-0.260059	0.304072	-0.947154	-0.102171
52195		-0.279794	0.013889	-0.959960	0.910196	0.321893	-0.260632	0.305384	-0.946674	-0.102705
52196		-0.280522	0.013840	-0.959748	0.909491	0.323447	-0.261168	0.306813	-0.946145	-0.103321
52197		-0.281253	0.013763	-0.959535	0.908836	0.324828	-0.261733	0.308081	-0.945673	-0.103867
52198		-0.281972	0.013661	-0.959325	0.908142	0.326324	-0.262281	0.309467	-0.945159	-0.104421
52199		-0.282680	0.013535	-0.959119	0.907430	0.327866	-0.262819	0.310905	-0.944627	-0.104964
52200		-0.283319	0.013361	-0.958933	0.906717	0.329449	-0.263301	0.312401	-0.944079	-0.105454
52201		-0.283910	0.013164	-0.958760	0.905990	0.331096	-0.263738	0.313970	-0.943505	-0.105928
52202		-0.284515	0.012977	-0.958584	0.905248	0.332768	-0.264180	0.315558	-0.942919	-0.106425
52203		-0.285065	0.012836	-0.958422	0.904542	0.334381	-0.264561	0.317082	-0.942350	-0.106931
52204		-0.285598	0.012685	-0.958266	0.903836	0.335998	-0.264928	0.318615	-0.941777	-0.107425
52205		-0.286054	0.012606	-0.958131	0.903208	0.337453	-0.265217	0.319980	-0.941258	-0.107915
52206		-0.286410	0.012519	-0.958025	0.902642	0.338802	-0.265425	0.321258	-0.940774	-0.108337
52207		-0.286738	0.012459	-0.957928	0.902104	0.340091	-0.265605	0.322473	-0.940310	-0.108756
52208		-0.286942	0.012376	-0.957868	0.901575	0.341444	-0.265667	0.323770	-0.939821	-0.109133
52209		-0.287194	0.012305	-0.957793	0.900956	0.343014	-0.265744	0.325266	-0.939250	-0.109598
52210		-0.287404	0.012159	-0.957732	0.900246	0.344849	-0.265775	0.327041	-0.938580	-0.110057
52211		-0.287616	0.011986	-0.957671	0.899499	0.346771	-0.265805	0.328906	-0.937873	-0.110518
52212		-0.287845	0.011817	-0.957604	0.898768	0.348620	-0.265858	0.330698	-0.937190	-0.110969
52213		-0.288104	0.011639	-0.957528	0.898106	0.350239	-0.265967	0.332268	-0.936588	-0.111359
52214		-0.288325	0.011413	-0.957465	0.897524	0.351638	-0.266083	0.333645	-0.936066	-0.111629
52215		-0.288549	0.011207	-0.957400	0.896975	0.352945	-0.266206	0.334926	-0.935577	-0.111894
52216		-0.288752	0.010981	-0.957341	0.896446	0.354200	-0.266322	0.336165	-0.935105	-0.112120
52217		-0.288957	0.010844	-0.957281	0.895960	0.355353	-0.266422	0.337284	-0.934669	-0.112398
52218		-0.289089	0.010686	-0.957242	0.895472	0.356556	-0.266454	0.338463	-0.934213	-0.112646
52219		-0.289188	0.010574	-0.957214	0.894986	0.357788	-0.266436	0.339662	-0.933743	-0.112932
52220		-0.289165	0.010530	-0.957221	0.894493	0.359145	-0.266265	0.340977	-0.933222	-0.113271
52221		-0.289139	0.010468	-0.957230	0.893986	0.360534	-0.266093	0.342328	-0.932687	-0.113603
52222		-0.289048	0.010423	-0.957258	0.893519	0.361857	-0.265862	0.343620	-0.932175	-0.113907
52223		-0.288937	0.010360	-0.957292	0.893049	0.363197	-0.265616	0.344934	-0.931655	-0.114193
52224		-0.288806	0.010291	-0.957332	0.892615	0.364444	-0.265365	0.346163	-0.931168	-0.114440
52225		-0.288672	0.010188	-0.957374	0.892218	0.365582	-0.265135	0.347297	-0.930723	-0.114623
52226		-0.288564	0.010050	-0.957408	0.891849	0.366611	-0.264956	0.348334	-0.930320	-0.114754
52227		-0.288470	0.009941	-0.957437	0.891536	0.367484	-0.264799	0.349211	-0.929977	-0.114871
52228		-0.288429	0.009811	-0.957451	0.891227	0.368301	-0.264705	0.350033	-0.929655	-0.114973
52229		-0.288447	0.009745	-0.957446	0.890964	0.368967	-0.264662	0.350687	-0.929391	-0.115110
52230		-0.288443	0.009677	-0.957448	0.890763	0.369483	-0.264619	0.351200	-0.929187	-0.115195
52231		-0.288444	0.009678	-0.957448	0.890633	0.369827	-0.264577	0.351529	-0.929050	-0.115294
52232		-0.288460	0.009641	-0.957444	0.890520	0.370104	-0.264570	0.351803	-0.928940	-0.115346
52233		-0.288447	0.009636	-0.957447	0.890497	0.370173	-0.264552	0.351871	-0.928913	-0.115356
52234		-0.288428	0.009645	-0.957453	0.890498	0.370185	-0.264529	0.351883	-0.928908	-0.115360
52235		-0.288441	0.009637	-0.957449	0.890524	0.370105	-0.264554	0.351807	-0.928940	-0.115335
52236		-0.288478	0.009592	-0.957438	0.890544	0.370014	-0.264616	0.351727	-0.928977	-0.115282
52237		-0.288582	0.009468	-0.957408	0.890535	0.369928	-0.264767	0.351665	-0.929012	-0.115186
52238		-0.288684	0.009343	-0.957379	0.890517	0.369865	-0.264914	0.351626	-0.929039	-0.115094
52239		-0.288865	0.009173	-0.957326	0.890494	0.369747	-0.265156	0.351536	-0.929087	-0.114975
52240		-0.289049	0.008966	-0.957272	0.890493	0.369558	-0.265423	0.351388	-0.929164	-0.114804
52241		-0.289245	0.008764	-0.957215	0.890514	0.369301	-0.265709	0.351172	-0.929268	-0.114623
52242		-0.289422	0.008500	-0.957164	0.890532	0.369051	-0.265996	0.350982	-0.929370	-0.114381
52243		-0.289563	0.008290	-0.957123	0.890612	0.368676	-0.266248	0.350662	-0.929521	-0.114138
52244		-0.289544	0.008113	-0.957130	0.890756	0.368261	-0.266343	0.350313	-0.929687	-0.113854
52245		-0.289415	0.008045	-0.957170	0.890966	0.367778	-0.266306	0.349884	-0.929879	-0.113609
52246		-0.289161	0.008003	-0.957247	0.891221	0.367275	-0.266146	0.349443	-0.930078	-0.113334
52247		-0.288788	0.007999	-0.957360	0.891495	0.366820	-0.265855	0.349052	-0.930258	-0.113064
52248		-0.288295	0.008028	-0.957508	0.891784	0.366424	-0.265434	0.348723	-0.930413	-0.112798
52249		-0.287690	0.008062	-0.957690	0.892086	0.366075	-0.264901	0.348451	-0.930550	-0.112508
52250		-0.287005	0.008072	-0.957895	0.892354	0.365867	-0.264284	0.348329	-0.930632	-0.112209
52251		-0.286297	0.008099	-0.958107	0.892633	0.365650	-0.263642	0.348197	-0.930717	-0.111914
52252		-0.285539	0.008066	-0.958333	0.892906	0.365468	-0.262968	0.348119	-0.930789	-0.111557
52253		-0.284827	0.008028	-0.958545	0.893172	0.365268	-0.262343	0.348020	-0.930868	-0.111209
52254		-0.284173	0.007954	-0.958740	0.893397	0.365123	-0.261776	0.347976	-0.930925	-0.110864
52255		-0.283531	0.007840	-0.958931	0.893597	0.365026	-0.261229	0.347986	-0.930964	-0.110502
52256		-0.282950	0.007692	-0.959104	0.893720	0.365078	-0.260733	0.348142	-0.930945	-0.110173
52257		-0.282428	0.007536	-0.959259	0.893796	0.365213	-0.260285	0.348372	-0.930894	-0.109882
52258		-0.281969	0.007329	-0.959395	0.893801	0.365476	-0.259899	0.348731	-0.930792	-0.109603
52259		-0.281581	0.007125	-0.959511	0.893796	0.365714	-0.259580	0.349058	-0.930700	-0.109346
52260		-0.281277	0.006918	-0.959602	0.893728	0.366059	-0.259329	0.349477	-0.930566	-0.109146
52261		-0.281022	0.006694	-0.959678	0.893636	0.366425	-0.259127	0.349916	-0.930423	-0.108956
52262		-0.280864	0.006470	-0.959726	0.893513	0.366806	-0.259014	0.350357	-0.930275	-0.108803
52263		-0.280756	0.006258	-0.959759	0.893333	0.367303	-0.258930	0.350902	-0.930080	-0.108713
52264		-0.280743	0.006023	-0.959764	0.893124	0.367804	-0.258942	0.351445	-0.929884	-0.108638
52265		-0.280767	0.005764	-0.959759	0.892911	0.368280	-0.258999	0.351967	-0.929697	-0.108547
52266		-0.280800	0.005503	-0.959750	0.892689	0.368771	-0.259065	0.352502	-0.929504	-0.108463
52267		-0.280835	0.005257	-0.959742	0.892488	0.369208	-0.259133	0.352982	-0.929332	-0.108379
52268		-0.280829	0.004983	-0.959745	0.892309	0.369610	-0.259178	0.353440	-0.929174	-0.108244
52269		-0.280824	0.004710	-0.959748	0.892108	0.370068	-0.259216	0.353951	-0.928993	-0.108126
52270		-0.280814	0.004370	-0.959752	0.891853	0.370652	-0.259259	0.354601	-0.928762	-0.107982
52271		-0.280772	0.004058	-0.959766	0.891547	0.371397	-0.259245	0.355402	-0.928465	-0.107896
52272		-0.280794	0.003687	-0.959761	0.891179	0.372241	-0.259300	0.356306	-0.928129	-0.107809
52273		-0.280794	0.003342	-0.959762	0.890806	0.373118	-0.259321	0.357238	-0.927778	-0.107747
52274		-0.280822	0.003003	-0.959755	0.890447	0.373938	-0.259373	0.358110	-0.927449	-0.107684
52275		-0.280862	0.002694	-0.959744	0.890146	0.374605	-0.259443	0.358826	-0.927181	-0.107610
52276		-0.280859	0.002383	-0.959746	0.889935	0.375069	-0.259498	0.359353	-0.926994	-0.107462
52277		-0.280830	0.002143	-0.959755	0.889879	0.375168	-0.259546	0.359513	-0.926954	-0.107266
52278		-0.280695	0.001918	-0.959795	0.889940	0.375044	-0.259516	0.359467	-0.927005	-0.106979
52279		-0.280555	0.001699	-0.959837	0.890054	0.374789	-0.259494	0.359296	-0.927108	-0.106661
52280		-0.280394	0.001405	-0.959884	0.890135	0.374612	-0.259471	0.359220	-0.927180	-0.106289
52281		-0.280242	0.001104	-0.959929	0.890192	0.374491	-0.259452	0.359198	-0.927230	-0.105931
52282		-0.280106	0.000787	-0.959969	0.890175	0.374543	-0.259434	0.359345	-0.927209	-0.105613
52283		-0.279996	0.000407	-0.960001	0.890090	0.374736	-0.259447	0.359641	-0.927131	-0.105287
52284		-0.279905	-0.000011	-0.960028	0.889910	0.375152	-0.259465	0.360159	-0.926963	-0.104997
52285		-0.279904	-0.000440	-0.960028	0.889662	0.375673	-0.259561	0.360771	-0.926752	-0.104761
52286		-0.279942	-0.000835	-0.960017	0.889347	0.376348	-0.259662	0.361517	-0.926478	-0.104613
52287		-0.280060	-0.001195	-0.959982	0.888951	0.377182	-0.259807	0.362399	-0.926138	-0.104571
52288		-0.280164	-0.001501	-0.959951	0.888547	0.378059	-0.259916	0.363308	-0.925780	-0.104585
52289		-0.280284	-0.001698	-0.959916	0.888181	0.378853	-0.260008	0.364109	-0.925455	-0.104679
52290		-0.280378	-0.001846	-0.959888	0.887832	0.379636	-0.260061	0.364888	-0.925134	-0.104803
52291		-0.280474	-0.001896	-0.959860	0.887527	0.380327	-0.260090	0.365553	-0.924850	-0.104989
52292		-0.280518	-0.001920	-0.959847	0.887260	0.380965	-0.260067	0.366167	-0.924587	-0.105165
52293		-0.280596	-0.001898	-0.959824	0.887009	0.381552	-0.260064	0.366717	-0.924345	-0.105379
52294		-0.280602	-0.001860	-0.959822	0.886833	0.382002	-0.260004	0.367137	-0.924160	-0.105541
52295		-0.280569	-0.001758	-0.959832	0.886672	0.382456	-0.259884	0.367550	-0.923972	-0.105747
52296		-0.280553	-0.001695	-0.959837	0.886478	0.382972	-0.259787	0.368031	-0.923758	-0.105941
52297		-0.280526	-0.001579	-0.959845	0.886220	0.383668	-0.259640	0.368672	-0.923470	-0.106230
52298		-0.280480	-0.001507	-0.959859	0.885850	0.384644	-0.259458	0.369595	-0.923064	-0.106550
52299		-0.280490	-0.001384	-0.959856	0.885414	0.385759	-0.259292	0.370632	-0.922599	-0.106976
52300		-0.280497	-0.001296	-0.959854	0.884890	0.387079	-0.259113	0.371875	-0.922046	-0.107428
52301		-0.280550	-0.001167	-0.959839	0.884335	0.388453	-0.258953	0.373155	-0.921468	-0.107949
52302		-0.280579	-0.001060	-0.959830	0.883748	0.389907	-0.258769	0.374519	-0.920854	-0.108463
52303		-0.280646	-0.000881	-0.959811	0.883223	0.391201	-0.258611	0.375707	-0.920305	-0.109011
52304		-0.280711	-0.000749	-0.959792	0.882703	0.392464	-0.258471	0.376878	-0.919767	-0.109508
52305		-0.280818	-0.000592	-0.959761	0.882216	0.393624	-0.258372	0.377937	-0.919271	-0.110015
52306		-0.280906	-0.000465	-0.959735	0.881732	0.394775	-0.258267	0.379000	-0.918778	-0.110485
52307		-0.281033	-0.000332	-0.959698	0.881266	0.395855	-0.258202	0.379987	-0.918313	-0.110955
52308		-0.281142	-0.000193	-0.959666	0.880825	0.396887	-0.258125	0.380929	-0.917867	-0.111412
52309		-0.281221	-0.000059	-0.959643	0.880389	0.397922	-0.258020	0.381878	-0.917419	-0.111852
52310		-0.281314	0.000016	-0.959616	0.879935	0.398971	-0.257949	0.382854	-0.916964	-0.112250
52311		-0.281379	0.000097	-0.959597	0.879584	0.399790	-0.257877	0.383613	-0.916607	-0.112578
52312		-0.281343	0.000173	-0.959607	0.879280	0.400558	-0.257720	0.384334	-0.916271	-0.112846
52313		-0.281284	0.000243	-0.959625	0.879056	0.401148	-0.257566	0.384889	-0.916013	-0.113051
52314		-0.281147	0.000284	-0.959665	0.878907	0.401602	-0.257369	0.385330	-0.915814	-0.113159
52315		-0.280956	0.000305	-0.959721	0.878797	0.401990	-0.257138	0.385720	-0.915644	-0.113210
52316		-0.280659	0.000318	-0.959808	0.878758	0.402275	-0.256825	0.386025	-0.915519	-0.113182
52317		-0.280347	0.000375	-0.959899	0.878805	0.402377	-0.256505	0.386145	-0.915474	-0.113135
52318		-0.279985	0.000465	-0.960004	0.878905	0.402391	-0.256138	0.386178	-0.915468	-0.113072
52319		-0.279667	0.000540	-0.960097	0.878976	0.402446	-0.255811	0.386249	-0.915444	-0.113025
52320		-0.279360	0.000588	-0.960186	0.879084	0.402394	-0.255517	0.386224	-0.915466	-0.112929
52321		-0.279105	0.000677	-0.960260	0.879235	0.402223	-0.255270	0.386066	-0.915542	-0.112858
52322		-0.278873	0.000738	-0.960328	0.879427	0.401929	-0.255071	0.385796	-0.915670	-0.112737
52323		-0.278700	0.000828	-0.960378	0.879691	0.401436	-0.254939	0.385319	-0.915887	-0.112608
52324		-0.278542	0.000848	-0.960424	0.879992	0.400824	-0.254861	0.384745	-0.916155	-0.112392
52325		-0.278451	0.000838	-0.960450	0.880297	0.400153	-0.254864	0.384113	-0.916448	-0.112160
52326		-0.278424	0.000799	-0.960458	0.880619	0.399389	-0.254947	0.383392	-0.916781	-0.111903
52327		-0.278466	0.000735	-0.960446	0.880910	0.398649	-0.255101	0.382694	-0.917103	-0.111658
52328		-0.278542	0.000589	-0.960424	0.881132	0.398028	-0.255302	0.382125	-0.917373	-0.111387
52329		-0.278734	0.000453	-0.960368	0.881294	0.397481	-0.255596	0.381612	-0.917610	-0.111191
52330		-0.278949	0.000282	-0.960306	0.881425	0.396983	-0.255919	0.381153	-0.917826	-0.110986
52331		-0.279219	0.000155	-0.960227	0.881509	0.396574	-0.256265	0.380761	-0.918003	-0.110867
52332		-0.279503	-0.000026	-0.960145	0.881563	0.396212	-0.256638	0.380428	-0.918159	-0.110720
52333		-0.279792	-0.000156	-0.960061	0.881637	0.395812	-0.257001	0.380044	-0.918331	-0.110607
52334		-0.280033	-0.000256	-0.959990	0.881733	0.395395	-0.257311	0.379641	-0.918511	-0.110498
52335		-0.280243	-0.000256	-0.959929	0.881906	0.394841	-0.257570	0.379085	-0.918750	-0.110426
52336		-0.280367	-0.000247	-0.959893	0.882154	0.394162	-0.257762	0.378417	-0.919041	-0.110292
52337		-0.280378	-0.000169	-0.959890	0.882466	0.393416	-0.257833	0.377680	-0.919361	-0.110156
52338		-0.280287	-0.000063	-0.959916	0.882829	0.392619	-0.257804	0.376897	-0.919701	-0.109991
52339		-0.280099	0.000102	-0.959971	0.883238	0.391787	-0.257668	0.376078	-0.920056	-0.109830
52340		-0.279812	0.000237	-0.960055	0.883679	0.390933	-0.257455	0.375256	-0.920419	-0.109597
52341		-0.279564	0.000390	-0.960127	0.884104	0.390094	-0.257269	0.374440	-0.920775	-0.109401
52342		-0.279361	0.000547	-0.960186	0.884493	0.389312	-0.257116	0.373671	-0.921106	-0.109242
52343		-0.279223	0.000697	-0.960226	0.884827	0.388618	-0.257016	0.372982	-0.921399	-0.109127
52344		-0.279163	0.000800	-0.960243	0.885093	0.388027	-0.256992	0.372395	-0.921648	-0.109031
52345		-0.279170	0.000881	-0.960241	0.885383	0.387325	-0.257051	0.371699	-0.921943	-0.108910
52346		-0.279250	0.000896	-0.960218	0.885661	0.386586	-0.257207	0.370976	-0.922253	-0.108748
52347		-0.279344	0.000905	-0.960191	0.886000	0.385683	-0.257396	0.370096	-0.922631	-0.108540
52348		-0.279461	0.000843	-0.960157	0.886289	0.384866	-0.257623	0.369315	-0.922972	-0.108303
52349		-0.279602	0.000752	-0.960116	0.886575	0.384030	-0.257885	0.368519	-0.923320	-0.108042
52350		-0.279728	0.000645	-0.960079	0.886839	0.383256	-0.258131	0.367789	-0.923642	-0.107780
52351		-0.279944	0.000499	-0.960016	0.887086	0.382450	-0.258478	0.367029	-0.923976	-0.107508
52352		-0.280279	0.000308	-0.959918	0.887252	0.381751	-0.258939	0.366370	-0.924265	-0.107270
52353		-0.280827	0.000056	-0.959758	0.887361	0.381034	-0.259621	0.365686	-0.924561	-0.107054
52354		-0.281765	-0.000284	-0.959483	0.887380	0.380251	-0.260704	0.364919	-0.924883	-0.106889
52355		-0.283159	-0.000667	-0.959073	0.887207	0.379622	-0.262205	0.364260	-0.925141	-0.106902
52356		-0.284967	-0.001099	-0.958537	0.886801	0.379273	-0.264075	0.363837	-0.925284	-0.107106
52357		-0.287107	-0.001633	-0.957897	0.886293	0.378912	-0.266291	0.363394	-0.925431	-0.107341
52358		-0.289555	-0.002202	-0.957159	0.885834	0.378177	-0.268848	0.362568	-0.925731	-0.107553
52359		-0.292355	-0.002761	-0.956306	0.885496	0.376860	-0.271796	0.361144	-0.926266	-0.107732
52360		-0.295390	-0.003376	-0.955371	0.885224	0.375152	-0.275027	0.359338	-0.926957	-0.107828
52361		-0.298576	-0.004014	-0.954377	0.884950	0.373286	-0.278426	0.357373	-0.927708	-0.107902
52362		-0.301790	-0.004721	-0.953363	0.884700	0.371271	-0.281893	0.355287	-0.928513	-0.107869
52363		-0.304988	-0.005491	-0.952340	0.884472	0.369142	-0.285382	0.353116	-0.929357	-0.107728
52364		-0.308088	-0.006387	-0.951336	0.884240	0.367016	-0.288823	0.351001	-0.930193	-0.107426
52365		-0.311093	-0.007292	-0.950351	0.884006	0.364919	-0.292176	0.348932	-0.931011	-0.107078
52366		-0.313942	-0.008309	-0.949406	0.883688	0.363098	-0.295389	0.347182	-0.931714	-0.106649
52367		-0.316560	-0.009427	-0.948526	0.883306	0.361574	-0.298387	0.345775	-0.932296	-0.106133
52368		-0.319049	-0.010605	-0.947679	0.882856	0.360291	-0.301258	0.344635	-0.932780	-0.105587
52369		-0.321357	-0.011861	-0.946884	0.882396	0.359137	-0.303970	0.343667	-0.933209	-0.104945
52370		-0.323532	-0.013207	-0.946125	0.881943	0.358028	-0.306582	0.342789	-0.933617	-0.104186
52371		-0.325616	-0.014551	-0.945390	0.881589	0.356706	-0.309131	0.341725	-0.934103	-0.103322
52372		-0.327644	-0.015875	-0.944668	0.881269	0.355322	-0.311626	0.340609	-0.934609	-0.102429
52373		-0.329648	-0.017202	-0.943947	0.880902	0.354067	-0.314084	0.339623	-0.935062	-0.101564
52374		-0.331665	-0.018509	-0.943215	0.880555	0.352726	-0.316554	0.338556	-0.935543	-0.100689
52375		-0.333792	-0.019821	-0.942438	0.880215	0.351243	-0.319141	0.337350	-0.936075	-0.099795
52376		-0.336213	-0.021012	-0.941551	0.879884	0.349463	-0.321992	0.335803	-0.936714	-0.099006
52377		-0.338908	-0.022027	-0.940562	0.879565	0.347415	-0.325066	0.333925	-0.937453	-0.098368
52378		-0.342047	-0.022907	-0.939404	0.879208	0.345039	-0.328543	0.331657	-0.938309	-0.097880
52379		-0.345672	-0.023651	-0.938057	0.878889	0.342056	-0.332493	0.328732	-0.939382	-0.097453
52380		-0.349851	-0.024322	-0.936490	0.878533	0.338551	-0.336992	0.325245	-0.940634	-0.097075
52381		-0.354690	-0.024833	-0.934654	0.878015	0.334759	-0.342090	0.321380	-0.941976	-0.096932
52382		-0.360172	-0.025353	-0.932541	0.877273	0.330778	-0.347819	0.317282	-0.943368	-0.096896
52383		-0.366370	-0.025867	-0.930110	0.876258	0.326628	-0.354241	0.312963	-0.944799	-0.097001
52384		-0.373228	-0.026330	-0.927366	0.874950	0.322389	-0.361286	0.308486	-0.946241	-0.097287
52385		-0.380658	-0.026948	-0.924323	0.873254	0.318330	-0.368908	0.304181	-0.947597	-0.097643
52386		-0.388757	-0.027852	-0.920919	0.871090	0.314481	-0.377233	0.300118	-0.948855	-0.097995
52387		-0.397657	-0.029087	-0.917073	0.868429	0.310665	-0.386418	0.296142	-0.950074	-0.098278
52388		-0.407416	-0.030728	-0.912726	0.865247	0.306751	-0.396549	0.292165	-0.951294	-0.098388
52389		-0.418047	-0.032770	-0.907834	0.861528	0.302642	-0.407648	0.288108	-0.952541	-0.098287
52390		-0.429497	-0.035028	-0.902389	0.857339	0.298132	-0.419628	0.283730	-0.953882	-0.098016
52391		-0.441485	-0.037419	-0.896488	0.852908	0.292770	-0.432244	0.278639	-0.955451	-0.097338
52392		-0.454130	-0.039830	-0.890045	0.848301	0.286008	-0.445629	0.272309	-0.957399	-0.096097
52393		-0.467379	-0.042074	-0.883055	0.843441	0.278062	-0.459661	0.264884	-0.959641	-0.094474
52394		-0.481236	-0.044242	-0.875474	0.838169	0.269220	-0.474335	0.256681	-0.962062	-0.092476
52395		-0.495484	-0.046449	-0.867374	0.832307	0.260308	-0.489392	0.248516	-0.964408	-0.090318
52396		-0.510137	-0.048652	-0.858716	0.825723	0.251714	-0.504798	0.240710	-0.966578	-0.088235
52397		-0.525094	-0.051154	-0.849505	0.818373	0.243570	-0.520518	0.233540	-0.968533	-0.086034
52398		-0.540350	-0.054267	-0.839689	0.810261	0.235580	-0.536637	0.226936	-0.970339	-0.083325
52399		-0.555852	-0.057936	-0.829260	0.801415	0.227646	-0.553092	0.220822	-0.972019	-0.080106
52400		-0.571601	-0.062111	-0.818178	0.791867	0.219501	-0.569883	0.214987	-0.973633	-0.076283
52401		-0.587428	-0.066736	-0.806520	0.781765	0.210848	-0.586844	0.209217	-0.975238	-0.071687
52402		-0.603458	-0.071539	-0.794180	0.771144	0.201096	-0.604068	0.202920	-0.976956	-0.066186
52403		-0.619606	-0.076282	-0.781197	0.760063	0.190141	-0.621410	0.195940	-0.978789	-0.059833
52404		-0.636120	-0.080827	-0.767345	0.748231	0.178236	-0.639048	0.188421	-0.980662	-0.052902
52405		-0.653045	-0.085228	-0.752508	0.735494	0.165450	-0.657019	0.180499	-0.982529	-0.045362
52406		-0.670527	-0.089717	-0.736440	0.721502	0.152228	-0.675472	0.172708	-0.984265	-0.037342
52407		-0.688312	-0.094375	-0.719250	0.706282	0.139031	-0.694144	0.165508	-0.985781	-0.029041
52408		-0.706375	-0.099324	-0.700835	0.689791	0.125560	-0.713038	0.158818	-0.987102	-0.020179
52409		-0.724541	-0.104241	-0.681304	0.672190	0.111585	-0.731922	0.152319	-0.988273	-0.010778
52410		-0.742680	-0.109230	-0.660678	0.653527	0.096950	-0.750669	0.146048	-0.989277	-0.000618
52411		-0.760629	-0.114078	-0.639085	0.634028	0.080958	-0.769061	0.139472	-0.990168	0.010749
52412		-0.778634	-0.118420	-0.616203	0.613305	0.063915	-0.787256	0.132611	-0.990904	0.022862
52413		-0.796412	-0.122665	-0.592183	0.591444	0.046330	-0.805014	0.126183	-0.991366	0.035651
52414		-0.813720	-0.127177	-0.567173	0.568627	0.028135	-0.822114	0.120512	-0.991481	0.049422
52415		-0.830587	-0.131671	-0.541099	0.544743	0.009726	-0.838547	0.115674	-0.991246	0.063649
52416		-0.847052	-0.135682	-0.513899	0.519722	-0.008942	-0.854289	0.111316	-0.990712	0.078091
52417		-0.863344	-0.138854	-0.485136	0.493138	-0.028278	-0.869491	0.107014	-0.989909	0.092887
52418		-0.879241	-0.141775	-0.454792	0.465057	-0.048566	-0.883947	0.103235	-0.988707	0.108634
52419		-0.894435	-0.144734	-0.423128	0.435779	-0.069650	-0.897355	0.100407	-0.987016	0.125370
52420		-0.908814	-0.147596	-0.390221	0.405333	-0.090861	-0.909642	0.098803	-0.984865	0.142401
52421		-0.922385	-0.150386	-0.355794	0.373422	-0.111571	-0.920928	0.098798	-0.982312	0.159069
52422		-0.934947	-0.153599	-0.319815	0.340146	-0.131780	-0.931093	0.100870	-0.979307	0.175454
52423		-0.946355	-0.156565	-0.282664	0.305874	-0.152029	-0.939855	0.104176	-0.975897	0.191763
52424		-0.956517	-0.159004	-0.244527	0.270912	-0.173641	-0.946813	0.108087	-0.971888	0.209167
52425		-0.965469	-0.160152	-0.205479	0.235295	-0.197467	-0.951653	0.111834	-0.967139	0.228331
52426		-0.973109	-0.160080	-0.165630	0.199185	-0.223641	-0.954102	0.115691	-0.961436	0.249513
52427		-0.979319	-0.159148	-0.124927	0.162554	-0.251283	-0.954166	0.120461	-0.954740	0.271956
52428		-0.983988	-0.157502	-0.083437	0.125415	-0.279202	-0.952007	0.126648	-0.947227	0.294484
52429		-0.987146	-0.154305	-0.041636	0.088053	-0.307669	-0.947410	0.133380	-0.938898	0.317301
52430		-0.988811	-0.149173	0.000163	0.050576	-0.336278	-0.940404	0.140337	-0.929873	0.340060
52431		-0.988941	-0.142179	0.042198	0.012574	-0.363880	-0.931361	0.147775	-0.920530	0.361644
52432		-0.987414	-0.133665	0.084539	-0.026057	-0.389739	-0.920557	0.155994	-0.911174	0.381351
52433		-0.984124	-0.124239	0.126743	-0.064754	-0.413548	-0.908177	0.165245	-0.901966	0.398937
52434		-0.979203	-0.113433	0.168211	-0.103273	-0.434972	-0.894502	0.174633	-0.893270	0.414212
52435		-0.972857	-0.100929	0.208235	-0.140980	-0.455084	-0.879217	0.183503	-0.884710	0.428503
52436		-0.965239	-0.087409	0.246318	-0.177010	-0.474776	-0.862123	0.192303	-0.875755	0.442800
52437		-0.956586	-0.072331	0.282332	-0.211510	-0.494182	-0.843236	0.200516	-0.866344	0.457429
52438		-0.946749	-0.056378	0.316999	-0.244763	-0.513630	-0.822359	0.209184	-0.856157	0.472480
52439		-0.935666	-0.039851	0.350628	-0.277118	-0.532189	-0.799988	0.218481	-0.845687	0.486908
52440		-0.923398	-0.023092	0.383148	-0.308698	-0.548563	-0.777035	0.228124	-0.835790	0.499414
52441		-0.910135	-0.006291	0.414264	-0.339073	-0.563272	-0.753495	0.238084	-0.826248	0.510520
52442		-0.896208	0.010651	0.443506	-0.367821	-0.576767	-0.729416	0.248031	-0.816840	0.520821
52443		-0.881756	0.028144	0.470865	-0.395354	-0.588580	-0.705173	0.257295	-0.807949	0.530111
52444		-0.866945	0.045961	0.496280	-0.421455	-0.599131	-0.680748	0.266049	-0.799331	0.538784
52445		-0.851987	0.064143	0.519618	-0.446115	-0.608413	-0.656364	0.274041	-0.791024	0.546976
52446		-0.837031	0.082396	0.540916	-0.469124	-0.616875	-0.631971	0.281605	-0.782736	0.554998
52447		-0.822080	0.100528	0.560428	-0.490475	-0.624930	-0.607369	0.289170	-0.774181	0.563049
52448		-0.807225	0.118556	0.578214	-0.510279	-0.632524	-0.582692	0.296653	-0.765414	0.571085
52449		-0.792316	0.136587	0.594625	-0.529017	-0.639322	-0.558041	0.303936	-0.756711	0.578802
52450		-0.777598	0.154436	0.609500	-0.546810	-0.644626	-0.534281	0.310387	-0.748737	0.585707
52451		-0.763216	0.172257	0.622759	-0.564266	-0.647265	-0.512495	0.314809	-0.742546	0.591202
52452		-0.749169	0.190002	0.634543	-0.581543	-0.647285	-0.492777	0.317102	-0.738188	0.595420
52453		-0.735629	0.207436	0.644841	-0.598267	-0.645422	-0.474875	0.317689	-0.735119	0.598893
52454		-0.722754	0.224519	0.653619	-0.614148	-0.642373	-0.458453	0.316935	-0.732768	0.602166
52455		-0.710597	0.241120	0.660994	-0.629085	-0.638484	-0.443385	0.315125	-0.730889	0.605390
52456		-0.699043	0.257204	0.667222	-0.642927	-0.634516	-0.428993	0.313024	-0.728859	0.608917
52457		-0.687952	0.272812	0.672529	-0.656069	-0.629987	-0.415560	0.310315	-0.727111	0.612384
52458		-0.677278	0.287791	0.677105	-0.668678	-0.624637	-0.403359	0.306862	-0.725951	0.615493
52459		-0.667128	0.302053	0.680958	-0.680776	-0.618349	-0.392669	0.302463	-0.725540	0.618149
52460		-0.657431	0.315785	0.684152	-0.692424	-0.611303	-0.383220	0.297209	-0.725664	0.620547
52461		-0.648481	0.329178	0.686378	-0.703530	-0.603522	-0.375244	0.290722	-0.726225	0.622959
52462		-0.640273	0.342411	0.687608	-0.714240	-0.594804	-0.368875	0.282685	-0.727298	0.625401
52463		-0.632707	0.355357	0.688043	-0.724592	-0.585145	-0.364104	0.273218	-0.728921	0.627715
52464		-0.625597	0.367875	0.687965	-0.734507	-0.574935	-0.360485	0.262922	-0.730834	0.629884
52465		-0.618984	0.379861	0.687434	-0.743804	-0.564592	-0.357759	0.252221	-0.732763	0.632015
52466		-0.613035	0.391316	0.686338	-0.752306	-0.554450	-0.355838	0.241295	-0.734477	0.634287
52467		-0.607808	0.402183	0.684703	-0.759931	-0.544755	-0.354608	0.230378	-0.735861	0.636738
52468		-0.603122	0.412582	0.682657	-0.766947	-0.535115	-0.354181	0.219171	-0.737176	0.639168
52469		-0.598920	0.422341	0.680384	-0.773384	-0.525494	-0.354589	0.207780	-0.738569	0.641361
52470		-0.595167	0.431374	0.678006	-0.779274	-0.515842	-0.355863	0.196234	-0.740151	0.643171
52471		-0.591783	0.439844	0.675522	-0.784643	-0.506365	-0.357673	0.184741	-0.741708	0.644779
52472		-0.588882	0.447784	0.672835	-0.789455	-0.497033	-0.360166	0.173145	-0.743268	0.646199
52473		-0.586427	0.455187	0.670006	-0.793758	-0.487762	-0.363368	0.161403	-0.744912	0.647345
52474		-0.584271	0.462104	0.667149	-0.797636	-0.478593	-0.367050	0.149678	-0.746598	0.648219
52475		-0.582394	0.468349	0.664429	-0.801027	-0.469860	-0.370927	0.138465	-0.748252	0.648804
52476		-0.580815	0.474128	0.661708	-0.803929	-0.461782	-0.374773	0.127874	-0.749640	0.649375
52477		-0.579521	0.479543	0.658934	-0.806404	-0.454262	-0.378626	0.117761	-0.750789	0.649960
52478		-0.578563	0.484558	0.656100	-0.808439	-0.447319	-0.382534	0.108126	-0.751737	0.650538
52479		-0.577807	0.489215	0.653305	-0.810132	-0.440989	-0.386284	0.099124	-0.752461	0.651135
52480		-0.577304	0.493359	0.650628	-0.811448	-0.435400	-0.389845	0.090950	-0.753010	0.651694
52481		-0.576975	0.497080	0.648083	-0.812469	-0.430549	-0.393093	0.083632	-0.753352	0.652277
52482		-0.576757	0.500339	0.645765	-0.813272	-0.426252	-0.396103	0.077073	-0.753638	0.652756
52483		-0.576675	0.503160	0.643642	-0.813827	-0.422872	-0.398578	0.071630	-0.753664	0.653345
52484		-0.576699	0.505712	0.641618	-0.814207	-0.420166	-0.400658	0.066968	-0.753470	0.654063
52485		-0.576755	0.508092	0.639684	-0.814500	-0.417845	-0.402486	0.062790	-0.753159	0.654835
52486		-0.576860	0.510250	0.637870	-0.814732	-0.415517	-0.404422	0.058690	-0.752988	0.655412
52487		-0.576859	0.512309	0.636218	-0.815022	-0.412980	-0.406432	0.054527	-0.752985	0.655774
52488		-0.576848	0.514160	0.634733	-0.815282	-0.410534	-0.408382	0.050605	-0.753061	0.656002
52489		-0.576801	0.515881	0.633378	-0.815529	-0.408315	-0.410111	0.047049	-0.753091	0.656232
52490		-0.576800	0.517410	0.632130	-0.815698	-0.406530	-0.411547	0.044041	-0.753007	0.656537
52491		-0.576820	0.518800	0.630972	-0.815823	-0.404994	-0.412810	0.041374	-0.752878	0.656858
52492		-0.576833	0.520100	0.629889	-0.815935	-0.403584	-0.413968	0.038909	-0.752739	0.657168
52493		-0.576756	0.521452	0.628840	-0.816110	-0.401981	-0.415182	0.036285	-0.752662	0.657407
52494		-0.576715	0.522773	0.627780	-0.816252	-0.400382	-0.416445	0.033645	-0.752597	0.657621
52495		-0.576621	0.524130	0.626734	-0.816416	-0.398941	-0.417507	0.031202	-0.752418	0.657946
52496		-0.576544	0.525551	0.625614	-0.816555	-0.397677	-0.418437	0.028882	-0.752096	0.658420
52497		-0.576380	0.527070	0.624486	-0.816751	-0.396362	-0.419303	0.026521	-0.751728	0.658940
52498		-0.576192	0.528640	0.623332	-0.816964	-0.394848	-0.420315	0.023926	-0.751422	0.659388
52499		-0.575899	0.530375	0.622127	-0.817251	-0.393057	-0.421435	0.021013	-0.751138	0.659811
52500		-0.575590	0.532302	0.620766	-0.817545	-0.391101	-0.422683	0.017787	-0.750796	0.660294
52501		-0.575231	0.534455	0.619247	-0.817867	-0.388959	-0.424033	0.014235	-0.750379	0.660855
52502		-0.574928	0.536748	0.617543	-0.818134	-0.387011	-0.425300	0.010717	-0.749750	0.661635
52503		-0.574727	0.539127	0.615655	-0.818312	-0.385377	-0.426439	0.007354	-0.748884	0.662661
52504		-0.574856	0.541445	0.613496	-0.818243	-0.384231	-0.427603	0.004201	-0.747799	0.663912
52505		-0.575277	0.543648	0.611149	-0.817958	-0.383576	-0.428736	0.001341	-0.746536	0.665343
52506		-0.576066	0.545623	0.608641	-0.817402	-0.383474	-0.429885	-0.001157	-0.745147	0.666899
52507		-0.577122	0.547399	0.606040	-0.816651	-0.383780	-0.431038	-0.003364	-0.743685	0.668522
52508		-0.578400	0.548989	0.603377	-0.815735	-0.384307	-0.432301	-0.005446	-0.742239	0.670113
52509		-0.579727	0.550540	0.600685	-0.814776	-0.384891	-0.433588	-0.007509	-0.740786	0.671699
52510		-0.581070	0.552064	0.597982	-0.813796	-0.385403	-0.434972	-0.009669	-0.739385	0.673214
52511		-0.582508	0.553442	0.595304	-0.812737	-0.385807	-0.436591	-0.011956	-0.738143	0.674538
52512		-0.584046	0.554776	0.592549	-0.811597	-0.386364	-0.438216	-0.014172	-0.736849	0.675909
52513		-0.585734	0.555951	0.589775	-0.810347	-0.387409	-0.439604	-0.015914	-0.735413	0.677432
52514		-0.587605	0.556942	0.586972	-0.808968	-0.389056	-0.440689	-0.017073	-0.733792	0.679160
52515		-0.589675	0.557783	0.584090	-0.807444	-0.391204	-0.441580	-0.017807	-0.732009	0.681062
52516		-0.591937	0.558493	0.581116	-0.805784	-0.393988	-0.442138	-0.017978	-0.729972	0.683241
52517		-0.594343	0.559232	0.577942	-0.804015	-0.397286	-0.442407	-0.017799	-0.727615	0.685755
52518		-0.596939	0.559882	0.574626	-0.802100	-0.401029	-0.442507	-0.017310	-0.725057	0.688471
52519		-0.599707	0.560367	0.571262	-0.800059	-0.405573	-0.442058	-0.016027	-0.722149	0.691552
52520		-0.603013	0.560418	0.567721	-0.797613	-0.411315	-0.441173	-0.013729	-0.718855	0.695025
52521		-0.606967	0.559855	0.564051	-0.794660	-0.418340	-0.439895	-0.010313	-0.715230	0.698813
52522		-0.611628	0.558743	0.560105	-0.791122	-0.426448	-0.438484	-0.006144	-0.711300	0.702861
52523		-0.616775	0.557290	0.555893	-0.787138	-0.435124	-0.437129	-0.001725	-0.707174	0.707037
52524		-0.622591	0.555337	0.551345	-0.782542	-0.444363	-0.436084	0.002824	-0.702952	0.711231
52525		-0.629021	0.552985	0.546389	-0.777357	-0.453788	-0.435652	0.007036	-0.698773	0.715309
52526		-0.636309	0.550106	0.540828	-0.771356	-0.463676	-0.435906	0.010975	-0.694542	0.719369
52527		-0.644395	0.546704	0.534668	-0.764547	-0.474223	-0.436554	0.014886	-0.690092	0.723568
52528		-0.653326	0.542733	0.527832	-0.756838	-0.485714	-0.437354	0.019009	-0.685218	0.728090
52529		-0.663212	0.538012	0.520281	-0.748070	-0.498124	-0.438479	0.023258	-0.680011	0.732833
52530		-0.674127	0.532364	0.511997	-0.738109	-0.511219	-0.440285	0.027350	-0.674718	0.737569
52531		-0.686029	0.525872	0.502814	-0.726929	-0.524489	-0.443266	0.030619	-0.669604	0.742087
52532		-0.698877	0.518436	0.492742	-0.714469	-0.538048	-0.447257	0.033246	-0.664627	0.746436
52533		-0.712515	0.510131	0.481756	-0.700778	-0.551731	-0.452220	0.035109	-0.659818	0.750605
52534		-0.726872	0.500935	0.469809	-0.685831	-0.565268	-0.458376	0.035952	-0.655390	0.754434
52535		-0.741816	0.490412	0.457389	-0.669634	-0.578366	-0.465922	0.036044	-0.651912	0.757438
52536		-0.757346	0.478372	0.444508	-0.652042	-0.591097	-0.474811	0.035611	-0.649434	0.759583
52537		-0.773362	0.465028	0.430882	-0.633032	-0.603305	-0.485071	0.034381	-0.647898	0.760951
52538		-0.789925	0.450432	0.416088	-0.612387	-0.614483	-0.497387	0.031640	-0.647705	0.761234
52539		-0.806930	0.434575	0.400011	-0.589992	-0.624960	-0.511210	0.027832	-0.648513	0.760694
52540		-0.824276	0.417066	0.382918	-0.565677	-0.635369	-0.525657	0.024060	-0.649894	0.759644
52541		-0.841891	0.397809	0.364648	-0.539242	-0.646361	-0.539848	0.020938	-0.651126	0.758680
52542		-0.859638	0.376513	0.345341	-0.510547	-0.658309	-0.553146	0.019074	-0.651818	0.758136
52543		-0.876947	0.353718	0.325343	-0.480235	-0.670914	-0.565022	0.018419	-0.651735	0.758223
52544		-0.893630	0.329944	0.304241	-0.448454	-0.683240	-0.576256	0.017738	-0.651398	0.758529
52545		-0.909615	0.305753	0.281276	-0.415187	-0.693237	-0.589104	0.014871	-0.652639	0.757523
52546		-0.924860	0.280997	0.256271	-0.380193	-0.699760	-0.604805	0.009380	-0.656792	0.754013
52547		-0.939234	0.255497	0.229261	-0.343271	-0.702928	-0.622942	0.001994	-0.663788	0.747918
52548		-0.952559	0.228792	0.200711	-0.304302	-0.703850	-0.641869	-0.005584	-0.672495	0.740080
52549		-0.964495	0.201006	0.171308	-0.263810	-0.702729	-0.660740	-0.012429	-0.682473	0.730805
52550		-0.974609	0.172734	0.142478	-0.223207	-0.699001	-0.679394	-0.017762	-0.693946	0.719808
52551		-0.982481	0.145843	0.116019	-0.185081	-0.690730	-0.699026	-0.021811	-0.708253	0.705622
52552		-0.988130	0.121673	0.093775	-0.151781	-0.679206	-0.718082	-0.023679	-0.723792	0.689612
52553		-0.992112	0.100538	0.074870	-0.123102	-0.668723	-0.733250	-0.023652	-0.736683	0.675824
52554		-0.994971	0.082579	0.056683	-0.097281	-0.661984	-0.743178	-0.023848	-0.744955	0.666688
52555		-0.996942	0.067645	0.039130	-0.074023	-0.656912	-0.750325	-0.025051	-0.750927	0.659910
52556		-0.998200	0.055169	0.023502	-0.053764	-0.649778	-0.758220	-0.026559	-0.758119	0.651575
52557		-0.998958	0.044602	0.009682	-0.036005	-0.639737	-0.767750	-0.028049	-0.767299	0.640676
52558		-0.999383	0.035004	-0.002836	-0.019815	-0.628710	-0.777387	-0.028994	-0.776851	0.629016
52559		-0.999548	0.026149	-0.014835	-0.004528	-0.618753	-0.785573	-0.029721	-0.785150	0.618591
52560		-0.999494	0.018026	-0.026217	0.009741	-0.611070	-0.791516	-0.030288	-0.791371	0.610585
52561		-0.999280	0.010468	-0.036475	0.022674	-0.606031	-0.795118	-0.030428	-0.795372	0.605357
52562		-0.998987	0.003282	-0.044890	0.033830	-0.603073	-0.796968	-0.029688	-0.797679	0.602351
52563		-0.998683	-0.002916	-0.051224	0.042692	-0.600973	-0.798128	-0.028457	-0.799264	0.600306
52564		-0.998425	-0.007645	-0.055575	0.049075	-0.598979	-0.799260	-0.027178	-0.800729	0.598411
52565		-0.998253	-0.010532	-0.058137	0.052905	-0.597393	-0.800201	-0.026303	-0.801879	0.596907
52566		-0.998193	-0.011962	-0.058889	0.054375	-0.596959	-0.800427	-0.025580	-0.802183	0.596531
52567		-0.998242	-0.012197	-0.058007	0.053775	-0.598026	-0.799671	-0.024936	-0.801384	0.597630
52568		-0.998359	-0.011804	-0.056041	0.051893	-0.600412	-0.798005	-0.024228	-0.799603	0.600040
52569		-0.998512	-0.010864	-0.053443	0.049161	-0.603506	-0.795841	-0.023607	-0.797284	0.603142
52570		-0.998689	-0.009355	-0.050327	0.045667	-0.606978	-0.793405	-0.023125	-0.794664	0.606609
52571		-0.998872	-0.007390	-0.046897	0.041650	-0.610520	-0.790905	-0.022787	-0.791966	0.610139
52572		-0.999032	-0.005293	-0.043681	0.037727	-0.613918	-0.788468	-0.022643	-0.789352	0.613523
52573		-0.999156	-0.003122	-0.040957	0.034149	-0.617270	-0.786010	-0.022828	-0.786745	0.616855
52574		-0.999251	-0.000968	-0.038689	0.030949	-0.620233	-0.783807	-0.023238	-0.784417	0.619798
52575		-0.999321	0.001308	-0.036825	0.027997	-0.622800	-0.781880	-0.023957	-0.782380	0.622341
52576		-0.999376	0.003668	-0.035123	0.025120	-0.625225	-0.780040	-0.024821	-0.780436	0.624743
52577		-0.999420	0.006183	-0.033484	0.022184	-0.627781	-0.778074	-0.025832	-0.778366	0.627279
52578		-0.999452	0.008915	-0.031881	0.019130	-0.630449	-0.775995	-0.027018	-0.776179	0.629933
52579		-0.999471	0.011774	-0.030310	0.016006	-0.633235	-0.773794	-0.028304	-0.773870	0.632711
52580		-0.999473	0.014658	-0.028960	0.013017	-0.636325	-0.771311	-0.029734	-0.771282	0.635799
52581		-0.999464	0.017346	-0.027756	0.010242	-0.639672	-0.768580	-0.031087	-0.768452	0.639152
52582		-0.999458	0.019402	-0.026607	0.007900	-0.643124	-0.765722	-0.031968	-0.765516	0.642622
52583		-0.999458	0.020888	-0.025446	0.005923	-0.646239	-0.763112	-0.032385	-0.762849	0.645765
52584		-0.999470	0.021834	-0.024141	0.004202	-0.648914	-0.760850	-0.032278	-0.760548	0.648479
52585		-0.999486	0.022640	-0.022694	0.002495	-0.650870	-0.759185	-0.031959	-0.758852	0.650479
52586		-0.999501	0.023468	-0.021161	0.000731	-0.652299	-0.757961	-0.031591	-0.757598	0.651956
52587		-0.999509	0.024470	-0.019582	-0.001160	-0.653274	-0.757120	-0.031319	-0.756726	0.652982
52588		-0.999509	0.025569	-0.018106	-0.003032	-0.654139	-0.756368	-0.031183	-0.755942	0.653895
52589		-0.999501	0.026756	-0.016803	-0.004843	-0.655294	-0.755358	-0.031221	-0.754900	0.655097
52590		-0.999495	0.027696	-0.015604	-0.006438	-0.657040	-0.753828	-0.031131	-0.753347	0.656886
52591		-0.999490	0.028532	-0.014313	-0.008053	-0.659261	-0.751871	-0.030889	-0.751372	0.659155
52592		-0.999490	0.029256	-0.012830	-0.009741	-0.661598	-0.749795	-0.030424	-0.749287	0.661546
52593		-0.999487	0.030002	-0.011178	-0.011558	-0.663703	-0.747907	-0.029858	-0.747394	0.663709
52594		-0.999477	0.030925	-0.009476	-0.013526	-0.665742	-0.746060	-0.029381	-0.745541	0.665812
52595		-0.999452	0.032199	-0.007738	-0.015751	-0.667776	-0.744195	-0.029130	-0.743665	0.667917
52596		-0.999412	0.033735	-0.006064	-0.018112	-0.669988	-0.742151	-0.029099	-0.741605	0.670205
52597		-0.999363	0.035401	-0.004516	-0.020474	-0.672358	-0.739943	-0.029231	-0.739380	0.672654
52598		-0.999305	0.037138	-0.003056	-0.022834	-0.675072	-0.737399	-0.029449	-0.736817	0.675451
52599		-0.999249	0.038709	-0.001555	-0.025119	-0.677928	-0.734699	-0.029494	-0.734108	0.678392
52600		-0.999197	0.040073	0.000070	-0.027349	-0.680654	-0.732094	-0.029289	-0.731508	0.681204
52601		-0.999147	0.041267	0.001818	-0.029530	-0.682809	-0.730000	-0.028883	-0.729430	0.683445
52602		-0.999094	0.042407	0.003553	-0.031649	-0.684641	-0.728193	-0.028448	-0.727646	0.685363
52603		-0.999034	0.043624	0.005201	-0.033753	-0.686354	-0.726484	-0.028122	-0.725958	0.687164
52604		-0.998975	0.044767	0.006699	-0.035702	-0.688251	-0.724594	-0.027827	-0.724090	0.689143
52605		-0.998918	0.045800	0.008023	-0.037459	-0.690456	-0.722404	-0.027547	-0.721923	0.691425
52606		-0.998867	0.046693	0.009223	-0.039029	-0.692662	-0.720205	-0.027241	-0.719749	0.693700
52607		-0.998823	0.047383	0.010411	-0.040426	-0.694313	-0.718537	-0.026818	-0.718112	0.695411
52608		-0.998786	0.047867	0.011627	-0.041674	-0.695285	-0.717525	-0.026262	-0.717138	0.696436
52609		-0.998742	0.048480	0.012838	-0.042990	-0.695789	-0.716959	-0.025826	-0.716608	0.696998
52610		-0.998694	0.049200	0.013777	-0.044188	-0.696391	-0.716301	-0.025648	-0.715974	0.697656
52611		-0.998641	0.050082	0.014436	-0.045317	-0.697499	-0.715151	-0.025747	-0.714833	0.698821
52612		-0.998587	0.051020	0.014862	-0.046343	-0.699221	-0.713402	-0.026006	-0.713083	0.700597
52613		-0.998532	0.051957	0.015287	-0.047381	-0.701308	-0.711282	-0.026235	-0.710962	0.702741
52614		-0.998472	0.052937	0.015864	-0.048560	-0.703391	-0.709142	-0.026381	-0.708829	0.704887
52615		-0.998401	0.054043	0.016570	-0.049906	-0.705095	-0.707354	-0.026544	-0.707050	0.706665
52616		-0.998324	0.055183	0.017425	-0.051370	-0.706440	-0.705907	-0.026644	-0.705619	0.708091
52617		-0.998238	0.056442	0.018312	-0.052935	-0.707610	-0.704618	-0.026812	-0.704346	0.709351
52618		-0.998145	0.057776	0.019182	-0.054546	-0.708871	-0.703226	-0.027032	-0.702968	0.710708
52619		-0.998041	0.059253	0.020070	-0.056280	-0.710291	-0.701654	-0.027319	-0.701409	0.712235
52620		-0.997934	0.060762	0.020879	-0.057989	-0.711905	-0.699878	-0.027663	-0.699642	0.713957
52621		-0.997806	0.062564	0.021664	-0.059895	-0.713516	-0.698074	-0.028217	-0.697840	0.715698
52622		-0.997660	0.064544	0.022564	-0.061999	-0.714814	-0.696561	-0.028829	-0.696329	0.717143
52623		-0.997486	0.066753	0.023783	-0.064472	-0.715587	-0.695542	-0.029411	-0.695327	0.718092
52624		-0.997272	0.069309	0.025380	-0.067448	-0.716088	-0.694744	-0.029978	-0.694561	0.718809
52625		-0.997010	0.072301	0.027281	-0.070951	-0.716557	-0.693910	-0.030622	-0.693771	0.719544
52626		-0.996684	0.075988	0.029099	-0.074919	-0.717455	-0.692565	-0.031749	-0.692448	0.720768
52627		-0.996303	0.080268	0.030617	-0.079130	-0.718669	-0.690836	-0.033449	-0.690704	0.722363
52628		-0.995874	0.084987	0.031830	-0.083478	-0.720279	-0.688643	-0.035600	-0.688458	0.724402
52629		-0.995418	0.089771	0.032929	-0.087834	-0.722335	-0.685942	-0.037792	-0.685691	0.726911
52630		-0.994936	0.094605	0.033938	-0.092212	-0.724864	-0.682693	-0.039985	-0.682366	0.729917
52631		-0.994417	0.099521	0.035075	-0.096761	-0.727418	-0.679338	-0.042094	-0.678939	0.732987
52632		-0.993846	0.104707	0.036138	-0.101486	-0.730012	-0.675858	-0.044385	-0.675366	0.736146
52633		-0.993164	0.110690	0.037058	-0.106737	-0.732654	-0.672180	-0.047252	-0.671540	0.739460
52634		-0.992369	0.117475	0.037457	-0.112303	-0.735710	-0.667921	-0.050907	-0.667030	0.743289
52635		-0.991453	0.125009	0.037339	-0.118179	-0.739257	-0.662973	-0.055275	-0.661719	0.747711
52636		-0.990454	0.132934	0.036452	-0.123936	-0.743089	-0.657616	-0.060332	-0.655857	0.752471
52637		-0.989415	0.140898	0.034730	-0.129280	-0.747120	-0.651996	-0.065917	-0.649584	0.757427
52638		-0.988377	0.148580	0.032178	-0.133991	-0.751408	-0.646090	-0.071817	-0.642892	0.762583
52639		-0.987324	0.156024	0.029107	-0.138305	-0.755794	-0.640037	-0.077862	-0.635949	0.767793
52640		-0.986252	0.163228	0.025762	-0.142295	-0.759610	-0.634622	-0.084019	-0.629563	0.772394
52641		-0.985118	0.170444	0.022182	-0.146113	-0.762454	-0.630330	-0.090523	-0.624190	0.776010
52642		-0.983906	0.177739	0.018401	-0.149814	-0.764398	-0.627098	-0.097394	-0.619762	0.778723
52643		-0.982542	0.185479	0.014447	-0.153751	-0.765834	-0.624386	-0.104746	-0.615707	0.780982
52644		-0.980989	0.193797	0.010154	-0.158039	-0.767422	-0.621359	-0.112625	-0.611151	0.783461
52645		-0.979313	0.202282	0.005223	-0.162262	-0.769619	-0.617541	-0.120897	-0.605614	0.786521
52646		-0.977501	0.210928	-0.000899	-0.166131	-0.772510	-0.612886	-0.129970	-0.598947	0.790171
52647		-0.975540	0.219671	-0.008162	-0.169583	-0.775691	-0.607902	-0.139869	-0.591649	0.793970
52648		-0.973517	0.228017	-0.016519	-0.172220	-0.778972	-0.602945	-0.150349	-0.584133	0.797612
52649		-0.971475	0.235756	-0.025589	-0.174004	-0.781983	-0.598519	-0.161115	-0.576994	0.800700
52650		-0.969416	0.242894	-0.035141	-0.175025	-0.784596	-0.594790	-0.172042	-0.570448	0.803113
52651		-0.967332	0.249504	-0.044905	-0.175538	-0.787009	-0.591442	-0.182908	-0.564238	0.805097
52652		-0.965241	0.255558	-0.054763	-0.175759	-0.789771	-0.587682	-0.193437	-0.557630	0.807237
52653		-0.963147	0.261140	-0.064458	-0.176076	-0.793276	-0.582846	-0.203337	-0.550017	0.810022
52654		-0.961038	0.266363	-0.073875	-0.176624	-0.797325	-0.577128	-0.212628	-0.541593	0.813306
52655		-0.958939	0.271315	-0.082614	-0.177527	-0.801382	-0.571202	-0.221181	-0.533081	0.816642
52656		-0.956844	0.276039	-0.090840	-0.178517	-0.804991	-0.565792	-0.229306	-0.525158	0.819529
52657		-0.954814	0.280385	-0.098563	-0.179275	-0.807859	-0.561448	-0.237046	-0.518409	0.821621
52658		-0.952816	0.284382	-0.106151	-0.179639	-0.810162	-0.558003	-0.244685	-0.512606	0.823021
52659		-0.950885	0.287974	-0.113532	-0.179639	-0.812062	-0.555234	-0.252088	-0.507569	0.823909
52660		-0.949113	0.291000	-0.120433	-0.179330	-0.813718	-0.552905	-0.258894	-0.503172	0.824495
52661		-0.947535	0.293597	-0.126403	-0.179102	-0.815172	-0.550833	-0.264763	-0.499295	0.824988
52662		-0.946204	0.295788	-0.131176	-0.179178	-0.816545	-0.548772	-0.269431	-0.495746	0.825617
52663		-0.945125	0.297679	-0.134635	-0.179731	-0.817866	-0.546618	-0.272830	-0.492424	0.826488
52664		-0.944263	0.299263	-0.137146	-0.180710	-0.819455	-0.543909	-0.275156	-0.488810	0.827861
52665		-0.943503	0.300832	-0.138934	-0.182464	-0.821651	-0.539997	-0.276603	-0.484138	0.830121
52666		-0.942827	0.302339	-0.140242	-0.184944	-0.824676	-0.534514	-0.277259	-0.478017	0.833443
52667		-0.942302	0.303679	-0.140878	-0.187936	-0.828135	-0.528084	-0.277034	-0.471139	0.837425
52668		-0.942047	0.304614	-0.140562	-0.191238	-0.831844	-0.521022	-0.275636	-0.463946	0.841890
52669		-0.942119	0.305123	-0.138967	-0.194726	-0.835369	-0.514042	-0.272935	-0.457229	0.846433
52670		-0.942582	0.304926	-0.136233	-0.198103	-0.838881	-0.506984	-0.268876	-0.450886	0.851121
52671		-0.943439	0.303938	-0.132452	-0.201449	-0.842807	-0.499094	-0.263325	-0.444182	0.856365
52672		-0.944694	0.301996	-0.127878	-0.204768	-0.847738	-0.489296	-0.256172	-0.436050	0.862691
52673		-0.946282	0.299332	-0.122272	-0.208454	-0.853832	-0.476988	-0.247178	-0.425877	0.870363
52674		-0.948203	0.295915	-0.115526	-0.212283	-0.860803	-0.462552	-0.236321	-0.414069	0.879033
52675		-0.950448	0.291727	-0.107447	-0.215864	-0.867996	-0.447198	-0.223723	-0.401844	0.887958
52676		-0.952993	0.286664	-0.098121	-0.218796	-0.875113	-0.431632	-0.209600	-0.389874	0.896697
52677		-0.955731	0.280891	-0.087629	-0.221053	-0.881982	-0.416224	-0.194201	-0.378427	0.905030
52678		-0.958614	0.274371	-0.076027	-0.222601	-0.888763	-0.400687	-0.177507	-0.367180	0.913055
52679		-0.961498	0.267359	-0.063565	-0.223565	-0.895500	-0.384836	-0.159812	-0.355808	0.920793
52680		-0.964383	0.259676	-0.050342	-0.223721	-0.902298	-0.368520	-0.141119	-0.344132	0.928256
52681		-0.967213	0.251373	-0.036196	-0.223123	-0.909152	-0.351652	-0.121304	-0.332046	0.935431
52682		-0.969978	0.242269	-0.021172	-0.221489	-0.916008	-0.334473	-0.100426	-0.319742	0.942168
52683		-0.972621	0.232341	-0.005085	-0.218761	-0.922717	-0.317392	-0.078435	-0.307590	0.948281
52684		-0.975082	0.221523	0.011975	-0.214827	-0.929383	-0.300161	-0.055364	-0.295254	0.953813
52685		-0.977278	0.209839	0.029935	-0.209644	-0.936066	-0.282540	-0.031267	-0.282396	0.958788
52686		-0.979169	0.197181	0.048451	-0.202943	-0.942823	-0.264384	-0.006451	-0.268709	0.963200
52687		-0.980638	0.183821	0.067515	-0.194915	-0.949467	-0.246010	0.018882	-0.254406	0.966913
52688		-0.981648	0.169588	0.087224	-0.185386	-0.955870	-0.227915	0.044723	-0.239903	0.969766
52689		-0.982124	0.154373	0.107712	-0.174290	-0.961916	-0.210571	0.071103	-0.225580	0.971627
52690		-0.981988	0.138191	0.128849	-0.161597	-0.967648	-0.193762	0.097905	-0.211094	0.972550
52691		-0.981161	0.121031	0.150582	-0.147290	-0.973010	-0.177646	0.125017	-0.196478	0.972506
52692		-0.979541	0.102841	0.172984	-0.131337	-0.977962	-0.162300	0.152481	-0.181699	0.971460
52693		-0.977121	0.083848	0.195460	-0.113907	-0.982406	-0.148001	0.179611	-0.166879	0.969480
52694		-0.973894	0.064014	0.217791	-0.094945	-0.986333	-0.134658	0.206194	-0.151821	0.966661
52695		-0.969813	0.043489	0.239940	-0.074591	-0.989710	-0.122107	0.232160	-0.136318	0.963078
52696		-0.964817	0.022298	0.261973	-0.053052	-0.992413	-0.110915	0.257512	-0.120911	0.958680
52697		-0.958663	0.000599	0.284543	-0.030792	-0.994344	-0.101646	0.282873	-0.106206	0.953259
52698		-0.951306	-0.021467	0.307499	-0.007990	-0.995520	-0.094217	0.308144	-0.092086	0.946873
52699		-0.942728	-0.043880	0.330662	0.014909	-0.995862	-0.089650	0.333228	-0.079586	0.939481
52700		-0.933012	-0.066799	0.353592	0.037928	-0.995401	-0.087968	0.357842	-0.068664	0.931254
52701		-0.922107	-0.090323	0.376245	0.060841	-0.994123	-0.089541	0.382122	-0.059675	0.922183
52702		-0.910121	-0.114348	0.398252	0.083662	-0.992083	-0.093660	0.405809	-0.051923	0.912482
52703		-0.897068	-0.138631	0.419583	0.106471	-0.989350	-0.099249	0.428873	-0.044360	0.902275
52704		-0.882976	-0.163162	0.440149	0.129556	-0.985935	-0.105583	0.451186	-0.036204	0.891695
52705		-0.867652	-0.187672	0.460391	0.152763	-0.981857	-0.112344	0.473122	-0.027145	0.880579
52706		-0.851162	-0.211993	0.480191	0.175706	-0.977111	-0.119922	0.494622	-0.017701	0.868928
52707		-0.833571	-0.236157	0.499388	0.197955	-0.971676	-0.129075	0.515725	-0.008736	0.856710
52708		-0.815248	-0.260230	0.517349	0.219722	-0.965547	-0.139435	0.535810	-0.000001	0.844338
52709		-0.796328	-0.284481	0.533790	0.241476	-0.958640	-0.150659	0.554573	0.008924	0.832088
52710		-0.776854	-0.308973	0.548665	0.263846	-0.950881	-0.161896	0.571736	0.018993	0.820217
52711		-0.756865	-0.333540	0.562055	0.286868	-0.942246	-0.172858	0.587249	0.030406	0.808835
52712		-0.736516	-0.357992	0.573921	0.310208	-0.932747	-0.183722	0.601095	0.042721	0.798035
52713		-0.715312	-0.382215	0.585013	0.333214	-0.922418	-0.195225	0.614245	0.055288	0.787176
52714		-0.693845	-0.405928	0.594812	0.355197	-0.911432	-0.207669	0.626430	0.067185	0.776577
52715		-0.671950	-0.429073	0.603638	0.375986	-0.899862	-0.221096	0.638057	0.078394	0.765988
52716		-0.650004	-0.451465	0.611289	0.396047	-0.887774	-0.234532	0.648569	0.089652	0.755857
52717		-0.627943	-0.472975	0.618048	0.415407	-0.875248	-0.247745	0.658122	0.101172	0.746083
52718		-0.605990	-0.493737	0.623699	0.433975	-0.862300	-0.260967	0.666665	0.112526	0.736815
52719		-0.583589	-0.514257	0.628461	0.451975	-0.848667	-0.274743	0.674642	0.123712	0.727704
52720		-0.560608	-0.534708	0.632302	0.469849	-0.834157	-0.288833	0.681880	0.135165	0.718867
52721		-0.536878	-0.555403	0.635051	0.487289	-0.818620	-0.303990	0.688702	0.146249	0.710141
52722		-0.512453	-0.576186	0.636711	0.504172	-0.802100	-0.320073	0.695128	0.156989	0.701535
52723		-0.487205	-0.596709	0.637628	0.520043	-0.784810	-0.337087	0.701560	0.167364	0.692678
52724		-0.461465	-0.616692	0.637763	0.534735	-0.766967	-0.354710	0.707890	0.177348	0.683695
52725		-0.435251	-0.636097	0.637132	0.547799	-0.748718	-0.373279	0.714474	0.186550	0.674334
52726		-0.408865	-0.654891	0.635568	0.559410	-0.730107	-0.392433	0.721034	0.195091	0.664868
52727		-0.381968	-0.673250	0.633115	0.569486	-0.711006	-0.412499	0.727864	0.202988	0.654989
52728		-0.354589	-0.691514	0.629345	0.578223	-0.691119	-0.433604	0.734796	0.210150	0.644913
52729		-0.326516	-0.709953	0.623982	0.585626	-0.670138	-0.456023	0.741909	0.216522	0.634578
52730		-0.298054	-0.728448	0.616869	0.592870	-0.647752	-0.478458	0.748110	0.223117	0.624940
52731		-0.268628	-0.746636	0.608584	0.600061	-0.623946	-0.500617	0.753502	0.230707	0.615636
52732		-0.238607	-0.764169	0.599261	0.606177	-0.599303	-0.522862	0.758694	0.238500	0.606219
52733		-0.208488	-0.780828	0.588932	0.609739	-0.574587	-0.545956	0.764690	0.245270	0.595896
52734		-0.179261	-0.796330	0.577689	0.610288	-0.550574	-0.569576	0.771631	0.250454	0.584687
52735		-0.150950	-0.810886	0.565400	0.607120	-0.527423	-0.594332	0.780141	0.253551	0.571920
52736		-0.124136	-0.824754	0.551699	0.600582	-0.505040	-0.619867	0.789868	0.254393	0.558026
52737		-0.097683	-0.838107	0.536689	0.592754	-0.482178	-0.645094	0.799437	0.255110	0.543892
52738		-0.071852	-0.850920	0.520358	0.585243	-0.458425	-0.668832	0.807668	0.256479	0.530934
52739		-0.046224	-0.863028	0.503036	0.578145	-0.433776	-0.691077	0.814624	0.258884	0.519006
52740		-0.020785	-0.873918	0.485629	0.570315	-0.409317	-0.712180	0.821163	0.262159	0.506916
52741		0.003673	-0.883623	0.468185	0.558832	-0.386444	-0.733735	0.829273	0.264332	0.492378
52742		0.027670	-0.892073	0.451044	0.544260	-0.365028	-0.755338	0.838460	0.266385	0.475419
52743		0.050763	-0.899663	0.433624	0.527538	-0.344514	-0.776539	0.848013	0.268172	0.457118
52744		0.073695	-0.906373	0.416001	0.510597	-0.324025	-0.796429	0.856656	0.271101	0.438912
52745		0.096327	-0.912569	0.397415	0.493541	-0.302940	-0.815257	0.864372	0.274672	0.421209
52746		0.117841	-0.918618	0.377165	0.477655	-0.280553	-0.832548	0.870609	0.278263	0.405722
52747		0.138463	-0.924509	0.355120	0.464097	-0.256195	-0.847925	0.874895	0.282217	0.393589
52748		0.157297	-0.930452	0.330933	0.452726	-0.229877	-0.861508	0.877665	0.285335	0.385081
52749		0.175092	-0.936183	0.304802	0.443507	-0.201397	-0.873350	0.879002	0.288099	0.379941
52750		0.191596	-0.941485	0.277303	0.436900	-0.171186	-0.883070	0.878868	0.290346	0.378537
52751		0.207599	-0.946041	0.248814	0.431550	-0.139694	-0.891207	0.877877	0.292390	0.379263
52752		0.223372	-0.949675	0.219596	0.426549	-0.107336	-0.898073	0.876448	0.294273	0.381107
52753		0.238466	-0.952359	0.190123	0.421145	-0.074994	-0.903888	0.875083	0.295616	0.383198
52754		0.253626	-0.953764	0.161269	0.414406	-0.043509	-0.909052	0.874037	0.297390	0.384210
52755		0.269050	-0.953852	0.133338	0.405445	-0.013408	-0.914021	0.873628	0.299979	0.383127
52756		0.283333	-0.953116	0.106261	0.393570	0.014519	-0.919180	0.874542	0.302255	0.379232
52757		0.295751	-0.951937	0.079675	0.379040	0.040383	-0.924499	0.876847	0.303621	0.372765
52758		0.306032	-0.950562	0.052694	0.362543	0.065184	-0.929685	0.880288	0.303617	0.364568
52759		0.313584	-0.949257	0.023994	0.345561	0.090546	-0.934018	0.884451	0.301184	0.356420
52760		0.318937	-0.947751	-0.006926	0.328746	0.117477	-0.937083	0.888935	0.296594	0.349037
52761		0.324426	-0.945120	-0.038670	0.315318	0.146600	-0.937594	0.891808	0.291986	0.345575
52762		0.330782	-0.941066	-0.070551	0.305984	0.177672	-0.935311	0.892725	0.287796	0.346722
52763		0.338191	-0.935449	-0.102776	0.297478	0.209874	-0.931375	0.892824	0.284409	0.349253
52764		0.345530	-0.928469	-0.136214	0.288935	0.243365	-0.925900	0.892819	0.280569	0.352357
52765		0.351911	-0.920288	-0.170962	0.280160	0.277829	-0.918870	0.893123	0.275464	0.355599
52766		0.356429	-0.911040	-0.207278	0.271204	0.313179	-0.910147	0.894095	0.268188	0.358704
52767		0.359566	-0.900476	-0.244654	0.262945	0.349343	-0.899344	0.895306	0.259043	0.362387
52768		0.362084	-0.888303	-0.282513	0.255133	0.385947	-0.886539	0.896550	0.248923	0.366381
52769		0.364452	-0.874633	-0.319674	0.248632	0.422216	-0.871731	0.897417	0.238223	0.371340
52770		0.367548	-0.859436	-0.355357	0.241922	0.457303	-0.855773	0.897988	0.228569	0.375997
52771		0.371785	-0.842596	-0.389625	0.231756	0.490666	-0.839962	0.898924	0.221988	0.377699
52772		0.376230	-0.824227	-0.423203	0.216576	0.522343	-0.824774	0.900858	0.218650	0.375029
52773		0.379995	-0.804800	-0.455962	0.196220	0.551854	-0.810528	0.903937	0.218527	0.367619
52774		0.381722	-0.785027	-0.487874	0.170822	0.578671	-0.797471	0.908355	0.221072	0.354991
52775		0.381814	-0.765133	-0.518448	0.140872	0.602570	-0.785535	0.913440	0.226894	0.337855
52776		0.379889	-0.745248	-0.547987	0.108501	0.624208	-0.773687	0.918647	0.234458	0.317990
52777		0.376351	-0.725612	-0.576062	0.077752	0.644320	-0.760793	0.923209	0.241535	0.298909
52778		0.372440	-0.706238	-0.602093	0.053102	0.663922	-0.745914	0.926536	0.245836	0.284774
52779		0.369337	-0.687408	-0.625348	0.036053	0.683020	-0.729510	0.928596	0.246889	0.277048
52780		0.366845	-0.669332	-0.646080	0.026161	0.701647	-0.712044	0.929914	0.244308	0.274906
52781		0.364603	-0.652551	-0.664260	0.019732	0.718620	-0.695123	0.930954	0.240337	0.274887
52782		0.361854	-0.637273	-0.680400	0.013674	0.733409	-0.679650	0.932135	0.236630	0.274101
52783		0.358769	-0.623762	-0.694411	0.006931	0.745697	-0.666249	0.933401	0.234216	0.271856
52784		0.355212	-0.612368	-0.706279	0.001202	0.755850	-0.654744	0.934785	0.231724	0.269223
52785		0.351759	-0.603495	-0.715583	-0.001556	0.764060	-0.645143	0.936089	0.228048	0.267826
52786		0.348621	-0.597202	-0.722366	-0.001467	0.770369	-0.637596	0.937263	0.223339	0.267691
52787		0.345785	-0.593650	-0.726644	0.001120	0.774676	-0.632358	0.938313	0.217847	0.268536
52788		0.343334	-0.592518	-0.728728	0.003751	0.776750	-0.629798	0.939206	0.213497	0.268907
52789		0.341188	-0.593648	-0.728816	0.005377	0.776560	-0.630020	0.939980	0.211036	0.268146
52790		0.339310	-0.596968	-0.726979	0.006002	0.774186	-0.632930	0.940656	0.210396	0.266272
52791		0.337832	-0.602161	-0.723376	0.006023	0.769929	-0.638101	0.941187	0.211214	0.263733
52792		0.336547	-0.609271	-0.718001	0.006458	0.763954	-0.645238	0.941644	0.212516	0.261042
52793		0.335456	-0.618143	-0.710893	0.008397	0.756550	-0.653882	0.942018	0.213379	0.258980
52794		0.334313	-0.628783	-0.702045	0.012543	0.747808	-0.663797	0.942379	0.213110	0.257888
52795		0.333318	-0.640917	-0.691466	0.019233	0.737875	-0.674663	0.942618	0.211578	0.258274
52796		0.332639	-0.654425	-0.679028	0.027250	0.726400	-0.686732	0.942660	0.209930	0.259462
52797		0.332205	-0.668959	-0.664931	0.035520	0.713341	-0.699916	0.942538	0.208897	0.260737
52798		0.332017	-0.684288	-0.649241	0.043783	0.698723	-0.714051	0.942257	0.208651	0.261949
52799		0.331568	-0.700181	-0.632304	0.052406	0.682852	-0.728675	0.941975	0.208469	0.263105
52800		0.330698	-0.716801	-0.613869	0.062436	0.665659	-0.743640	0.941669	0.207593	0.264886
52801		0.329211	-0.734103	-0.593897	0.074017	0.647084	-0.758817	0.941351	0.205853	0.267363
52802		0.326897	-0.752248	-0.572068	0.086273	0.626551	-0.774591	0.941114	0.203858	0.269717
52803		0.323898	-0.770938	-0.548402	0.098723	0.604027	-0.790826	0.940927	0.202007	0.271752
52804		0.320212	-0.789891	-0.523007	0.110073	0.579358	-0.807606	0.940930	0.201036	0.272463
52805		0.315618	-0.808558	-0.496608	0.121259	0.553436	-0.824017	0.941106	0.199857	0.272720
52806		0.309995	-0.826919	-0.469157	0.133320	0.526399	-0.839720	0.941344	0.197761	0.273425
52807		0.303405	-0.844723	-0.440895	0.147530	0.498771	-0.854086	0.941372	0.194089	0.275951
52808		0.296043	-0.862035	-0.411405	0.163274	0.470043	-0.867411	0.941116	0.189620	0.279901
52809		0.288021	-0.878732	-0.380623	0.179690	0.439999	-0.879837	0.940614	0.185017	0.284628
52810		0.279373	-0.894865	-0.348092	0.196488	0.408136	-0.891526	0.939863	0.180672	0.289852
52811		0.269911	-0.910228	-0.314059	0.213055	0.374536	-0.902403	0.939019	0.176656	0.295020
52812		0.259564	-0.924753	-0.278313	0.229477	0.338998	-0.912371	0.938066	0.172953	0.300201
52813		0.248344	-0.938178	-0.241136	0.245688	0.301800	-0.921170	0.936996	0.169523	0.305450
52814		0.236241	-0.950246	-0.203032	0.260201	0.263181	-0.928995	0.936208	0.166638	0.309429
52815		0.223310	-0.960743	-0.164639	0.273491	0.223875	-0.935459	0.935594	0.163870	0.312748
52816		0.209495	-0.969686	-0.125780	0.286361	0.183837	-0.940320	0.934938	0.160974	0.316193
52817		0.194828	-0.977013	-0.086528	0.298654	0.143121	-0.943569	0.934263	0.157992	0.319673
52818		0.179680	-0.982615	-0.046712	0.309777	0.101586	-0.945367	0.933677	0.155393	0.322645
52819		0.163898	-0.986458	-0.006204	0.319869	0.059093	-0.945617	0.933178	0.153001	0.325222
52820		0.147622	-0.988423	0.035043	0.328557	0.015590	-0.944355	0.932876	0.150921	0.327055
52821		0.130720	-0.988484	0.076238	0.335518	-0.028253	-0.941610	0.932920	0.148667	0.327961
52822		0.113194	-0.986640	0.117171	0.342291	-0.071986	-0.936832	0.932751	0.146150	0.329570
52823		0.095296	-0.982854	0.157852	0.349834	-0.115392	-0.929678	0.931952	0.143817	0.332839
52824		0.077094	-0.977139	0.198132	0.357849	-0.158364	-0.920253	0.930591	0.141848	0.337459
52825		0.058600	-0.969558	0.237746	0.365232	-0.200821	-0.908997	0.929070	0.140099	0.342346
52826		0.039886	-0.960125	0.276713	0.371138	-0.242886	-0.896249	0.927721	0.138446	0.346651
52827		0.020698	-0.948849	0.315051	0.374962	-0.284750	-0.882225	0.926809	0.136392	0.349889
52828		0.000976	-0.935848	0.352403	0.376191	-0.326173	-0.867232	0.926542	0.133418	0.351739
52829		-0.018956	-0.921291	0.388412	0.375554	-0.366595	-0.851215	0.926607	0.129734	0.352943
52830		-0.038925	-0.905430	0.422706	0.374135	-0.405462	-0.834041	0.926557	0.125684	0.354536
52831		-0.059110	-0.888442	0.455167	0.373370	-0.442547	-0.815320	0.925797	0.121752	0.357876
52832		-0.079227	-0.870269	0.486163	0.373596	-0.478073	-0.794904	0.924202	0.118651	0.363005
52833		-0.098997	-0.850795	0.516090	0.373974	-0.512427	-0.773021	0.922141	0.116478	0.368904
52834		-0.118796	-0.830129	0.544769	0.373185	-0.545757	-0.750255	0.920120	0.114172	0.374625
52835		-0.138547	-0.808512	0.571938	0.370630	-0.577871	-0.727116	0.918389	0.111238	0.379721
52836		-0.158309	-0.786497	0.596959	0.366838	-0.608158	-0.703970	0.916716	0.107543	0.384793
52837		-0.178277	-0.764248	0.619792	0.363624	-0.636464	-0.680214	0.914328	0.104104	0.391366
52838		-0.198057	-0.741753	0.640762	0.361156	-0.662944	-0.655799	0.911230	0.101529	0.399189
52839		-0.217779	-0.718752	0.660279	0.358989	-0.688081	-0.630612	0.907579	0.099699	0.407874
52840		-0.237272	-0.695099	0.678631	0.355786	-0.712221	-0.605110	0.903946	0.097872	0.416296
52841		-0.256875	-0.670981	0.695557	0.350420	-0.735396	-0.579999	0.900678	0.094749	0.424030
52842		-0.276648	-0.646939	0.710589	0.342838	-0.757233	-0.555932	0.897735	0.089819	0.431282
52843		-0.296420	-0.623113	0.723785	0.334811	-0.777548	-0.532279	0.894448	0.084553	0.439106
52844		-0.315455	-0.599417	0.735655	0.327696	-0.796358	-0.508360	0.890564	0.080706	0.447642
52845		-0.333429	-0.575425	0.746800	0.321305	-0.814065	-0.483799	0.886334	0.078638	0.456320
52846		-0.350121	-0.551354	0.757248	0.314725	-0.830662	-0.459291	0.882249	0.077517	0.464357
52847		-0.365676	-0.527618	0.766746	0.307752	-0.846007	-0.435387	0.878390	0.076757	0.471740
52848		-0.380255	-0.504569	0.775124	0.300728	-0.859991	-0.412284	0.874625	0.076328	0.478754
52849		-0.394078	-0.482208	0.782418	0.293959	-0.872720	-0.389804	0.870799	0.076386	0.485670
52850		-0.407683	-0.460204	0.788674	0.286988	-0.884520	-0.367781	0.866852	0.076402	0.492677
52851		-0.421412	-0.437994	0.794087	0.278594	-0.895818	-0.346259	0.863016	0.075310	0.499531
52852		-0.435045	-0.415459	0.798830	0.267858	-0.906736	-0.325703	0.859644	0.072278	0.505755
52853		-0.448398	-0.392418	0.803086	0.254608	-0.917327	-0.306082	0.856805	0.067225	0.511240
52854		-0.461300	-0.369117	0.806818	0.239449	-0.927404	-0.287379	0.854322	0.060623	0.516196
52855		-0.474194	-0.345718	0.809703	0.224401	-0.936763	-0.268550	0.851343	0.054353	0.521787
52856		-0.487075	-0.322374	0.811685	0.211655	-0.945248	-0.248412	0.847325	0.050802	0.528639
52857		-0.499958	-0.298988	0.812803	0.202007	-0.952889	-0.226263	0.842161	0.051070	0.536802
52858		-0.512896	-0.276005	0.812871	0.195194	-0.959597	-0.202664	0.835965	0.054722	0.546048
52859		-0.525818	-0.253307	0.812005	0.190440	-0.965453	-0.177855	0.829004	0.061119	0.555892
52860		-0.538931	-0.230646	0.810158	0.186890	-0.970552	-0.151987	0.821356	0.069500	0.566166
52861		-0.552126	-0.207284	0.807583	0.184243	-0.974990	-0.124290	0.813149	0.080167	0.576509
52862		-0.564588	-0.182558	0.804930	0.181356	-0.978838	-0.094795	0.805202	0.092459	0.585749
52863		-0.576735	-0.156002	0.801898	0.176574	-0.982199	-0.064084	0.797620	0.104635	0.594015
52864		-0.588409	-0.127666	0.798421	0.168872	-0.985083	-0.033060	0.790732	0.115378	0.601192
52865		-0.599907	-0.097576	0.794098	0.158672	-0.987330	-0.001450	0.784178	0.125131	0.607788
52866		-0.611167	-0.066449	0.788707	0.147161	-0.988635	0.030742	0.777701	0.134856	0.614000
52867		-0.622130	-0.034688	0.782145	0.135414	-0.988729	0.063860	0.771114	0.145643	0.619815
52868		-0.632408	-0.002899	0.774630	0.124049	-0.987467	0.097578	0.764638	0.157801	0.624841
52869		-0.641412	0.028610	0.766663	0.112854	-0.984915	0.131171	0.758851	0.170656	0.628507
52870		-0.648785	0.059450	0.758646	0.100454	-0.981528	0.162822	0.754312	0.181846	0.630829
52871		-0.654208	0.089404	0.751012	0.086381	-0.977658	0.191632	0.751366	0.190240	0.631869
52872		-0.657792	0.117532	0.743973	0.070526	-0.973799	0.216197	0.749890	0.194682	0.632268
52873		-0.659947	0.143457	0.737489	0.053169	-0.970223	0.236307	0.749428	0.195161	0.632668
52874		-0.660659	0.167415	0.731780	0.035028	-0.966878	0.252824	0.749869	0.192663	0.632912
52875		-0.659891	0.189580	0.727051	0.016910	-0.963653	0.266623	0.751171	0.188237	0.632700
52876		-0.657932	0.209945	0.723221	-0.000777	-0.960543	0.278130	0.753077	0.182428	0.632135
52877		-0.655035	0.228149	0.720331	-0.017866	-0.957735	0.287096	0.755387	0.175189	0.631426
52878		-0.651753	0.244179	0.718049	-0.034464	-0.955313	0.293581	0.757648	0.166595	0.631043
52879		-0.648297	0.258279	0.716242	-0.050210	-0.953161	0.298266	0.759730	0.157403	0.630900
52880		-0.644869	0.270650	0.714768	-0.064381	-0.951113	0.302057	0.761577	0.148770	0.630768
52881		-0.641464	0.281155	0.713775	-0.076319	-0.949194	0.305298	0.763347	0.141363	0.630331
52882		-0.638153	0.289174	0.713540	-0.086805	-0.947898	0.306519	0.765001	0.133667	0.630006
52883		-0.635069	0.294315	0.714189	-0.096590	-0.947570	0.304600	0.766392	0.124459	0.630201
52884		-0.632321	0.296589	0.715685	-0.105337	-0.948151	0.299858	0.767512	0.114218	0.630777
52885		-0.629846	0.296238	0.718009	-0.112089	-0.949402	0.293381	0.768590	0.104304	0.631182
52886		-0.627664	0.293564	0.721012	-0.116144	-0.951121	0.286146	0.769772	0.095862	0.631080
52887		-0.625607	0.288900	0.724674	-0.117734	-0.953229	0.278377	0.771203	0.088836	0.630360
52888		-0.623697	0.282224	0.728938	-0.117156	-0.955762	0.269802	0.772837	0.082875	0.629170
52889		-0.621946	0.273603	0.733706	-0.115130	-0.958740	0.259927	0.774550	0.077188	0.627785
52890		-0.620463	0.263124	0.738777	-0.111701	-0.962081	0.248844	0.776240	0.071876	0.626326
52891		-0.619031	0.250806	0.744242	-0.106624	-0.965702	0.236751	0.778095	0.067202	0.624542
52892		-0.617671	0.236789	0.749942	-0.100026	-0.969505	0.223731	0.780049	0.063179	0.622520
52893		-0.616340	0.220973	0.755841	-0.092563	-0.973498	0.209127	0.782021	0.058931	0.620460
52894		-0.614955	0.203495	0.761853	-0.084839	-0.977595	0.192640	0.783985	0.053830	0.618441
52895		-0.613250	0.184106	0.768134	-0.076953	-0.981757	0.173870	0.786132	0.047515	0.616230
52896		-0.611148	0.162833	0.774586	-0.068679	-0.985829	0.153053	0.788531	0.040340	0.613671
52897		-0.608672	0.139293	0.781099	-0.059156	-0.989696	0.130395	0.791213	0.033161	0.610640
52898		-0.605772	0.113772	0.787462	-0.047836	-0.993141	0.106690	0.794199	0.026961	0.607060
52899		-0.602179	0.086181	0.793696	-0.034581	-0.996039	0.081916	0.797612	0.021881	0.602774
52900		-0.597889	0.056747	0.799567	-0.019440	-0.998224	0.056309	0.801343	0.018123	0.597931
52901		-0.592807	0.025495	0.804941	-0.002648	-0.999555	0.029709	0.805340	0.015481	0.592611
52902		-0.587061	-0.007052	0.809512	0.015709	-0.999873	0.002682	0.809390	0.014291	0.587098
52903		-0.580540	-0.040887	0.813205	0.035173	-0.999065	-0.025122	0.813472	0.014019	0.581435
52904		-0.573419	-0.075737	0.815754	0.055362	-0.997024	-0.053650	0.817389	0.014398	0.575906
52905		-0.565598	-0.111562	0.817100	0.075669	-0.993648	-0.083289	0.821202	0.014721	0.570448
52906		-0.557349	-0.148275	0.816931	0.096136	-0.988831	-0.113887	0.824694	0.015061	0.565378
52907		-0.548358	-0.185940	0.815310	0.116872	-0.982438	-0.145451	0.828037	0.015527	0.560459
52908		-0.538553	-0.224392	0.812163	0.138499	-0.974351	-0.177363	0.831131	0.016964	0.555818
52909		-0.527599	-0.263594	0.807562	0.161366	-0.964430	-0.209372	0.834026	0.019849	0.551368
52910		-0.515378	-0.303114	0.801565	0.185539	-0.952638	-0.240948	0.836636	0.024542	0.547209
52911		-0.501876	-0.342651	0.794173	0.210272	-0.938972	-0.272245	0.838991	0.030359	0.543297
52912		-0.487112	-0.381966	0.785381	0.234990	-0.923444	-0.303366	0.841131	0.036784	0.539579
52913		-0.471074	-0.421078	0.775102	0.259083	-0.905998	-0.334728	0.843188	0.043134	0.535886
52914		-0.453827	-0.460032	0.763159	0.282473	-0.886534	-0.366424	0.845133	0.049279	0.532280
52915		-0.435522	-0.499012	0.749204	0.306018	-0.864791	-0.398107	0.846566	0.055886	0.529343
52916		-0.416415	-0.537842	0.733024	0.330490	-0.840644	-0.429062	0.846980	0.063589	0.527808
52917		-0.396341	-0.576260	0.714730	0.355651	-0.814069	-0.459134	0.846420	0.072220	0.527596
52918		-0.375801	-0.613589	0.694466	0.380344	-0.785494	-0.488198	0.845051	0.080670	0.528565
52919		-0.354846	-0.649433	0.672548	0.402846	-0.755364	-0.516856	0.843682	0.087529	0.529660
52920		-0.333332	-0.683623	0.649268	0.422912	-0.723900	-0.545082	0.842636	0.092890	0.530412
52921		-0.311911	-0.716102	0.624427	0.440291	-0.691329	-0.572894	0.841935	0.096238	0.530927
52922		-0.290825	-0.746395	0.598594	0.455423	-0.658207	-0.599462	0.841434	0.098275	0.531348
52923		-0.268413	-0.775144	0.571933	0.469286	-0.623722	-0.625094	0.841264	0.100617	0.531179
52924		-0.245237	-0.802388	0.544089	0.482833	-0.587759	-0.649163	0.840673	0.103506	0.531559
52925		-0.221665	-0.827955	0.515126	0.495518	-0.550619	-0.671774	0.839837	0.106345	0.532320
52926		-0.198406	-0.851746	0.484937	0.507224	-0.512595	-0.692799	0.838665	0.108516	0.533728
52927		-0.175665	-0.873664	0.453709	0.517400	-0.474025	-0.712459	0.837520	0.109595	0.535303
52928		-0.152921	-0.893776	0.421639	0.524956	-0.434950	-0.731601	0.837279	0.109465	0.535706
52929		-0.129968	-0.911917	0.389250	0.529119	-0.395797	-0.750585	0.838535	0.108408	0.533954
52930		-0.107220	-0.928198	0.356304	0.530381	-0.356517	-0.769150	0.840951	0.106508	0.530525
52931		-0.085765	-0.942906	0.321827	0.529797	-0.316723	-0.786767	0.843777	0.103025	0.526713
52932		-0.066163	-0.956183	0.285197	0.529766	-0.275874	-0.802023	0.845559	0.098023	0.524806
52933		-0.047979	-0.967895	0.246733	0.532002	-0.233828	-0.813817	0.845383	0.092217	0.526141
52934		-0.030507	-0.977760	0.207494	0.536351	-0.191186	-0.822056	0.843444	0.086212	0.530255
52935		-0.013250	-0.985538	0.168935	0.542028	-0.149053	-0.827036	0.840256	0.080610	0.536164
52936		0.004145	-0.991198	0.132322	0.547038	-0.108521	-0.830044	0.837098	0.075826	0.541773
52937		0.021681	-0.994948	0.098023	0.548718	-0.070117	-0.833062	0.835727	0.071848	0.544425
52938		0.038592	-0.997113	0.065390	0.545490	-0.033806	-0.837435	0.837229	0.067987	0.542610
52939		0.054294	-0.997959	0.033612	0.537678	0.000855	-0.843150	0.841400	0.063850	0.536628
52940		0.067764	-0.997701	0.001178	0.525463	0.034686	-0.850109	0.848113	0.058226	0.526605
52941		0.079436	-0.996324	-0.032053	0.512220	0.068382	-0.856128	0.855173	0.051590	0.515769
52942		0.089439	-0.993798	-0.066083	0.500839	0.102226	-0.859483	0.860907	0.043774	0.506875
52943		0.097183	-0.990130	-0.100990	0.492994	0.136038	-0.859331	0.864588	0.033725	0.501349
52944		0.103466	-0.985366	-0.135455	0.489912	0.169008	-0.855232	0.865610	0.022127	0.500229
52945		0.109383	-0.979773	-0.167573	0.489229	0.199817	-0.848957	0.865269	0.010880	0.501190
52946		0.115847	-0.973496	-0.197190	0.486515	0.228695	-0.843209	0.865957	0.001747	0.500115
52947		0.123013	-0.966496	-0.225284	0.478764	0.256640	-0.839596	0.869283	-0.004577	0.494294
52948		0.130414	-0.958483	-0.253579	0.464524	0.285024	-0.838438	0.875905	-0.008449	0.482410
52949		0.137388	-0.949382	-0.282486	0.447601	0.313917	-0.837323	0.883616	-0.011403	0.468073
52950		0.143052	-0.939462	-0.311364	0.433091	0.342300	-0.833825	0.889926	-0.015568	0.455839
52951		0.147040	-0.928980	-0.339670	0.422352	0.369491	-0.827705	0.894426	-0.021754	0.446686
52952		0.149320	-0.918199	-0.366899	0.416096	0.394955	-0.819069	0.896977	-0.030362	0.441034
52953		0.150383	-0.907593	-0.391996	0.413755	0.417888	-0.808812	0.897882	-0.040559	0.438364
52954		0.150952	-0.897417	-0.414557	0.412606	0.438284	-0.798539	0.898315	-0.050508	0.436439
52955		0.152087	-0.887742	-0.434492	0.410392	0.456639	-0.789341	0.899137	-0.058264	0.433771
52956		0.153791	-0.878357	-0.452589	0.405258	0.473811	-0.781837	0.901174	-0.063176	0.428829
52957		0.155706	-0.869105	-0.469481	0.397191	0.490249	-0.775819	0.904431	-0.065674	0.421535
52958		0.157250	-0.860004	-0.485453	0.386975	0.505917	-0.770907	0.908583	-0.066633	0.412356
52959		0.157987	-0.851356	-0.500233	0.376102	0.520291	-0.766710	0.913010	-0.067009	0.402396
52960		0.157934	-0.843612	-0.513201	0.366085	0.532710	-0.763022	0.917082	-0.067368	0.392967
52961		0.157804	-0.836973	-0.523997	0.357607	0.543065	-0.759735	0.920443	-0.067496	0.385006
52962		0.157755	-0.831334	-0.532913	0.351373	0.551608	-0.756483	0.922849	-0.067912	0.379127
52963		0.157620	-0.826628	-0.540223	0.348727	0.558409	-0.752708	0.923875	-0.069748	0.376284
52964		0.157070	-0.822803	-0.546191	0.349612	0.563567	-0.748441	0.923634	-0.073397	0.376181
52965		0.156034	-0.819888	-0.550852	0.352323	0.567197	-0.744417	0.922779	-0.077924	0.377367
52966		0.154397	-0.817986	-0.554130	0.355266	0.569306	-0.741402	0.921926	-0.082394	0.378502
52967		0.152285	-0.817146	-0.555951	0.357352	0.569980	-0.739880	0.921471	-0.085997	0.378808
52968		0.149736	-0.817218	-0.556537	0.358746	0.569430	-0.739629	0.921347	-0.088906	0.378438
52969		0.146919	-0.818059	-0.556052	0.360613	0.567760	-0.740004	0.921072	-0.091799	0.378417
52970		0.143838	-0.819385	-0.554904	0.363476	0.565286	-0.740498	0.920432	-0.095183	0.379136
52971		0.140825	-0.821131	-0.553094	0.367706	0.562080	-0.740849	0.919217	-0.099046	0.381090
52972		0.137751	-0.823157	-0.550851	0.372843	0.558340	-0.741111	0.917613	-0.103292	0.383820
52973		0.134610	-0.825396	-0.548271	0.378524	0.554178	-0.741355	0.915751	-0.107740	0.387030
52974		0.131232	-0.827900	-0.545307	0.384527	0.549509	-0.741740	0.913738	-0.112345	0.390463
52975		0.127595	-0.830629	-0.542010	0.390395	0.544423	-0.742425	0.911763	-0.116868	0.393739
52976		0.123610	-0.833609	-0.538346	0.395803	0.538902	-0.743589	0.909978	-0.121164	0.396559
52977		0.119212	-0.836811	-0.534355	0.400884	0.532941	-0.745161	0.908339	-0.125382	0.398997
52978		0.114500	-0.840194	-0.530061	0.405665	0.526600	-0.747080	0.906822	-0.129486	0.401133
52979		0.109383	-0.843674	-0.525595	0.410376	0.519930	-0.749176	0.905333	-0.133744	0.403094
52980		0.103912	-0.847163	-0.521073	0.415170	0.513027	-0.751290	0.903790	-0.138266	0.405027
52981		0.097984	-0.850594	-0.516613	0.419876	0.505980	-0.753451	0.902277	-0.143087	0.406722
52982		0.091702	-0.853990	-0.512144	0.424650	0.498738	-0.755601	0.900702	-0.148192	0.408382
52983		0.085013	-0.857318	-0.507719	0.429334	0.491351	-0.757791	0.899136	-0.153559	0.409847
52984		0.077958	-0.860533	-0.503395	0.433519	0.483954	-0.760164	0.897766	-0.158970	0.410785
52985		0.070381	-0.863537	-0.499350	0.437529	0.476593	-0.762514	0.896446	-0.164814	0.411366
52986		0.062156	-0.866267	-0.495700	0.441567	0.469276	-0.764721	0.895073	-0.171353	0.411683
52987		0.053410	-0.868697	-0.492456	0.445849	0.462020	-0.766652	0.893513	-0.178614	0.411984
52988		0.044288	-0.870861	-0.489530	0.450485	0.454773	-0.768274	0.891685	-0.186501	0.412451
52989		0.034978	-0.872862	-0.486712	0.455821	0.447338	-0.769491	0.889384	-0.194939	0.413516
52990		0.024999	-0.874712	-0.483998	0.461318	0.439611	-0.770667	0.886883	-0.204011	0.414510
52991		0.014286	-0.876344	-0.481473	0.466786	0.431677	-0.771859	0.884255	-0.213718	0.415232
52992		0.002659	-0.877822	-0.478979	0.471900	0.423395	-0.773335	0.881648	-0.223974	0.415371
52993		-0.009090	-0.879408	-0.475982	0.476665	0.414630	-0.775159	0.879038	-0.233930	0.415414
52994		-0.021282	-0.881031	-0.472579	0.480255	0.405570	-0.777733	0.876871	-0.243510	0.414488
52995		-0.033768	-0.882574	-0.468960	0.482898	0.396412	-0.780812	0.875026	-0.252826	0.412807
52996		-0.047034	-0.883862	-0.465376	0.484549	0.387219	-0.784394	0.873499	-0.262391	0.410062
52997		-0.061556	-0.884585	-0.462299	0.485958	0.378009	-0.788007	0.871812	-0.273165	0.406602
52998		-0.077923	-0.884487	-0.460012	0.487336	0.368738	-0.791540	0.869731	-0.285860	0.402309
52999		-0.095696	-0.883543	-0.458469	0.489306	0.359341	-0.794640	0.866846	-0.300376	0.397935
53000		-0.114491	-0.882010	-0.457111	0.491567	0.349557	-0.797604	0.863281	-0.316019	0.393546
53001		-0.133815	-0.880152	-0.455441	0.493695	0.339280	-0.800721	0.859278	-0.331997	0.389126
53002		-0.153699	-0.878031	-0.453253	0.495020	0.328570	-0.804361	0.855179	-0.347999	0.384142
53003		-0.173930	-0.875689	-0.450464	0.495568	0.317459	-0.808475	0.850976	-0.363854	0.378748
53004		-0.194559	-0.873025	-0.447184	0.495150	0.306134	-0.813086	0.846743	-0.379617	0.372717
53005		-0.215484	-0.870050	-0.443373	0.494057	0.294502	-0.818032	0.842303	-0.395324	0.366394
53006		-0.236595	-0.866742	-0.439068	0.492276	0.282666	-0.823264	0.837667	-0.410923	0.359799
53007		-0.258402	-0.862678	-0.434758	0.490066	0.270773	-0.828563	0.832505	-0.427162	0.352801
53008		-0.281342	-0.857541	-0.430662	0.487165	0.259018	-0.834015	0.826751	-0.444447	0.344891
53009		-0.305561	-0.851121	-0.426879	0.483531	0.247511	-0.839605	0.820262	-0.462960	0.335914
53010		-0.330709	-0.843412	-0.423424	0.479396	0.236336	-0.845178	0.812903	-0.482496	0.326170
53011		-0.355818	-0.835151	-0.419424	0.474620	0.225126	-0.850913	0.805064	-0.501838	0.316276
53012		-0.380534	-0.826786	-0.414270	0.468949	0.213579	-0.857013	0.797045	-0.520393	0.306446
53013		-0.404375	-0.818574	-0.407943	0.462055	0.202088	-0.863520	0.789295	-0.537678	0.296507
53014		-0.427172	-0.810580	-0.400604	0.453304	0.191364	-0.870572	0.782329	-0.553480	0.285694
53015		-0.449161	-0.802591	-0.392558	0.443054	0.181462	-0.877938	0.775859	-0.568260	0.274085
53016		-0.470612	-0.794375	-0.384048	0.431442	0.172502	-0.885495	0.769664	-0.582419	0.261546
53017		-0.491986	-0.785471	-0.375480	0.418333	0.164947	-0.893191	0.763510	-0.596513	0.247437
53018		-0.513933	-0.775337	-0.367050	0.404338	0.158422	-0.900785	0.756560	-0.611355	0.232079
53019		-0.536559	-0.763771	-0.358828	0.390325	0.152372	-0.907981	0.748165	-0.627245	0.216362
53020		-0.560015	-0.750612	-0.350664	0.375819	0.147048	-0.914952	0.738338	-0.644173	0.199745
53021		-0.583420	-0.736416	-0.342509	0.361443	0.142233	-0.921482	0.727310	-0.661409	0.183191
53022		-0.606060	-0.721804	-0.334201	0.347118	0.138033	-0.927608	0.715682	-0.678193	0.166895
53023		-0.627694	-0.707000	-0.325808	0.333006	0.134438	-0.933292	0.703638	-0.694318	0.151049
53024		-0.648490	-0.691970	-0.317236	0.318477	0.131889	-0.938711	0.691399	-0.709777	0.134848
53025		-0.668500	-0.676692	-0.308540	0.304162	0.129819	-0.943733	0.678671	-0.724731	0.119040
53026		-0.688093	-0.660854	-0.299665	0.290251	0.127826	-0.948375	0.665043	-0.739549	0.103858
53027		-0.707176	-0.644547	-0.290624	0.276952	0.125675	-0.952630	0.650538	-0.754165	0.089635
53028		-0.725674	-0.627916	-0.281281	0.263806	0.123648	-0.956618	0.635456	-0.768396	0.075920
53029		-0.743792	-0.610748	-0.271590	0.250667	0.121795	-0.960381	0.619629	-0.782402	0.062504
53030		-0.761418	-0.593256	-0.261324	0.236856	0.120650	-0.964024	0.603442	-0.795921	0.048651
53031		-0.778354	-0.575754	-0.250343	0.222685	0.119641	-0.967521	0.587006	-0.808822	0.035089
53032		-0.794778	-0.558096	-0.238444	0.207557	0.119245	-0.970928	0.570305	-0.821163	0.021064
53033		-0.810844	-0.539987	-0.225712	0.191366	0.119845	-0.974175	0.553092	-0.833097	0.006159
53034		-0.826490	-0.521590	-0.211797	0.174050	0.121037	-0.977270	0.535370	-0.844567	-0.009253
53035		-0.841465	-0.503240	-0.196688	0.155628	0.122858	-0.980146	0.517413	-0.855369	-0.025063
53036		-0.855886	-0.484718	-0.180298	0.136112	0.125210	-0.982749	0.498931	-0.865662	-0.041189
53037		-0.869626	-0.466060	-0.162908	0.116538	0.126867	-0.985050	0.479760	-0.875610	-0.056014
53038		-0.882581	-0.447368	-0.144609	0.097278	0.127161	-0.987100	0.459986	-0.885264	-0.068711
53039		-0.894793	-0.428479	-0.125501	0.078449	0.125836	-0.988944	0.439535	-0.894746	-0.078984
53040		-0.906329	-0.409238	-0.105316	0.059726	0.122665	-0.990649	0.418330	-0.904145	-0.086732
53041		-0.917056	-0.389781	-0.084143	0.041007	0.117711	-0.992201	0.396645	-0.913354	-0.091964
53042		-0.926800	-0.370396	-0.062041	0.022208	0.110857	-0.993588	0.374899	-0.922235	-0.094517
53043		-0.935598	-0.350901	-0.039042	0.003021	0.102619	-0.994716	0.353053	-0.930773	-0.094950
53044		-0.943412	-0.331294	-0.014798	-0.017271	0.093646	-0.995456	0.331174	-0.938869	-0.094068
53045		-0.950175	-0.311539	0.010545	-0.038636	0.084137	-0.995705	0.309313	-0.946501	-0.091982
53046		-0.955838	-0.291511	0.037338	-0.061659	0.074692	-0.995299	0.287352	-0.953647	-0.089368
53047		-0.960310	-0.271181	0.065307	-0.085996	0.065114	-0.994165	0.265347	-0.960323	-0.085850
53048		-0.963402	-0.250846	0.094513	-0.111842	0.055719	-0.992163	0.243614	-0.966422	-0.081735
53049		-0.964908	-0.230949	0.124961	-0.139087	0.045866	-0.989217	0.222727	-0.971884	-0.076379
53050		-0.964708	-0.211797	0.156463	-0.167619	0.035673	-0.985206	0.203082	-0.976662	-0.069915
53051		-0.962878	-0.193174	0.188548	-0.196946	0.025057	-0.980094	0.184604	-0.980844	-0.062172
53052		-0.959494	-0.174397	0.221262	-0.227172	0.014428	-0.973748	0.166626	-0.984570	-0.053462
53053		-0.954575	-0.155233	0.254341	-0.257908	0.002943	-0.966165	0.149232	-0.987874	-0.042845
53054		-0.947926	-0.135931	0.288025	-0.289531	-0.008995	-0.957126	0.132694	-0.990677	-0.030829
53055		-0.939607	-0.116640	0.321765	-0.321624	-0.020550	-0.946644	0.117029	-0.992962	-0.018205
53056		-0.929597	-0.097557	0.355433	-0.354077	-0.031473	-0.934687	0.102372	-0.994732	-0.005286
53057		-0.917969	-0.078706	0.388766	-0.386683	-0.040803	-0.921310	0.088375	-0.996062	0.007021
53058		-0.904743	-0.060417	0.421651	-0.419243	-0.048766	-0.906563	0.075334	-0.996981	0.018791
53059		-0.890013	-0.042172	0.453980	-0.451544	-0.056322	-0.890469	0.063122	-0.997522	0.031084
53060		-0.873699	-0.023336	0.485907	-0.483740	-0.063929	-0.872874	0.051433	-0.997682	0.044567
53061		-0.855924	-0.004071	0.517085	-0.515512	-0.071620	-0.853884	0.040510	-0.997424	0.059203
53062		-0.836662	0.015373	0.547503	-0.546849	-0.079774	-0.833422	0.030865	-0.996694	0.075151
53063		-0.816025	0.034799	0.576969	-0.577594	-0.087268	-0.811646	0.022106	-0.995577	0.091313
53064		-0.794176	0.054280	0.605259	-0.607526	-0.093937	-0.788726	0.014044	-0.994097	0.107579
53065		-0.771374	0.073806	0.632087	-0.636346	-0.099972	-0.764898	0.006737	-0.992249	0.124083
53066		-0.747870	0.093143	0.657279	-0.663845	-0.105578	-0.740380	0.000433	-0.990039	0.140791
53067		-0.723970	0.112199	0.680646	-0.689814	-0.110848	-0.715450	-0.004824	-0.987484	0.157647
53068		-0.699947	0.130833	0.702109	-0.714142	-0.116173	-0.690294	-0.008747	-0.984574	0.174749
53069		-0.675965	0.149090	0.721695	-0.736842	-0.121276	-0.665099	-0.011635	-0.981358	0.191834
53070		-0.652204	0.166893	0.739443	-0.757916	-0.125675	-0.640132	-0.013904	-0.977933	0.208457
53071		-0.628986	0.184091	0.755306	-0.777253	-0.129002	-0.615821	-0.015932	-0.974407	0.224226
53072		-0.606635	0.200257	0.769345	-0.794785	-0.131302	-0.592518	-0.017639	-0.970905	0.238814
53073		-0.585546	0.215369	0.781507	-0.810407	-0.132419	-0.570707	-0.019426	-0.967513	0.252074
53074		-0.566097	0.229153	0.791848	-0.824065	-0.132554	-0.550769	-0.021248	-0.964323	0.263875
53075		-0.548842	0.241517	0.800276	-0.835623	-0.132753	-0.533020	-0.022494	-0.961273	0.274678
53076		-0.534265	0.252439	0.806743	-0.845007	-0.133668	-0.517779	-0.022872	-0.958336	0.284727
53077		-0.522700	0.262291	0.811165	-0.852207	-0.135125	-0.505454	-0.022968	-0.955481	0.294156
53078		-0.514378	0.270922	0.813644	-0.857257	-0.137087	-0.496303	-0.022919	-0.952790	0.302764
53079		-0.509145	0.278322	0.814437	-0.860385	-0.139771	-0.490104	-0.022572	-0.950264	0.310628
53080		-0.507179	0.284358	0.813578	-0.861575	-0.143862	-0.486818	-0.021387	-0.947863	0.317960
53081		-0.508235	0.288767	0.811363	-0.861009	-0.149595	-0.486092	-0.018992	-0.945640	0.324661
53082		-0.511876	0.291500	0.808091	-0.858921	-0.156767	-0.487523	-0.015431	-0.943638	0.330621
53083		-0.518850	0.292276	0.803349	-0.854798	-0.165589	-0.491834	-0.010726	-0.941889	0.335753
53084		-0.528837	0.291249	0.797186	-0.848694	-0.173734	-0.499534	-0.006990	-0.940739	0.339058
53085		-0.540961	0.288935	0.789859	-0.841036	-0.180959	-0.509816	-0.004371	-0.940091	0.340896
53086		-0.555436	0.285094	0.781161	-0.831552	-0.186558	-0.523180	-0.003424	-0.940169	0.340691
53087		-0.572137	0.279226	0.771163	-0.820151	-0.190837	-0.539383	-0.003443	-0.941071	0.338192
53088		-0.591105	0.271549	0.759510	-0.806586	-0.194753	-0.558113	-0.003638	-0.942514	0.334148
53089		-0.612531	0.261535	0.745925	-0.790438	-0.198407	-0.579519	-0.003568	-0.944581	0.328258
53090		-0.635983	0.249239	0.730346	-0.771696	-0.201381	-0.603267	-0.003280	-0.947273	0.320411
53091		-0.661210	0.234728	0.712534	-0.750196	-0.203615	-0.629084	-0.002581	-0.950496	0.310725
53092		-0.687698	0.218434	0.692356	-0.725995	-0.204986	-0.656439	-0.001465	-0.954079	0.299551
53093		-0.715067	0.200455	0.669699	-0.699055	-0.205006	-0.685050	-0.000029	-0.958014	0.286722
53094		-0.742820	0.181403	0.644446	-0.669489	-0.203250	-0.714474	0.001376	-0.962176	0.272426
53095		-0.770446	0.162211	0.616523	-0.637504	-0.198203	-0.744516	0.001428	-0.966645	0.256115
53096		-0.797282	0.143692	0.586253	-0.603606	-0.189319	-0.774479	-0.000297	-0.971345	0.237675
53097		-0.823110	0.125421	0.553858	-0.567876	-0.177383	-0.803774	-0.002565	-0.976117	0.217230
53098		-0.847671	0.106766	0.519668	-0.530506	-0.163024	-0.831857	-0.004095	-0.980828	0.194831
53099		-0.870845	0.087774	0.483657	-0.491540	-0.147164	-0.858331	-0.004162	-0.985210	0.171301
53100		-0.892863	0.067544	0.445235	-0.450326	-0.130491	-0.883277	-0.001561	-0.989146	0.146927
53101		-0.911820	0.049122	0.407640	-0.410589	-0.110599	-0.905088	0.000625	-0.992650	0.121015
53102		-0.928160	0.031914	0.370811	-0.372157	-0.091081	-0.923690	0.004296	-0.995332	0.096415
53103		-0.942474	0.016920	0.333852	-0.334187	-0.071231	-0.939811	0.007879	-0.997316	0.072788
53104		-0.954592	0.004570	0.297883	-0.297706	-0.052300	-0.953224	0.011224	-0.998621	0.051286
53105		-0.964656	-0.004773	0.263471	-0.263183	-0.032657	-0.964193	0.013207	-0.999455	0.030246
53106		-0.972902	-0.011172	0.230949	-0.230756	-0.016223	-0.972876	0.014616	-0.999806	0.013205
53107		-0.979460	-0.014816	0.201096	-0.201064	-0.003576	-0.979571	0.015232	-0.999884	0.000523
53108		-0.984460	-0.016511	0.174832	-0.174971	0.007347	-0.984546	0.014971	-0.999837	-0.010122
53109		-0.988167	-0.016465	0.152495	-0.152755	0.015905	-0.988136	0.013844	-0.999738	-0.018232
53110		-0.990831	-0.014936	0.134280	-0.134602	0.023211	-0.990628	0.011679	-0.999619	-0.025009
53111		-0.992647	-0.011670	0.120478	-0.120779	0.030026	-0.992225	0.007962	-0.999481	-0.031215
53112		-0.993813	-0.006567	0.110874	-0.111042	0.037321	-0.993115	0.002384	-0.999282	-0.037819
53113		-0.994414	0.000152	0.105551	-0.105434	0.045746	-0.993374	-0.004979	-0.998953	-0.045475
53114		-0.994507	0.008069	0.104359	-0.103760	0.055266	-0.993066	-0.013781	-0.998439	-0.054125
53115		-0.994087	0.016791	0.107277	-0.105983	0.064864	-0.992250	-0.023619	-0.997753	-0.062701
53116		-0.993150	0.026019	0.113912	-0.111752	0.073197	-0.991037	-0.034124	-0.996978	-0.069788
53117		-0.991675	0.035407	0.123804	-0.120700	0.079380	-0.989510	-0.044863	-0.996215	-0.074445
53118		-0.989612	0.045123	0.136496	-0.132414	0.083633	-0.987660	-0.055982	-0.995474	-0.076789
53119		-0.986839	0.055041	0.152053	-0.147077	0.085350	-0.985436	-0.067217	-0.994830	-0.076132
53120		-0.983209	0.065306	0.170398	-0.164660	0.085012	-0.982680	-0.078661	-0.994237	-0.072831
53121		-0.978579	0.075721	0.191442	-0.185100	0.083447	-0.979170	-0.090119	-0.993631	-0.067644
53122		-0.972783	0.085641	0.215312	-0.208613	0.080794	-0.974655	-0.100866	-0.993045	-0.060730
53123		-0.965700	0.094666	0.241789	-0.234930	0.078075	-0.968872	-0.110597	-0.992443	-0.053158
53124		-0.957187	0.102664	0.270652	-0.263812	0.075460	-0.961618	-0.119147	-0.991850	-0.045145
53125		-0.947113	0.109932	0.301482	-0.294831	0.072818	-0.952771	-0.126693	-0.991268	-0.036556
53126		-0.935308	0.117157	0.333877	-0.327561	0.070135	-0.942223	-0.133804	-0.990634	-0.027222
53127		-0.921736	0.124530	0.367281	-0.361446	0.067425	-0.929952	-0.140571	-0.989922	-0.017137
53128		-0.906239	0.132291	0.401535	-0.396356	0.064576	-0.915823	-0.147085	-0.989105	-0.006087
53129		-0.888865	0.140426	0.436118	-0.431786	0.061602	-0.899870	-0.153231	-0.988173	0.005878
53130		-0.869697	0.148627	0.470677	-0.467487	0.057937	-0.882099	-0.158374	-0.987195	0.019093
53131		-0.848940	0.156757	0.504706	-0.503067	0.052939	-0.862624	-0.161941	-0.986217	0.033917
53132		-0.826778	0.165260	0.537706	-0.538008	0.046841	-0.841638	-0.164275	-0.985137	0.050184
53133		-0.803474	0.174188	0.569288	-0.572028	0.039093	-0.819302	-0.164968	-0.983936	0.068230
53134		-0.779219	0.183261	0.599361	-0.604992	0.029864	-0.795671	-0.163715	-0.982611	0.087601
53135		-0.754174	0.192250	0.627902	-0.636723	0.019825	-0.770838	-0.160642	-0.981146	0.107459
53136		-0.728468	0.201096	0.654900	-0.667073	0.009517	-0.744931	-0.156035	-0.979525	0.127213
53137		-0.702325	0.209877	0.680215	-0.695771	-0.000397	-0.718264	-0.150477	-0.977728	0.146305
53138		-0.676101	0.218610	0.703632	-0.722554	-0.009779	-0.691245	-0.144232	-0.975763	0.164569
53139		-0.650117	0.227534	0.724966	-0.747297	-0.018863	-0.664222	-0.137458	-0.973587	0.182299
53140		-0.624888	0.236157	0.744140	-0.769896	-0.028279	-0.637542	-0.129516	-0.971303	0.199488
53141		-0.600868	0.244246	0.761118	-0.790290	-0.038581	-0.611517	-0.119996	-0.968945	0.216208
53142		-0.578408	0.252069	0.775825	-0.808383	-0.049607	-0.586564	-0.109368	-0.966437	0.232461
53143		-0.557730	0.259577	0.788389	-0.824248	-0.061358	-0.562895	-0.097741	-0.963771	0.248177
53144		-0.539135	0.266367	0.798988	-0.837893	-0.073600	-0.540850	-0.085259	-0.961058	0.262868
53145		-0.522785	0.272307	0.807803	-0.849370	-0.085711	-0.520793	-0.072578	-0.958385	0.276098
53146		-0.509093	0.277490	0.814754	-0.858590	-0.097314	-0.503341	-0.060385	-0.955787	0.287792
53147		-0.498326	0.281907	0.819878	-0.865624	-0.108719	-0.488749	-0.048645	-0.953262	0.298203
53148		-0.490951	0.285505	0.823076	-0.870374	-0.119944	-0.477559	-0.037622	-0.950842	0.307383
53149		-0.487336	0.287867	0.824401	-0.872785	-0.130961	-0.470208	-0.027393	-0.948674	0.315068
53150		-0.487211	0.289342	0.823958	-0.873079	-0.140948	-0.466762	-0.018919	-0.946792	0.321290
53151		-0.490155	0.289685	0.822089	-0.871548	-0.149522	-0.466956	-0.012350	-0.945371	0.325763
53152		-0.495726	0.288320	0.819224	-0.868460	-0.158350	-0.469789	-0.005725	-0.944350	0.328893
53153		-0.505166	0.284878	0.814649	-0.863021	-0.168390	-0.476277	0.001498	-0.943657	0.330920
53154		-0.517804	0.279740	0.808470	-0.855460	-0.178293	-0.486209	0.008133	-0.943375	0.331628
53155		-0.533036	0.273185	0.800776	-0.845990	-0.186781	-0.499413	0.013138	-0.943654	0.330673
