// Start Time: Unknown
// Update Rate: 100.0Hz
// Filter Profile: human (46.1)
// Option Flags: AHS Disabled ICC Disabled 
// Firmware Version: 4.0.2
PacketCounter	SampleTimeFine	Mat[1][1]	Mat[2][1]	Mat[3][1]	Mat[1][2]	Mat[2][2]	Mat[3][2]	Mat[1][3]	Mat[2][3]	Mat[3][3]
48935		-0.023517	0.047201	-0.998609	-0.545012	0.836790	0.052388	0.838099	0.545485	0.006046
48936		-0.023348	0.047321	-0.998607	-0.544825	0.836911	0.052397	0.838225	0.545289	0.006241
48937		-0.023266	0.047402	-0.998605	-0.544617	0.837045	0.052422	0.838362	0.545077	0.006341
48938		-0.023180	0.047554	-0.998600	-0.544371	0.837200	0.052505	0.838524	0.544826	0.006481
48939		-0.023126	0.047674	-0.998595	-0.544130	0.837352	0.052577	0.838682	0.544581	0.006576
48940		-0.022955	0.047974	-0.998585	-0.544001	0.837426	0.052737	0.838771	0.544442	0.006875
48941		-0.022889	0.048215	-0.998575	-0.543844	0.837517	0.052904	0.838874	0.544280	0.007051
48942		-0.022877	0.048378	-0.998567	-0.543811	0.837530	0.053034	0.838896	0.544245	0.007148
48943		-0.022841	0.048554	-0.998559	-0.543781	0.837542	0.053163	0.838916	0.544212	0.007272
48944		-0.022794	0.048765	-0.998550	-0.543657	0.837612	0.053316	0.838998	0.544084	0.007419
48945		-0.022822	0.048929	-0.998541	-0.543508	0.837699	0.053470	0.839094	0.543935	0.007475
48946		-0.022813	0.049129	-0.998532	-0.543297	0.837826	0.053634	0.839231	0.543723	0.007578
48947		-0.022863	0.049263	-0.998524	-0.543177	0.837895	0.053775	0.839307	0.543604	0.007602
48948		-0.022831	0.049418	-0.998517	-0.543024	0.837986	0.053889	0.839407	0.543449	0.007703
48949		-0.022902	0.049523	-0.998510	-0.542933	0.838037	0.054016	0.839464	0.543361	0.007695
48950		-0.022815	0.049617	-0.998508	-0.542818	0.838109	0.054050	0.839540	0.543241	0.007812
48951		-0.022757	0.049707	-0.998505	-0.542821	0.838105	0.054094	0.839540	0.543240	0.007909
48952		-0.022677	0.049803	-0.998502	-0.542873	0.838068	0.054130	0.839508	0.543287	0.008032
48953		-0.022570	0.049897	-0.998499	-0.542922	0.838036	0.054150	0.839480	0.543329	0.008176
48954		-0.022375	0.049983	-0.998499	-0.543045	0.837958	0.054115	0.839405	0.543441	0.008394
48955		-0.022230	0.050019	-0.998501	-0.543226	0.837844	0.054065	0.839292	0.543614	0.008547
48956		-0.022028	0.050104	-0.998501	-0.543476	0.837684	0.054024	0.839135	0.543852	0.008778
48957		-0.021862	0.050142	-0.998503	-0.543964	0.837372	0.053961	0.838824	0.544329	0.008969
48958		-0.021564	0.050247	-0.998504	-0.544505	0.837025	0.053881	0.838481	0.544852	0.009310
48959		-0.021269	0.050249	-0.998510	-0.545003	0.836711	0.053716	0.838164	0.545334	0.009590
48960		-0.020965	0.050164	-0.998521	-0.545509	0.836397	0.053473	0.837842	0.545824	0.009829
48961		-0.020609	0.050104	-0.998531	-0.545987	0.836101	0.053222	0.837540	0.546282	0.010124
48962		-0.020291	0.050030	-0.998542	-0.546498	0.835783	0.052980	0.837215	0.546776	0.010383
48963		-0.019916	0.049984	-0.998551	-0.546977	0.835485	0.052731	0.836911	0.547235	0.010700
48964		-0.019410	0.049976	-0.998562	-0.547380	0.835239	0.052442	0.836659	0.547611	0.011143
48965		-0.018986	0.049953	-0.998571	-0.547931	0.834895	0.052183	0.836308	0.548138	0.011519
48966		-0.018518	0.049866	-0.998584	-0.548517	0.834531	0.051846	0.835935	0.548700	0.011898
48967		-0.018062	0.049726	-0.998600	-0.549157	0.834133	0.051469	0.835524	0.549317	0.012241
48968		-0.017556	0.049660	-0.998612	-0.549817	0.833719	0.051126	0.835101	0.549951	0.012667
48969		-0.017099	0.049569	-0.998624	-0.550586	0.833232	0.050787	0.834603	0.550697	0.013044
48970		-0.016682	0.049487	-0.998635	-0.551332	0.832757	0.050477	0.834119	0.551422	0.013392
48971		-0.016191	0.049405	-0.998648	-0.552078	0.832284	0.050125	0.833635	0.552143	0.013800
48972		-0.015623	0.049385	-0.998658	-0.552848	0.831794	0.049782	0.833136	0.552884	0.014307
48973		-0.014973	0.049353	-0.998669	-0.553561	0.831343	0.049384	0.832674	0.553563	0.014872
48974		-0.014298	0.049372	-0.998678	-0.554221	0.830926	0.049013	0.832247	0.554189	0.015483
48975		-0.013641	0.049355	-0.998688	-0.554810	0.830555	0.048624	0.831865	0.554745	0.016053
48976		-0.013048	0.049369	-0.998695	-0.555400	0.830180	0.048295	0.831481	0.555305	0.016587
48977		-0.012406	0.049375	-0.998703	-0.555982	0.829811	0.047931	0.831102	0.555856	0.017157
48978		-0.011786	0.049401	-0.998709	-0.556582	0.829428	0.047596	0.830709	0.556424	0.017720
48979		-0.011117	0.049449	-0.998715	-0.557048	0.829135	0.047254	0.830406	0.556858	0.018328
48980		-0.010527	0.049520	-0.998718	-0.557585	0.828790	0.046972	0.830053	0.557365	0.018887
48981		-0.009895	0.049671	-0.998717	-0.557993	0.828529	0.046735	0.829787	0.557739	0.019518
48982		-0.009287	0.049828	-0.998715	-0.558167	0.828423	0.046522	0.829677	0.557882	0.020118
48983		-0.008809	0.050049	-0.998708	-0.558094	0.828477	0.046441	0.829731	0.557782	0.020634
48984		-0.008645	0.050160	-0.998704	-0.557242	0.829049	0.046462	0.830305	0.556921	0.020784
48985		-0.008462	0.050221	-0.998702	-0.556298	0.829684	0.046435	0.830939	0.555969	0.020917
48986		-0.008212	0.050351	-0.998698	-0.556031	0.829865	0.046411	0.831121	0.555688	0.021182
48987		-0.007968	0.050585	-0.998688	-0.555980	0.829895	0.046471	0.831157	0.555621	0.021512
48988		-0.007723	0.050975	-0.998670	-0.555990	0.829879	0.046659	0.831153	0.555611	0.021932
48989		-0.007513	0.051413	-0.998649	-0.556067	0.829813	0.046904	0.831104	0.555668	0.022355
48990		-0.007288	0.051961	-0.998622	-0.556443	0.829543	0.047225	0.830854	0.556021	0.022868
48991		-0.007070	0.052490	-0.998596	-0.556919	0.829206	0.047529	0.830537	0.556473	0.023370
48992		-0.006843	0.053102	-0.998566	-0.557342	0.828900	0.047899	0.830255	0.556870	0.023924
48993		-0.006669	0.053638	-0.998538	-0.557686	0.828649	0.048237	0.830025	0.557192	0.024387
48994		-0.006627	0.054152	-0.998511	-0.558036	0.828391	0.048630	0.829790	0.557527	0.024729
48995		-0.006553	0.054677	-0.998483	-0.558325	0.828173	0.049016	0.829596	0.557799	0.025100
48996		-0.006426	0.055201	-0.998455	-0.558571	0.827986	0.049371	0.829432	0.558025	0.025513
48997		-0.006331	0.055677	-0.998429	-0.558981	0.827690	0.049701	0.829157	0.558417	0.025882
48998		-0.006149	0.056252	-0.998398	-0.559578	0.827264	0.050056	0.828755	0.558990	0.026390
48999		-0.005828	0.056752	-0.998371	-0.560182	0.826842	0.050271	0.828349	0.559563	0.026973
49000		-0.005450	0.057263	-0.998344	-0.560754	0.826443	0.050464	0.827964	0.560101	0.027606
49001		-0.005074	0.057793	-0.998316	-0.561322	0.826045	0.050673	0.827582	0.560634	0.028249
49002		-0.004678	0.058319	-0.998287	-0.561857	0.825669	0.050868	0.827221	0.561132	0.028904
49003		-0.004318	0.058851	-0.998257	-0.562393	0.825291	0.051087	0.826859	0.561633	0.029534
49004		-0.004018	0.059361	-0.998228	-0.563186	0.824736	0.051311	0.826320	0.562394	0.030117
49005		-0.003688	0.059837	-0.998201	-0.564120	0.824086	0.051484	0.825684	0.563295	0.030716
49006		-0.003284	0.060266	-0.998177	-0.565197	0.823342	0.051570	0.824949	0.564336	0.031358
49007		-0.002916	0.060758	-0.998148	-0.566346	0.822543	0.051724	0.824163	0.565448	0.032012
49008		-0.002579	0.061269	-0.998118	-0.567422	0.821789	0.051911	0.823423	0.566488	0.032646
49009		-0.002263	0.061780	-0.998087	-0.568607	0.820957	0.052106	0.822606	0.567637	0.033271
49010		-0.001967	0.062375	-0.998051	-0.569821	0.820098	0.052376	0.821766	0.568813	0.033929
49011		-0.001669	0.062933	-0.998016	-0.571046	0.819230	0.052614	0.820916	0.570001	0.034571
49012		-0.001517	0.063392	-0.997988	-0.572233	0.818386	0.052853	0.820090	0.571162	0.035033
49013		-0.001299	0.063749	-0.997965	-0.573032	0.817818	0.052988	0.819532	0.571935	0.035468
49014		-0.001044	0.064147	-0.997940	-0.573482	0.817492	0.053148	0.819217	0.572356	0.035934
49015		-0.000840	0.064620	-0.997910	-0.573595	0.817396	0.053414	0.819139	0.572440	0.036379
49016		-0.000589	0.065173	-0.997874	-0.573456	0.817472	0.053729	0.819236	0.572269	0.036893
49017		-0.000406	0.065965	-0.997822	-0.573347	0.817513	0.054278	0.819312	0.572120	0.037489
49018		-0.000305	0.066887	-0.997760	-0.573458	0.817388	0.054971	0.819235	0.572191	0.038108
49019		-0.000107	0.067897	-0.997692	-0.573976	0.816978	0.055660	0.818872	0.572657	0.038883
49020		0.000058	0.069082	-0.997611	-0.574717	0.816399	0.056500	0.818352	0.573341	0.039750
49021		0.000231	0.070404	-0.997519	-0.575532	0.815760	0.057442	0.817779	0.574090	0.040708
49022		0.000298	0.071852	-0.997415	-0.576539	0.814970	0.058537	0.817069	0.575032	0.041669
49023		0.000277	0.073512	-0.997294	-0.577663	0.814079	0.059847	0.816275	0.576083	0.042690
49024		0.000034	0.075386	-0.997154	-0.578941	0.813051	0.061448	0.815369	0.577292	0.043672
49025		-0.000228	0.077431	-0.996998	-0.579848	0.812269	0.063216	0.814725	0.578121	0.044713
49026		-0.000464	0.079706	-0.996818	-0.580570	0.811598	0.065167	0.814210	0.578753	0.045898
49027		-0.000681	0.082287	-0.996608	-0.581209	0.810962	0.067356	0.813754	0.579284	0.047274
49028		-0.001174	0.084913	-0.996388	-0.581796	0.810339	0.069744	0.813334	0.579776	0.048451
49029		-0.001777	0.087747	-0.996141	-0.582019	0.809947	0.072384	0.813173	0.579902	0.049631
49030		-0.002612	0.090801	-0.995866	-0.582307	0.809471	0.075333	0.812965	0.580096	0.050760
49031		-0.003757	0.094248	-0.995542	-0.582583	0.808944	0.078781	0.812763	0.580282	0.051868
49032		-0.005495	0.098104	-0.995161	-0.582850	0.808339	0.082905	0.812561	0.580485	0.052738
49033		-0.007918	0.102264	-0.994726	-0.582997	0.807729	0.087681	0.812436	0.580616	0.053224
49034		-0.010998	0.106686	-0.994232	-0.582600	0.807411	0.093084	0.812685	0.580263	0.053275
49035		-0.014965	0.111322	-0.993672	-0.581931	0.807166	0.099192	0.813100	0.579733	0.052703
49036		-0.019813	0.116104	-0.993039	-0.581243	0.806806	0.105927	0.813489	0.579296	0.051500
49037		-0.025319	0.121477	-0.992271	-0.580431	0.806356	0.113528	0.813915	0.578820	0.050093
49038		-0.031723	0.127232	-0.991366	-0.579440	0.805838	0.121963	0.814397	0.578306	0.048159
49039		-0.038925	0.133947	-0.990224	-0.578328	0.805113	0.131641	0.814875	0.577798	0.046126
49040		-0.046600	0.141697	-0.988813	-0.577741	0.803703	0.142399	0.814889	0.577913	0.044411
49041		-0.055222	0.150135	-0.987122	-0.577767	0.801498	0.154225	0.814331	0.578843	0.042483
49042		-0.063990	0.159167	-0.985176	-0.577592	0.799139	0.166626	0.813814	0.579692	0.040797
49043		-0.072958	0.168988	-0.982914	-0.577862	0.796091	0.179761	0.812867	0.581104	0.039570
49044		-0.081729	0.179133	-0.980424	-0.578914	0.792217	0.193004	0.811282	0.583355	0.038955
49045		-0.090257	0.189231	-0.977776	-0.580272	0.787926	0.206053	0.809406	0.585974	0.038689
49046		-0.098701	0.198575	-0.975103	-0.581076	0.783978	0.218471	0.807842	0.588172	0.038008
49047		-0.107780	0.207369	-0.972307	-0.581442	0.780152	0.230840	0.806417	0.590220	0.036488
49048		-0.117475	0.214923	-0.969540	-0.581936	0.776213	0.242578	0.804705	0.592707	0.033886
49049		-0.128053	0.221398	-0.966740	-0.583464	0.771413	0.253950	0.801980	0.596577	0.030396
49050		-0.138136	0.226459	-0.964176	-0.585807	0.766279	0.263906	0.798592	0.601276	0.026811
49051		-0.148170	0.230345	-0.961762	-0.588279	0.761203	0.272942	0.794967	0.606227	0.022720
49052		-0.156705	0.232516	-0.959885	-0.590796	0.756764	0.279764	0.791456	0.610937	0.018781
49053		-0.164042	0.233893	-0.958324	-0.593348	0.752700	0.285275	0.788054	0.615416	0.015305
49054		-0.169350	0.233589	-0.957474	-0.595760	0.749650	0.288261	0.785105	0.619242	0.012210
49055		-0.173672	0.232325	-0.957007	-0.597603	0.747539	0.289924	0.782757	0.622262	0.009012
49056		-0.176060	0.228895	-0.957397	-0.599041	0.746854	0.288719	0.781123	0.624352	0.005627
49057		-0.177239	0.224391	-0.958246	-0.600396	0.746837	0.285936	0.779814	0.626006	0.002355
49058		-0.176194	0.217556	-0.960013	-0.601160	0.748487	0.279953	0.779463	0.626447	-0.001093
49059		-0.173819	0.209494	-0.962237	-0.601241	0.751286	0.272175	0.779934	0.625845	-0.004632
49060		-0.169388	0.199447	-0.965157	-0.600713	0.755473	0.261543	0.781314	0.624084	-0.008158
49061		-0.163037	0.188211	-0.968502	-0.599610	0.760649	0.248757	0.783509	0.621280	-0.011160
49062		-0.154764	0.175639	-0.972213	-0.597993	0.766674	0.233700	0.786418	0.617545	-0.013623
49063		-0.144811	0.162178	-0.976078	-0.595848	0.773259	0.216879	0.789934	0.613000	-0.015343
49064		-0.133282	0.147604	-0.980025	-0.593539	0.780018	0.198201	0.793692	0.608100	-0.016354
49065		-0.120142	0.132353	-0.983895	-0.591092	0.786717	0.178007	0.797606	0.602958	-0.016285
49066		-0.105513	0.116346	-0.987588	-0.588759	0.793047	0.156330	0.801392	0.597946	-0.015177
49067		-0.089553	0.099847	-0.990965	-0.586220	0.799078	0.133489	0.805187	0.592878	-0.013028
49068		-0.072308	0.082525	-0.993962	-0.583630	0.804635	0.109264	0.808794	0.588007	-0.010017
49069		-0.053989	0.064601	-0.996450	-0.580360	0.810021	0.083959	0.812569	0.582832	-0.006241
49070		-0.034909	0.045928	-0.998335	-0.577052	0.814670	0.057657	0.815961	0.578104	-0.001936
49071		-0.015128	0.027252	-0.999514	-0.573784	0.818419	0.030999	0.818867	0.573975	0.003256
49072		0.004759	0.008339	-0.999954	-0.570781	0.821092	0.004131	0.821088	0.570735	0.008667
49073		0.024302	-0.010425	-0.999650	-0.567809	0.822856	-0.022384	0.822802	0.568154	0.014078
49074		0.043194	-0.029361	-0.998635	-0.564371	0.824087	-0.048640	0.824391	0.565701	0.019025
49075		0.061372	-0.047911	-0.996964	-0.560944	0.824526	-0.074155	0.825576	0.563793	0.023727
49076		0.078921	-0.066016	-0.994693	-0.558041	0.823892	-0.098957	0.826052	0.562889	0.028183
49077		0.095740	-0.083468	-0.991901	-0.555195	0.822604	-0.122810	0.826192	0.562456	0.032415
49078		0.111776	-0.100601	-0.988628	-0.552405	0.820696	-0.145969	0.826048	0.562439	0.036161
49079		0.127279	-0.117117	-0.984928	-0.549372	0.818450	-0.168315	0.825827	0.562515	0.039831
49080		0.142403	-0.133212	-0.980804	-0.546532	0.815571	-0.190122	0.825242	0.563115	0.043336
49081		0.156925	-0.148757	-0.976343	-0.543727	0.812266	-0.211149	0.824461	0.563999	0.046582
49082		0.170950	-0.163829	-0.971564	-0.541212	0.808381	-0.231540	0.823326	0.565403	0.049527
49083		0.184169	-0.178225	-0.966601	-0.538572	0.804349	-0.250924	0.822206	0.566797	0.052149
49084		0.196381	-0.192190	-0.961508	-0.535905	0.800146	-0.269392	0.821121	0.568180	0.054138
49085		0.207559	-0.205298	-0.956437	-0.533157	0.796005	-0.286563	0.820160	0.569410	0.055762
49087		0.225907	-0.228330	-0.947012	-0.527630	0.788519	-0.315981	0.818885	0.571055	0.057658
49088		0.233008	-0.237357	-0.943064	-0.525838	0.785009	-0.327498	0.818047	0.572209	0.058102
49089		0.238744	-0.244780	-0.939726	-0.524497	0.781911	-0.336925	0.817254	0.573322	0.058290
49090		0.242963	-0.250734	-0.937071	-0.523130	0.779635	-0.344245	0.816887	0.573848	0.058256
49091		0.246061	-0.255602	-0.934945	-0.522413	0.777525	-0.350055	0.816418	0.574563	0.057789
49092		0.248350	-0.259224	-0.933341	-0.523019	0.775123	-0.354449	0.815336	0.576183	0.056923
49093		0.249856	-0.261805	-0.932218	-0.524964	0.772352	-0.357611	0.813625	0.578731	0.055538
49094		0.250409	-0.263463	-0.931602	-0.527048	0.770075	-0.359450	0.812105	0.581009	0.053976
49095		0.249762	-0.264445	-0.931498	-0.529459	0.768146	-0.360035	0.810736	0.583113	0.051841
49096		0.248024	-0.264468	-0.931955	-0.531847	0.766900	-0.359171	0.809705	0.584741	0.049553
49097		0.245404	-0.263435	-0.932941	-0.534570	0.766054	-0.356927	0.808710	0.586314	0.047168
49098		0.241721	-0.261432	-0.934465	-0.537009	0.766062	-0.353228	0.808203	0.587198	0.044782
49099		0.237055	-0.258516	-0.936469	-0.538721	0.767182	-0.348154	0.808446	0.587027	0.042597
49100		0.231298	-0.254538	-0.938995	-0.539693	0.769475	-0.341525	0.809464	0.585764	0.040606
49101		0.224631	-0.249688	-0.941911	-0.539746	0.772904	-0.333607	0.811305	0.583331	0.038850
49102		0.216921	-0.244355	-0.945111	-0.538940	0.777265	-0.324657	0.813934	0.579784	0.036912
49103		0.208491	-0.238349	-0.948536	-0.536790	0.782829	-0.314698	0.817550	0.574777	0.035270
49104		0.199356	-0.231885	-0.952096	-0.534256	0.788778	-0.303975	0.821479	0.569262	0.033362
49105		0.190303	-0.225415	-0.955496	-0.531801	0.794443	-0.293338	0.825210	0.563957	0.031309
49106		0.181464	-0.219652	-0.958553	-0.528713	0.800081	-0.283429	0.829176	0.558232	0.029052
49107		0.172662	-0.215507	-0.961116	-0.527611	0.803741	-0.275003	0.831754	0.554578	0.025072
49108		0.164840	-0.212791	-0.963093	-0.526597	0.806648	-0.268355	0.833980	0.551398	0.020913
49109		0.158552	-0.210568	-0.964636	-0.523514	0.810425	-0.262953	0.837135	0.546692	0.018259
49110		0.153113	-0.208099	-0.966049	-0.515891	0.816959	-0.257749	0.842860	0.537841	0.017731
49111		0.147225	-0.205236	-0.967576	-0.505291	0.825349	-0.251952	0.850297	0.526001	0.017808
49112		0.139802	-0.201964	-0.969364	-0.494291	0.834041	-0.245056	0.857981	0.513407	0.016771
49113		0.131577	-0.197891	-0.971353	-0.480745	0.844195	-0.237106	0.866932	0.498171	0.015941
49114		0.123315	-0.192798	-0.973459	-0.465288	0.855206	-0.228319	0.876528	0.481094	0.015753
49115		0.115117	-0.186901	-0.975611	-0.450087	0.865724	-0.218958	0.885533	0.464316	0.015537
49116		0.106292	-0.180532	-0.977809	-0.436322	0.875178	-0.209013	0.893490	0.448856	0.014254
49117		0.096696	-0.174104	-0.979968	-0.425150	0.883014	-0.198830	0.899943	0.435860	0.011364
49118		0.087002	-0.167720	-0.981988	-0.417569	0.888814	-0.188802	0.904470	0.426474	0.007294
49119		0.077754	-0.161458	-0.983812	-0.413646	0.892631	-0.179186	0.907112	0.420882	0.002620
49120		0.068571	-0.155550	-0.985445	-0.412482	0.894969	-0.169970	0.908381	0.418133	-0.002793
49121		0.059605	-0.150098	-0.986873	-0.413437	0.896138	-0.161268	0.908580	0.417622	-0.008642
49123		0.042002	-0.140560	-0.989181	-0.418398	0.896587	-0.145168	0.907292	0.419969	-0.021151
49124		0.033744	-0.135985	-0.990136	-0.422680	0.895798	-0.137433	0.905651	0.423148	-0.027251
49125		0.025497	-0.131238	-0.991023	-0.428395	0.894271	-0.129447	0.903232	0.427850	-0.033421
49126		0.016720	-0.126014	-0.991888	-0.433125	0.893205	-0.120778	0.901179	0.431630	-0.039646
49127		0.007028	-0.120502	-0.992688	-0.436125	0.892954	-0.111483	0.899859	0.433719	-0.046278
49128		-0.002529	-0.114164	-0.993459	-0.438299	0.893078	-0.101513	0.898826	0.435175	-0.052296
49129		-0.011535	-0.107274	-0.994163	-0.439584	0.893548	-0.091317	0.898128	0.435964	-0.057463
49130		-0.018991	-0.100018	-0.994804	-0.439296	0.894632	-0.081560	0.898142	0.435465	-0.060928
49131		-0.025682	-0.093261	-0.995310	-0.439149	0.895478	-0.072575	0.898047	0.435226	-0.063953
49132		-0.032418	-0.087546	-0.995633	-0.437260	0.897009	-0.064636	0.898751	0.433255	-0.067359
49133		-0.039338	-0.082712	-0.995797	-0.433590	0.899270	-0.057565	0.900251	0.429503	-0.071238
49134		-0.045531	-0.078071	-0.995908	-0.427365	0.902627	-0.051221	0.902932	0.423284	-0.074462
49135		-0.051137	-0.073736	-0.995966	-0.422718	0.905128	-0.045307	0.904817	0.418696	-0.077455
49136		-0.056680	-0.069800	-0.995949	-0.420332	0.906505	-0.039610	0.905598	0.416384	-0.080720
49137		-0.062141	-0.066705	-0.995836	-0.418344	0.907626	-0.034692	0.906160	0.414446	-0.084306
49138		-0.067033	-0.063576	-0.995723	-0.418076	0.907922	-0.029824	0.905935	0.414289	-0.087440
49139		-0.071602	-0.060869	-0.995574	-0.419618	0.907348	-0.025296	0.904872	0.415950	-0.090510
49140		-0.075580	-0.058137	-0.995444	-0.420274	0.907152	-0.021071	0.904244	0.416767	-0.092996
49141		-0.079404	-0.055490	-0.995297	-0.420409	0.907175	-0.017037	0.903853	0.417079	-0.095362
49142		-0.082728	-0.052813	-0.995172	-0.418622	0.908062	-0.013391	0.904385	0.415493	-0.097231
49143		-0.086228	-0.050611	-0.994989	-0.415856	0.909373	-0.010217	0.905333	0.412891	-0.099460
49144		-0.089899	-0.048558	-0.994766	-0.412834	0.910778	-0.007149	0.906359	0.410030	-0.101925
49145		-0.093786	-0.046612	-0.994501	-0.410600	0.911807	-0.004015	0.906980	0.407965	-0.104653
49146		-0.097477	-0.044393	-0.994247	-0.409488	0.912316	-0.000588	0.907093	0.407074	-0.107108
49148		-0.104427	-0.039386	-0.993752	-0.410751	0.911720	0.007028	0.905748	0.408919	-0.111386
49149		-0.107382	-0.036356	-0.993553	-0.412564	0.910859	0.011259	0.904578	0.411113	-0.112809
49150		-0.110643	-0.033290	-0.993303	-0.414421	0.909950	0.015665	0.903335	0.413379	-0.114476
49151		-0.113726	-0.029846	-0.993064	-0.415705	0.909273	0.020279	0.902361	0.415128	-0.115815
49152		-0.116991	-0.026285	-0.992785	-0.416780	0.908662	0.025056	0.901447	0.416704	-0.117260
49153		-0.120408	-0.022382	-0.992472	-0.417276	0.908280	0.030141	0.900768	0.417764	-0.118703
49154		-0.124013	-0.018206	-0.992114	-0.417497	0.907984	0.035524	0.900176	0.418610	-0.120203
49155		-0.127724	-0.013777	-0.991714	-0.417291	0.907842	0.041131	0.899753	0.419087	-0.121702
49156		-0.131673	-0.009306	-0.991250	-0.416802	0.907790	0.046844	0.899410	0.419323	-0.123410
49157		-0.135446	-0.004623	-0.990774	-0.416542	0.907587	0.052710	0.898970	0.419839	-0.124854
49158		-0.139070	0.000159	-0.990283	-0.416328	0.907323	0.058612	0.898516	0.420434	-0.126115
49159		-0.142646	0.004944	-0.989761	-0.416456	0.906861	0.064550	0.897896	0.421400	-0.127301
49160		-0.146044	0.009812	-0.989229	-0.417187	0.906076	0.070578	0.897010	0.423001	-0.128234
49161		-0.149502	0.014768	-0.988651	-0.418391	0.905015	0.076787	0.895878	0.425123	-0.129123
49162		-0.153041	0.019801	-0.988021	-0.419965	0.903722	0.083163	0.894543	0.427662	-0.129991
49163		-0.156667	0.024970	-0.987336	-0.421593	0.902336	0.089717	0.893149	0.430310	-0.130839
49164		-0.160817	0.030071	-0.986526	-0.422345	0.901303	0.096321	0.892055	0.432144	-0.132245
49165		-0.165078	0.035362	-0.985646	-0.422816	0.900330	0.103115	0.891053	0.433769	-0.133673
49166		-0.169470	0.040794	-0.984691	-0.422188	0.899817	0.109938	0.890526	0.434356	-0.135269
49167		-0.173898	0.046474	-0.983666	-0.421359	0.899318	0.116979	0.890065	0.434819	-0.136807
49168		-0.178419	0.052415	-0.982558	-0.420178	0.898895	0.124251	0.889729	0.435018	-0.138356
49169		-0.183037	0.058606	-0.981358	-0.419393	0.898177	0.131862	0.889161	0.435710	-0.139820
49170		-0.187525	0.065229	-0.980092	-0.419205	0.897046	0.139910	0.888314	0.437096	-0.140874
49171		-0.191975	0.072052	-0.978751	-0.419527	0.895561	0.148215	0.887211	0.439066	-0.141698
49172		-0.196441	0.079073	-0.977322	-0.420135	0.893819	0.156764	0.885944	0.441402	-0.142362
49173		-0.200707	0.086302	-0.975843	-0.421155	0.891764	0.165488	0.884503	0.444196	-0.142636
49174		-0.205266	0.093655	-0.974215	-0.422977	0.889160	0.174599	0.882585	0.447909	-0.142901
49175		-0.210021	0.101125	-0.972453	-0.425097	0.886255	0.183970	0.880445	0.452025	-0.143144
49176		-0.215132	0.108816	-0.970504	-0.426680	0.883431	0.193635	0.878443	0.455752	-0.143624
49177		-0.220113	0.116961	-0.968437	-0.428261	0.880404	0.203668	0.876437	0.459574	-0.143699
49178		-0.225250	0.125563	-0.966176	-0.429140	0.877500	0.214087	0.874701	0.462848	-0.143772
49179		-0.230677	0.134501	-0.963690	-0.429639	0.874545	0.224902	0.873040	0.465918	-0.143951
49180		-0.236301	0.143821	-0.960977	-0.429778	0.871517	0.236113	0.871466	0.468801	-0.144129
49181		-0.242368	0.153146	-0.958021	-0.429942	0.868251	0.247566	0.869717	0.471896	-0.144593
49182		-0.248443	0.162810	-0.954866	-0.430200	0.864672	0.259364	0.867873	0.475221	-0.144781
49183		-0.254686	0.172626	-0.951491	-0.430029	0.861078	0.271329	0.866146	0.478273	-0.145070
49184		-0.261053	0.182705	-0.947877	-0.429586	0.857348	0.283567	0.864469	0.481221	-0.145326
49185		-0.267685	0.192781	-0.944023	-0.428699	0.853623	0.295881	0.862880	0.483904	-0.145857
49186		-0.274679	0.203015	-0.939860	-0.427282	0.849875	0.308453	0.861384	0.486311	-0.146698
49187		-0.281984	0.213307	-0.935406	-0.425639	0.845960	0.321221	0.859835	0.488725	-0.147756
49188		-0.289765	0.223841	-0.930554	-0.423311	0.842028	0.334361	0.858396	0.490800	-0.149236
49189		-0.298026	0.234439	-0.925321	-0.420975	0.837730	0.347834	0.856715	0.493201	-0.150972
49190		-0.307038	0.245300	-0.919541	-0.418524	0.832964	0.361951	0.854731	0.495982	-0.153088
49191		-0.316676	0.256178	-0.913285	-0.416448	0.827527	0.376524	0.852225	0.499572	-0.155373
49192		-0.327121	0.267357	-0.906373	-0.415049	0.821028	0.391978	0.848956	0.504413	-0.157609
49193		-0.338449	0.278249	-0.898905	-0.414861	0.813305	0.407953	0.844596	0.510992	-0.159827
49194		-0.350802	0.289160	-0.890688	-0.416189	0.803894	0.424901	0.838883	0.519751	-0.161663
49195		-0.364118	0.299609	-0.881846	-0.419947	0.792313	0.442588	0.831302	0.531483	-0.162675
49196		-0.377858	0.310332	-0.872306	-0.426763	0.777722	0.461544	0.821643	0.546665	-0.161430
49197		-0.391803	0.320793	-0.862312	-0.436525	0.760221	0.481155	0.809899	0.564939	-0.157823
49198		-0.406184	0.331346	-0.851601	-0.446552	0.741110	0.501346	0.797249	0.583923	-0.153064
49199		-0.421280	0.340930	-0.840410	-0.455332	0.721892	0.521099	0.784344	0.602194	-0.148883
49200		-0.437869	0.349419	-0.828358	-0.460046	0.704530	0.540366	0.772417	0.617692	-0.147743
49201		-0.456289	0.355435	-0.815761	-0.461329	0.689438	0.558436	0.760905	0.631142	-0.150611
49202		-0.475155	0.360379	-0.802717	-0.460560	0.675468	0.575871	0.749741	0.643327	-0.154976
49203		-0.493119	0.364569	-0.789888	-0.458680	0.662552	0.592147	0.739220	0.654305	-0.159496
49204		-0.509174	0.369381	-0.777367	-0.453370	0.652630	0.607066	0.731572	0.661537	-0.164836
49205		-0.522838	0.374852	-0.765589	-0.445136	0.645882	0.620234	0.726976	0.665073	-0.170832
49206		-0.533978	0.382160	-0.754202	-0.437009	0.638882	0.633130	0.723803	0.667671	-0.174142
49207		-0.542228	0.390817	-0.743808	-0.431558	0.630016	0.645629	0.720934	0.671075	-0.172952
49208		-0.548447	0.400941	-0.733793	-0.429098	0.618245	0.658520	0.717692	0.676032	-0.167032
49209		-0.553346	0.410090	-0.725006	-0.428607	0.606149	0.669985	0.714216	0.681476	-0.159643
49210		-0.556374	0.418306	-0.717961	-0.429925	0.594481	0.679527	0.711064	0.686741	-0.150913
49211		-0.556997	0.425081	-0.713485	-0.433703	0.583769	0.686379	0.708277	0.691751	-0.140798
49212		-0.555268	0.431016	-0.711268	-0.440391	0.573104	0.691092	0.705502	0.696978	-0.128410
49213		-0.551767	0.434635	-0.711791	-0.449293	0.564123	0.692749	0.702630	0.702038	-0.115987
49214		-0.546718	0.436360	-0.714626	-0.458603	0.558024	0.691587	0.700559	0.705832	-0.104965
49215		-0.540237	0.435335	-0.720158	-0.468254	0.555551	0.687097	0.699201	0.708412	-0.096282
49216		-0.531849	0.432806	-0.727885	-0.477966	0.556119	0.679912	0.699061	0.709514	-0.088905
49217		-0.521527	0.427976	-0.738137	-0.488513	0.559504	0.669560	0.699546	0.709783	-0.082724
49218		-0.509280	0.421681	-0.750213	-0.499135	0.565408	0.656642	0.701070	0.708871	-0.077475
49219		-0.495543	0.412974	-0.764127	-0.509686	0.574096	0.640807	0.703319	0.707012	-0.074001
49221		-0.462770	0.390314	-0.795926	-0.529112	0.598765	0.601266	0.711256	0.699382	-0.070571
49222		-0.443269	0.376028	-0.813705	-0.539692	0.612837	0.577203	0.715713	0.695006	-0.068712
49224		-0.397498	0.344172	-0.850612	-0.562930	0.640592	0.522256	0.724641	0.686431	-0.060889
49225		-0.372027	0.325558	-0.869257	-0.574530	0.654768	0.491115	0.729048	0.682123	-0.056549
49226		-0.345255	0.305560	-0.887374	-0.584054	0.670159	0.458004	0.734629	0.676402	-0.052912
49227		-0.317292	0.283562	-0.904941	-0.591564	0.686646	0.422575	0.741200	0.669410	-0.050122
49228		-0.288013	0.260302	-0.921570	-0.596593	0.704004	0.385299	0.749083	0.660774	-0.047468
49229		-0.257577	0.235054	-0.937232	-0.600051	0.721350	0.345822	0.757359	0.651463	-0.044758
49230		-0.226245	0.208555	-0.951482	-0.601961	0.738023	0.304902	0.765804	0.641738	-0.041432
49231		-0.194153	0.180017	-0.964312	-0.603359	0.753174	0.262081	0.773474	0.632711	-0.037616
49232		-0.161074	0.150773	-0.975358	-0.603714	0.766751	0.218225	0.780759	0.623988	-0.032480
49233		-0.126903	0.120583	-0.984558	-0.603562	0.778295	0.173117	0.787152	0.616211	-0.025989
49234		-0.092382	0.090039	-0.991644	-0.603781	0.786857	0.127693	0.791779	0.610532	-0.018328
49235		-0.058270	0.058935	-0.996560	-0.605450	0.791625	0.082217	0.793747	0.608158	-0.010446
49236		-0.024904	0.028168	-0.999293	-0.607094	0.793745	0.037504	0.794240	0.607598	-0.002667
49237		0.007546	-0.002964	-0.999967	-0.608884	0.793229	-0.006947	0.793223	0.608916	0.004181
49238		0.038821	-0.033922	-0.998670	-0.609328	0.791305	-0.050564	0.791968	0.610480	0.010050
49239		0.069313	-0.064763	-0.995491	-0.607861	0.788505	-0.093621	0.791013	0.611609	0.015287
49240		0.099077	-0.094696	-0.990564	-0.603841	0.785505	-0.135489	0.790923	0.611567	0.020644
49241		0.128235	-0.124054	-0.983954	-0.596506	0.782971	-0.176455	0.792298	0.609563	0.026405
49242		0.155795	-0.152604	-0.975930	-0.585784	0.781243	-0.215674	0.795352	0.605286	0.032321
49243		0.182063	-0.180253	-0.966624	-0.573239	0.779259	-0.253282	0.798906	0.600220	0.038546
49244		0.207775	-0.205391	-0.956370	-0.558428	0.777820	-0.288365	0.803111	0.593979	0.046915
49245		0.233195	-0.227741	-0.945386	-0.542063	0.776691	-0.320811	0.807334	0.587270	0.057670
49246		0.255266	-0.248171	-0.934479	-0.527646	0.774135	-0.349722	0.810203	0.582346	0.066664
49247		0.274308	-0.267046	-0.923819	-0.520287	0.766705	-0.376118	0.808737	0.583823	0.071373
49248		0.290526	-0.284357	-0.913639	-0.516473	0.757191	-0.399897	0.805513	0.588050	0.073121
49249		0.303345	-0.300488	-0.904261	-0.513181	0.748079	-0.420741	0.802886	0.591680	0.072721
49250		0.311571	-0.315364	-0.896364	-0.510865	0.739798	-0.437854	0.801212	0.594344	0.069391
49251		0.316619	-0.327780	-0.890119	-0.510232	0.732221	-0.451127	0.799634	0.597003	0.064591
49252		0.319167	-0.336885	-0.885799	-0.511214	0.725833	-0.460246	0.797993	0.599728	0.059442
49253		0.319761	-0.342680	-0.883359	-0.513485	0.720854	-0.465513	0.796295	0.602444	0.054540
49254		0.318271	-0.345326	-0.882867	-0.516771	0.717561	-0.466963	0.794765	0.604861	0.049924
49255		0.315150	-0.345107	-0.884071	-0.520937	0.715754	-0.465104	0.793288	0.607123	0.045791
49256		0.309830	-0.342204	-0.887075	-0.525526	0.715881	-0.459714	0.792356	0.608614	0.041964
49257		0.302287	-0.337067	-0.891633	-0.529933	0.718093	-0.451124	0.792334	0.608875	0.038447
49258		0.292905	-0.329409	-0.897606	-0.532733	0.723336	-0.439295	0.793979	0.606856	0.036382
49259		0.282141	-0.319445	-0.904627	-0.533371	0.731549	-0.424679	0.797441	0.602321	0.036017
49260		0.269926	-0.307507	-0.912458	-0.531060	0.742927	-0.407473	0.803191	0.594557	0.037230
49261		0.256398	-0.294266	-0.920689	-0.525938	0.756702	-0.388319	0.810956	0.583789	0.039251
49262		0.240893	-0.281148	-0.928938	-0.516829	0.772973	-0.367969	0.821497	0.568744	0.040898
49263		0.224445	-0.269210	-0.936563	-0.503245	0.790989	-0.347967	0.834487	0.549420	0.042055
49264		0.207778	-0.259348	-0.943169	-0.489208	0.807412	-0.329789	0.847056	0.529929	0.040887
49265		0.192578	-0.252346	-0.948280	-0.474111	0.822162	-0.315068	0.859146	0.510265	0.038691
49266		0.179763	-0.247928	-0.951954	-0.460337	0.834019	-0.304141	0.869353	0.492893	0.035796
49268		0.160770	-0.242214	-0.956810	-0.446806	0.846538	-0.289374	0.880067	0.474031	0.027875
49269		0.151074	-0.237874	-0.959475	-0.438295	0.853875	-0.280705	0.886044	0.462941	0.024740
49270		0.140836	-0.230682	-0.962783	-0.431521	0.860936	-0.269403	0.891041	0.453403	0.021707
49272		0.118824	-0.212924	-0.969817	-0.411245	0.878467	-0.243255	0.903747	0.427737	0.016819
49273		0.106605	-0.203352	-0.973285	-0.404764	0.885209	-0.229284	0.908186	0.418393	0.012058
49274		0.092461	-0.193952	-0.976644	-0.400150	0.890919	-0.214811	0.911774	0.410665	0.004765
49276		0.065467	-0.174295	-0.982515	-0.406109	0.894740	-0.185783	0.911477	0.411171	-0.012207
49277		0.053945	-0.164651	-0.984876	-0.408088	0.896548	-0.172236	0.911348	0.411207	-0.018828
49278		0.042929	-0.155911	-0.986838	-0.408604	0.898623	-0.159749	0.911702	0.410084	-0.025129
49279		0.033491	-0.147843	-0.988444	-0.410960	0.899484	-0.148461	0.911038	0.411183	-0.030633
49280		0.025005	-0.140634	-0.989746	-0.413858	0.899774	-0.138305	0.909998	0.413073	-0.035704
49284		-0.004776	-0.114673	-0.993392	-0.450525	0.887119	-0.100239	0.892751	0.447069	-0.055900
49285		-0.009191	-0.108192	-0.994088	-0.467535	0.879240	-0.091370	0.883927	0.463931	-0.058664
49286		-0.013677	-0.102144	-0.994676	-0.481195	0.872676	-0.082999	0.876507	0.477497	-0.061087
49287		-0.019044	-0.096941	-0.995108	-0.490753	0.868050	-0.075172	0.871091	0.486921	-0.064106
49288		-0.024264	-0.092386	-0.995428	-0.493075	0.867288	-0.068474	0.869649	0.489159	-0.066597
49289		-0.029888	-0.088075	-0.995665	-0.491128	0.868870	-0.062116	0.870575	0.487142	-0.069225
49290		-0.035363	-0.083678	-0.995865	-0.488186	0.870951	-0.055847	0.872023	0.484193	-0.071649
49292		-0.045130	-0.074996	-0.996162	-0.484605	0.873635	-0.043818	0.873568	0.480768	-0.075770
49293		-0.049896	-0.071326	-0.996204	-0.485397	0.873458	-0.038226	0.872869	0.481648	-0.078204
49294		-0.054527	-0.067678	-0.996216	-0.487825	0.872334	-0.032562	0.871237	0.484204	-0.080581
49295		-0.058989	-0.064102	-0.996198	-0.492428	0.869940	-0.026819	0.868352	0.488974	-0.082883
49296		-0.063029	-0.060116	-0.996199	-0.498954	0.866381	-0.020713	0.864333	0.495752	-0.084603
49297		-0.067130	-0.056323	-0.996153	-0.506262	0.862255	-0.014635	0.859763	0.503332	-0.086397
49298		-0.071291	-0.052490	-0.996073	-0.513170	0.858245	-0.008498	0.855321	0.510549	-0.088122
49299		-0.075383	-0.048731	-0.995963	-0.519045	0.854743	-0.002536	0.851416	0.516758	-0.089727
49300		-0.079798	-0.044718	-0.995807	-0.521777	0.853075	0.003503	0.849342	0.519869	-0.091407
49301		-0.084275	-0.040860	-0.995604	-0.523620	0.851900	0.009361	0.847773	0.522108	-0.093189
49302		-0.088612	-0.036687	-0.995390	-0.525766	0.850489	0.015458	0.846001	0.524713	-0.094652
49303		-0.092881	-0.032113	-0.995159	-0.526936	0.849626	0.021764	0.844814	0.526407	-0.095836
49304		-0.097287	-0.027203	-0.994885	-0.526525	0.849690	0.028255	0.844575	0.526581	-0.096987
49305		-0.101801	-0.022287	-0.994555	-0.525545	0.850056	0.034745	0.844653	0.526220	-0.098249
49306		-0.106528	-0.017200	-0.994161	-0.523961	0.850734	0.041426	0.845054	0.525314	-0.099639
49307		-0.111539	-0.012068	-0.993687	-0.522140	0.851493	0.048268	0.845535	0.524227	-0.101276
49308		-0.117134	-0.006893	-0.993092	-0.519425	0.852722	0.055347	0.846450	0.522320	-0.103463
49309		-0.122883	-0.001698	-0.992420	-0.515556	0.854583	0.062375	0.847999	0.519313	-0.105889
49311		-0.134916	0.009444	-0.990812	-0.510931	0.856100	0.077732	0.848968	0.516724	-0.110676
49312		-0.141061	0.015580	-0.989878	-0.508969	0.856477	0.086010	0.849148	0.515950	-0.112886
49313		-0.146986	0.022314	-0.988887	-0.506899	0.856790	0.094678	0.849381	0.515182	-0.114625
49314		-0.153149	0.029004	-0.987777	-0.504812	0.857010	0.103433	0.849536	0.514482	-0.116608
49315		-0.159439	0.035799	-0.986558	-0.501980	0.857565	0.112244	0.850056	0.513129	-0.118759
49316		-0.166189	0.042563	-0.985175	-0.497816	0.858790	0.121079	0.851212	0.510557	-0.121533
49317		-0.173069	0.049643	-0.983658	-0.492723	0.860404	0.130115	0.852802	0.507189	-0.124449
49318		-0.180101	0.057035	-0.981993	-0.488683	0.861213	0.139646	0.853670	0.505034	-0.127233
49319		-0.187238	0.064877	-0.980170	-0.485264	0.861454	0.149717	0.854085	0.503674	-0.129815
49320		-0.194287	0.073025	-0.978223	-0.482211	0.861307	0.160070	0.854240	0.502809	-0.132128
49321		-0.201461	0.081376	-0.976110	-0.478949	0.861098	0.170638	0.854413	0.501884	-0.134503
49322		-0.208694	0.089703	-0.973858	-0.475783	0.860688	0.181237	0.854446	0.501168	-0.136942
49323		-0.215983	0.098091	-0.971457	-0.473389	0.859663	0.192051	0.853964	0.501357	-0.139238
49326		-0.238489	0.124508	-0.963131	-0.467501	0.854553	0.226234	0.851215	0.504218	-0.145594
49327		-0.246001	0.134086	-0.959950	-0.465728	0.852215	0.238386	0.850048	0.505719	-0.147198
49328		-0.253529	0.143951	-0.956557	-0.463940	0.849616	0.250823	0.848812	0.507376	-0.148618
49329		-0.261178	0.154055	-0.952918	-0.461187	0.847310	0.263385	0.847993	0.508264	-0.150251
49330		-0.269056	0.164251	-0.949016	-0.457892	0.845055	0.276075	0.847316	0.508826	-0.152158
49332		-0.285706	0.184839	-0.940323	-0.450444	0.840171	0.302014	0.845856	0.509850	-0.156782
49333		-0.294416	0.195255	-0.935518	-0.446865	0.837173	0.315361	0.844767	0.510898	-0.159224
49334		-0.303379	0.205803	-0.930380	-0.442982	0.834008	0.328933	0.843640	0.511933	-0.161854
49335		-0.312624	0.216442	-0.924889	-0.438359	0.830933	0.342625	0.842679	0.512546	-0.164890
49336		-0.322184	0.227209	-0.919007	-0.433366	0.827683	0.356560	0.841660	0.513144	-0.168202
49337		-0.332096	0.238021	-0.912720	-0.428228	0.824124	0.370729	0.840436	0.513970	-0.171761
49338		-0.342362	0.248687	-0.906059	-0.423065	0.820243	0.384991	0.838931	0.515128	-0.175609
49339		-0.352741	0.259477	-0.899025	-0.418596	0.815526	0.399618	0.836869	0.517290	-0.179054
49340		-0.363412	0.270152	-0.891600	-0.415443	0.809616	0.414644	0.833870	0.521095	-0.181991
49341		-0.374636	0.280784	-0.883634	-0.413260	0.802567	0.430235	0.829978	0.526352	-0.184633
49342		-0.386125	0.291232	-0.875267	-0.414173	0.793098	0.446605	0.824238	0.534957	-0.185614
49343		-0.398141	0.301609	-0.866323	-0.417746	0.781176	0.463952	0.816683	0.546622	-0.185022
49344		-0.410358	0.311847	-0.856947	-0.423832	0.766833	0.482011	0.807448	0.560998	-0.182505
49345		-0.423096	0.322317	-0.846819	-0.430832	0.750617	0.500957	0.797103	0.576789	-0.178719
49346		-0.436843	0.332342	-0.835893	-0.436652	0.734080	0.520059	0.786450	0.592178	-0.175560
49347		-0.452056	0.342060	-0.823796	-0.439212	0.718472	0.539343	0.776362	0.605634	-0.174552
49348		-0.468314	0.350879	-0.810904	-0.439468	0.703690	0.558290	0.766518	0.617822	-0.175348
49349		-0.484818	0.359071	-0.797508	-0.438897	0.688835	0.576954	0.756519	0.629742	-0.176364
49350		-0.500284	0.366441	-0.784498	-0.438513	0.674018	0.594480	0.746607	0.641421	-0.176511
49351		-0.514058	0.373702	-0.772069	-0.437947	0.659591	0.610854	0.737527	0.652140	-0.175407
49352		-0.526413	0.379887	-0.760642	-0.436656	0.646839	0.625244	0.729535	0.661275	-0.174625
49353		-0.536946	0.386501	-0.749870	-0.433291	0.636328	0.638237	0.723842	0.667611	-0.174206
49354		-0.546005	0.392873	-0.739952	-0.430706	0.625936	0.650152	0.718590	0.673688	-0.172551
49355		-0.553340	0.400331	-0.730445	-0.430486	0.613294	0.662233	0.713090	0.680886	-0.167023
49356		-0.558822	0.408905	-0.721467	-0.431881	0.599194	0.674125	0.707952	0.688304	-0.158245
49358		-0.566980	0.425929	-0.705066	-0.438177	0.568847	0.695999	0.697521	0.703561	-0.135892
49359		-0.567438	0.433394	-0.700131	-0.443769	0.555267	0.703383	0.693601	0.709823	-0.122753
49360		-0.566073	0.439366	-0.697509	-0.453113	0.541011	0.708516	0.688658	0.717122	-0.107169
49362		-0.558269	0.444311	-0.700659	-0.474431	0.521847	0.708937	0.680625	0.728192	-0.080536
49363		-0.552197	0.443045	-0.706250	-0.485577	0.517696	0.704419	0.677712	0.731917	-0.070737
49364		-0.544793	0.438518	-0.714774	-0.496498	0.518233	0.696365	0.675788	0.734259	-0.064606
49365		-0.536171	0.431007	-0.725778	-0.505290	0.524866	0.684980	0.676168	0.733995	-0.063634
49366		-0.526129	0.420282	-0.739291	-0.511985	0.537588	0.669978	0.679014	0.731001	-0.067663
49367		-0.514202	0.407566	-0.754643	-0.516510	0.555275	0.651834	0.684700	0.724955	-0.075012
49368		-0.499827	0.393276	-0.771691	-0.519976	0.576292	0.630486	0.692674	0.716395	-0.083552
49369		-0.483045	0.378229	-0.789690	-0.523459	0.598231	0.606722	0.701896	0.706444	-0.090985
49370		-0.464071	0.361862	-0.808513	-0.529341	0.618557	0.580676	0.710237	0.697454	-0.095506
49371		-0.443276	0.344580	-0.827509	-0.537086	0.637007	0.552957	0.717667	0.689556	-0.097300
49372		-0.420343	0.325952	-0.846798	-0.547948	0.652677	0.523226	0.723232	0.683936	-0.095743
49373		-0.395221	0.306643	-0.865893	-0.560423	0.666387	0.491786	0.727823	0.679631	-0.091520
49374		-0.368056	0.286535	-0.884552	-0.573540	0.678819	0.458537	0.731838	0.676094	-0.085505
49375		-0.339328	0.265879	-0.902311	-0.586068	0.690544	0.423879	0.735786	0.672650	-0.078497
49376		-0.309402	0.243164	-0.919316	-0.597610	0.702270	0.386884	0.739684	0.669095	-0.071966
49377		-0.278410	0.218783	-0.935212	-0.607261	0.714292	0.347881	0.744125	0.664772	-0.066007
49378		-0.246139	0.192561	-0.949914	-0.615930	0.725649	0.306697	0.748362	0.660571	-0.060007
49379		-0.212776	0.165031	-0.963064	-0.622530	0.736796	0.263797	0.753116	0.655665	-0.054036
49380		-0.178547	0.135658	-0.974535	-0.626955	0.747658	0.218943	0.758320	0.650081	-0.048441
49381		-0.143698	0.105440	-0.983989	-0.629972	0.757076	0.173123	0.763208	0.644762	-0.042366
49382		-0.108425	0.074616	-0.991300	-0.632711	0.763951	0.126707	0.766760	0.640945	-0.035621
49383		-0.073093	0.044260	-0.996343	-0.633841	0.769245	0.080671	0.770002	0.637420	-0.028173
49385		-0.004166	-0.016962	-0.999847	-0.632435	0.774543	-0.010505	0.774603	0.632294	-0.013954
49386		0.029022	-0.048515	-0.998401	-0.626401	0.777487	-0.055988	0.778960	0.627024	-0.007825
49387		0.061596	-0.080268	-0.994868	-0.617239	0.780244	-0.101167	0.784361	0.620303	-0.001484
49388		0.093103	-0.111309	-0.989415	-0.606261	0.781933	-0.145016	0.789797	0.613345	0.005318
49389		0.124024	-0.140802	-0.982239	-0.594784	0.781792	-0.187170	0.794260	0.607434	0.013214
49390		0.153048	-0.169432	-0.973586	-0.581239	0.781329	-0.227345	0.799210	0.600681	0.021100
49391		0.180904	-0.196342	-0.963703	-0.568238	0.778903	-0.265360	0.802733	0.595617	0.029338
49392		0.208623	-0.219657	-0.953010	-0.555496	0.775391	-0.300321	0.804923	0.592047	0.039746
49393		0.234535	-0.241340	-0.941673	-0.544679	0.769728	-0.332931	0.805182	0.590994	0.049075
49394		0.258173	-0.261104	-0.930146	-0.538310	0.760598	-0.362924	0.802228	0.594404	0.055811
49395		0.278725	-0.279417	-0.918825	-0.536621	0.748137	-0.390294	0.796461	0.601845	0.058583
49397		0.308206	-0.312495	-0.898530	-0.533788	0.725007	-0.435242	0.787451	0.613769	0.056645
49398		0.316662	-0.326821	-0.890457	-0.532405	0.715702	-0.452013	0.785029	0.617219	0.052634
49399		0.322662	-0.338091	-0.884072	-0.533169	0.706824	-0.464899	0.782061	0.621365	0.047805
49400		0.326647	-0.346313	-0.879414	-0.536160	0.698357	-0.474162	0.778353	0.626391	0.042437
49401		0.328600	-0.351504	-0.876622	-0.542248	0.689734	-0.479827	0.773298	0.633018	0.036044
49402		0.328518	-0.353667	-0.875783	-0.551894	0.680599	-0.481869	0.766478	0.641642	0.028403
49403		0.325883	-0.353187	-0.876961	-0.563948	0.671873	-0.480155	0.758791	0.651034	0.019773
49404		0.320396	-0.350591	-0.880018	-0.578268	0.663427	-0.474838	0.750302	0.661022	0.009823
49405		0.312151	-0.346059	-0.884763	-0.593013	0.656614	-0.466041	0.742225	0.670151	-0.000255
49406		0.301417	-0.339967	-0.890826	-0.606773	0.652297	-0.454242	0.735510	0.677445	-0.009670
49407		0.288634	-0.332327	-0.897914	-0.617880	0.651743	-0.439834	0.731378	0.681754	-0.017223
49408		0.273922	-0.323368	-0.905759	-0.624969	0.655985	-0.423200	0.731014	0.681995	-0.022406
49409		0.257084	-0.313759	-0.914037	-0.627415	0.665193	-0.404807	0.735022	0.677550	-0.025846
49410		0.238281	-0.304487	-0.922231	-0.624055	0.679599	-0.385618	0.744163	0.667408	-0.028082
49411		0.219461	-0.295533	-0.929783	-0.614842	0.698054	-0.367001	0.757500	0.652213	-0.028511
49412		0.202828	-0.287300	-0.936119	-0.602492	0.717000	-0.350592	0.771923	0.635114	-0.027669
49413		0.188506	-0.281819	-0.940768	-0.583569	0.738329	-0.338108	0.789882	0.612738	-0.025282
49414		0.176562	-0.279372	-0.943810	-0.563778	0.757297	-0.329631	0.806834	0.590299	-0.023794
49415		0.166966	-0.277737	-0.946036	-0.546962	0.772234	-0.323245	0.820338	0.571417	-0.022975
49416		0.158687	-0.274002	-0.948547	-0.527096	0.788848	-0.316051	0.834858	0.550129	-0.019245
49417		0.149720	-0.267629	-0.951819	-0.501616	0.809020	-0.306381	0.852036	0.523318	-0.013121
49418		0.140113	-0.259279	-0.955585	-0.471523	0.831170	-0.294658	0.870652	0.491865	-0.005798
49422		0.085805	-0.221850	-0.971298	-0.404420	0.883210	-0.237457	0.910540	0.413187	-0.013937
49423		0.071130	-0.211918	-0.974696	-0.409981	0.884602	-0.222249	0.909316	0.415415	-0.023960
49424		0.057930	-0.201859	-0.977700	-0.419290	0.883861	-0.207328	0.906002	0.421950	-0.033435
49425		0.045288	-0.192549	-0.980242	-0.428524	0.882639	-0.193175	0.902395	0.428805	-0.042538
49426		0.034527	-0.184330	-0.982258	-0.436489	0.881368	-0.180740	0.899047	0.434985	-0.050027
49428		0.014849	-0.171743	-0.985030	-0.449046	0.879060	-0.160036	0.893385	0.444700	-0.064067
49429		0.005875	-0.165904	-0.986124	-0.459783	0.875272	-0.149994	0.888012	0.454285	-0.071138
49430		-0.002330	-0.158828	-0.987304	-0.471047	0.871085	-0.139020	0.882105	0.464742	-0.076844
49431		-0.010228	-0.151648	-0.988382	-0.483907	0.865734	-0.127823	0.875059	0.476978	-0.082238
49434		-0.033002	-0.131736	-0.990735	-0.512084	0.853505	-0.096432	0.858301	0.504158	-0.095627
49435		-0.040772	-0.126287	-0.991155	-0.515279	0.852551	-0.087430	0.856052	0.507157	-0.099834
49437		-0.054501	-0.116288	-0.991719	-0.518995	0.851794	-0.071359	0.853038	0.510808	-0.106776
49438		-0.060430	-0.111869	-0.991884	-0.520218	0.851606	-0.064354	0.851893	0.512107	-0.109659
49439		-0.066447	-0.108077	-0.991919	-0.521730	0.851151	-0.057789	0.850519	0.513675	-0.112943
49440		-0.072318	-0.104820	-0.991858	-0.524711	0.849719	-0.051541	0.848203	0.516711	-0.116451
49441		-0.077818	-0.101640	-0.991773	-0.525873	0.849330	-0.045780	0.846996	0.517984	-0.119543
49442		-0.083060	-0.098343	-0.991680	-0.526701	0.849105	-0.040090	0.845983	0.518989	-0.122324
49443		-0.088480	-0.094818	-0.991555	-0.528722	0.848117	-0.033922	0.844170	0.521256	-0.125174
49444		-0.093802	-0.091412	-0.991385	-0.531609	0.846535	-0.027757	0.841780	0.524426	-0.128002
49445		-0.099214	-0.087724	-0.991192	-0.534960	0.844611	-0.021204	0.839032	0.528145	-0.130726
49446		-0.104551	-0.084151	-0.990953	-0.538915	0.842233	-0.014663	0.835847	0.532506	-0.133406
49447		-0.110215	-0.080486	-0.990644	-0.543015	0.839687	-0.007808	0.832459	0.537074	-0.136252
49448		-0.116035	-0.077128	-0.990246	-0.547115	0.837057	-0.001087	0.828976	0.541652	-0.139325
49449		-0.122013	-0.073389	-0.989811	-0.550769	0.834636	0.006009	0.825691	0.545891	-0.142257
49451		-0.134079	-0.065502	-0.988803	-0.556774	0.830412	0.020487	0.819772	0.553287	-0.147811
49452		-0.140256	-0.060984	-0.988235	-0.558824	0.828808	0.028166	0.817340	0.556200	-0.150324
49453		-0.146460	-0.056727	-0.987589	-0.560367	0.827481	0.035572	0.815193	0.558622	-0.152981
49454		-0.152663	-0.052260	-0.986896	-0.561035	0.826674	0.043011	0.813593	0.560249	-0.155522
49455		-0.158767	-0.047947	-0.986151	-0.561304	0.826086	0.050203	0.812238	0.561501	-0.158069
49456		-0.164968	-0.043265	-0.985350	-0.561165	0.825690	0.057697	0.811097	0.562462	-0.160491
49457		-0.171107	-0.038469	-0.984501	-0.560571	0.825538	0.065170	0.810236	0.563033	-0.162820
49458		-0.177292	-0.033360	-0.983593	-0.559301	0.825761	0.072807	0.809784	0.563032	-0.165059
49459		-0.183521	-0.028357	-0.982607	-0.557543	0.826256	0.080287	0.809608	0.562580	-0.167445
49460		-0.190023	-0.023329	-0.981502	-0.554728	0.827394	0.087731	0.810042	0.561138	-0.170165
49461		-0.196509	-0.018513	-0.980327	-0.551362	0.828855	0.094869	0.810792	0.559158	-0.173085
49462		-0.203081	-0.013533	-0.979068	-0.547594	0.830491	0.102104	0.811726	0.556867	-0.176068
49463		-0.209340	-0.008570	-0.977805	-0.543446	0.832331	0.109052	0.812923	0.554213	-0.178897
49464		-0.215595	-0.003458	-0.976477	-0.538571	0.834563	0.115955	0.814531	0.550901	-0.181790
49465		-0.221820	0.001522	-0.975086	-0.534946	0.835886	0.122998	0.815248	0.548902	-0.184602
49466		-0.228080	0.006784	-0.973619	-0.532551	0.836264	0.130582	0.815088	0.548285	-0.187122
49467		-0.234251	0.011763	-0.972105	-0.530545	0.836354	0.137967	0.814646	0.548064	-0.189676
49468		-0.240338	0.016487	-0.970549	-0.528752	0.836275	0.145141	0.814039	0.548062	-0.192271
49469		-0.245907	0.020637	-0.969074	-0.527718	0.835762	0.151709	0.813045	0.548704	-0.194630
49470		-0.251240	0.024604	-0.967612	-0.527278	0.834848	0.158135	0.811700	0.549931	-0.196775
49471		-0.256220	0.028073	-0.966211	-0.527393	0.833629	0.164075	0.810067	0.551612	-0.198786
49472		-0.261042	0.031358	-0.964818	-0.528128	0.831988	0.169931	0.808046	0.553907	-0.200623
49473		-0.265654	0.034138	-0.963464	-0.529681	0.829852	0.175452	0.805522	0.556938	-0.202372
49474		-0.270067	0.036987	-0.962131	-0.531451	0.827528	0.180989	0.802884	0.560205	-0.203832
49475		-0.274200	0.039516	-0.960861	-0.533239	0.825239	0.186108	0.800294	0.563400	-0.205209
49476		-0.278129	0.042129	-0.959619	-0.534430	0.823339	0.191042	0.798141	0.565984	-0.206480
49477		-0.282193	0.044240	-0.958337	-0.536409	0.820919	0.195848	0.795382	0.569328	-0.207927
49478		-0.286628	0.046320	-0.956922	-0.538738	0.818152	0.200972	0.792216	0.573134	-0.209551
49479		-0.291245	0.048206	-0.955433	-0.541878	0.814747	0.206288	0.788381	0.577809	-0.211169
49480		-0.296006	0.050498	-0.953850	-0.545180	0.811038	0.212122	0.784321	0.582809	-0.212542
49481		-0.300729	0.052981	-0.952237	-0.549818	0.806201	0.218496	0.779270	0.589265	-0.213319
49482		-0.305566	0.056072	-0.950519	-0.555273	0.800450	0.225724	0.773500	0.596771	-0.213455
49483		-0.310350	0.059364	-0.948767	-0.561214	0.794119	0.233266	0.767282	0.604856	-0.213139
49484		-0.315233	0.063107	-0.946914	-0.566891	0.787686	0.241216	0.761093	0.612836	-0.212530
49485		-0.320249	0.066836	-0.944973	-0.572128	0.781402	0.249160	0.755057	0.620438	-0.212005
49486		-0.325538	0.071052	-0.942856	-0.576461	0.775500	0.257474	0.749478	0.627337	-0.211496
49487		-0.331210	0.075295	-0.940548	-0.580503	0.769574	0.266030	0.743852	0.634103	-0.211182
49488		-0.337342	0.079904	-0.937985	-0.584106	0.763628	0.275122	0.738255	0.640693	-0.210931
49489		-0.343597	0.084559	-0.935303	-0.587563	0.757575	0.284341	0.732606	0.647247	-0.210616
49490		-0.350129	0.089551	-0.932411	-0.590711	0.751421	0.293985	0.726959	0.653718	-0.210196
49491		-0.356733	0.094439	-0.929421	-0.594552	0.744437	0.303846	0.720590	0.660981	-0.209416
49492		-0.363608	0.099375	-0.926236	-0.598629	0.736891	0.314062	0.713745	0.668667	-0.208451
49493		-0.370500	0.104154	-0.922974	-0.603067	0.728783	0.324323	0.706427	0.676777	-0.207202
49494		-0.377781	0.108842	-0.919475	-0.607924	0.719869	0.334989	0.698363	0.685523	-0.205786
49495		-0.385373	0.113238	-0.915786	-0.613084	0.710306	0.345822	0.689649	0.694724	-0.204309
49496		-0.392986	0.117992	-0.911943	-0.618156	0.700313	0.356994	0.680768	0.704017	-0.202276
49497		-0.400603	0.122377	-0.908043	-0.623035	0.690276	0.367894	0.671822	0.713122	-0.200282
49498		-0.408019	0.126701	-0.904139	-0.627577	0.680328	0.378550	0.663074	0.721873	-0.198072
49499		-0.415151	0.130804	-0.900300	-0.632138	0.670211	0.388869	0.654257	0.730553	-0.195552
49500		-0.422391	0.134625	-0.896360	-0.636644	0.659846	0.399108	0.645190	0.739242	-0.193005
49501		-0.429522	0.137994	-0.892451	-0.641784	0.648608	0.409170	0.635314	0.748509	-0.190029
49503		-0.443498	0.143067	-0.884783	-0.653299	0.624236	0.428404	0.613604	0.768025	-0.183382
49504		-0.450167	0.144583	-0.881162	-0.659824	0.611030	0.437349	0.601649	0.778292	-0.179666
49505		-0.456754	0.145366	-0.877636	-0.666886	0.596983	0.445952	0.588760	0.788974	-0.175732
49506		-0.463226	0.145106	-0.874280	-0.674269	0.582501	0.453932	0.575138	0.799773	-0.171989
49507		-0.469532	0.144327	-0.871039	-0.682419	0.566651	0.461748	0.560218	0.811219	-0.167570
49509		-0.482230	0.139604	-0.864850	-0.700208	0.531853	0.476279	0.526464	0.835250	-0.158723
49510		-0.488931	0.135887	-0.861674	-0.709442	0.512828	0.483425	0.507581	0.847669	-0.154334
49512		-0.502871	0.125198	-0.855246	-0.728049	0.471978	0.497173	0.465903	0.872675	-0.146194
49513		-0.510335	0.118315	-0.851798	-0.737237	0.449769	0.504171	0.442764	0.885273	-0.142307
49514		-0.518056	0.110051	-0.848237	-0.746413	0.426132	0.511154	0.417714	0.897942	-0.138617
49515		-0.525940	0.100960	-0.844509	-0.755401	0.400833	0.518365	0.390841	0.910571	-0.134549
49516		-0.533740	0.091002	-0.840738	-0.764092	0.374083	0.525572	0.362334	0.922920	-0.130129
49517		-0.541414	0.080391	-0.836904	-0.772022	0.346655	0.532740	0.332945	0.934541	-0.125620
49518		-0.548775	0.068984	-0.833119	-0.779362	0.318276	0.539718	0.302394	0.945485	-0.120899
49519		-0.555632	0.057467	-0.829440	-0.786348	0.287710	0.546699	0.270055	0.955992	-0.114672
49520		-0.561727	0.045950	-0.826046	-0.792927	0.255003	0.553390	0.236073	0.965848	-0.106807
49521		-0.567364	0.034247	-0.822754	-0.798553	0.221027	0.559875	0.201025	0.974666	-0.098055
49522		-0.572388	0.021184	-0.819709	-0.803306	0.186101	0.565743	0.164534	0.982302	-0.089505
49523		-0.576392	0.006761	-0.817146	-0.807358	0.149815	0.570727	0.126279	0.988691	-0.080894
49524		-0.578792	-0.008725	-0.815428	-0.811022	0.110515	0.574482	0.085104	0.993836	-0.071042
49525		-0.579402	-0.024626	-0.814669	-0.813991	0.068220	0.576858	0.041371	0.997366	-0.059572
49526		-0.577887	-0.040845	-0.815094	-0.816104	0.023170	0.577441	-0.004699	0.998897	-0.046723
49527		-0.574315	-0.056377	-0.816691	-0.816969	-0.024122	0.576176	-0.052183	0.998118	-0.032204
49529		-0.559919	-0.086159	-0.824055	-0.815572	-0.118015	0.566494	-0.146059	0.989267	-0.004190
49530		-0.549395	-0.099665	-0.829598	-0.812939	-0.165720	0.558272	-0.193121	0.981124	0.010024
49531		-0.537054	-0.111682	-0.836122	-0.808222	-0.215713	0.547946	-0.241558	0.970049	0.025586
49532		-0.523226	-0.122714	-0.843312	-0.801300	-0.266012	0.535869	-0.290089	0.956127	0.040854
49534		-0.490190	-0.141299	-0.860086	-0.782289	-0.363826	0.505623	-0.384366	0.920687	0.067807
49535		-0.471678	-0.148084	-0.869248	-0.770393	-0.410369	0.487946	-0.428969	0.899816	0.079479
49536		-0.451759	-0.153812	-0.878781	-0.758054	-0.453187	0.469017	-0.470392	0.878045	0.088133
49537		-0.430404	-0.158606	-0.888593	-0.745917	-0.491860	0.449089	-0.508291	0.856106	0.093392
49538		-0.407798	-0.161418	-0.898691	-0.735233	-0.525571	0.428026	-0.541417	0.835296	0.095647
49539		-0.384641	-0.161864	-0.908764	-0.726980	-0.553555	0.406296	-0.568815	0.816932	0.095248
49540		-0.361199	-0.160280	-0.918611	-0.720707	-0.577117	0.384079	-0.591706	0.800778	0.092939
49541		-0.338076	-0.156986	-0.927933	-0.714558	-0.598847	0.361648	-0.612464	0.785326	0.090280
49542		-0.315117	-0.152178	-0.936773	-0.707318	-0.620457	0.338724	-0.632773	0.769334	0.087878
49543		-0.292471	-0.145871	-0.945083	-0.697709	-0.643308	0.315210	-0.653959	0.751583	0.086374
49544		-0.269919	-0.138129	-0.952924	-0.685194	-0.667757	0.290877	-0.676501	0.731451	0.085595
49545		-0.247254	-0.129270	-0.960289	-0.669600	-0.693543	0.265770	-0.700358	0.708722	0.084922
49546		-0.224585	-0.118948	-0.967167	-0.650707	-0.720499	0.239711	-0.725356	0.683178	0.084413
49548		-0.180288	-0.093618	-0.979149	-0.602844	-0.776066	0.185201	-0.777222	0.623664	0.083479
49549		-0.158897	-0.078874	-0.984140	-0.573659	-0.803897	0.157050	-0.803534	0.589515	0.082490
49550		-0.138479	-0.062609	-0.988384	-0.541729	-0.830670	0.128519	-0.829068	0.553233	0.081113
49551		-0.119322	-0.044957	-0.991837	-0.508314	-0.855355	0.099923	-0.852865	0.516088	0.079210
49552		-0.102174	-0.026461	-0.994415	-0.473329	-0.877938	0.071996	-0.874940	0.478042	0.077178
49553		-0.086606	-0.008266	-0.996208	-0.437646	-0.897996	0.045498	-0.894967	0.439927	0.074154
49554		-0.073088	0.009189	-0.997283	-0.401204	-0.915749	0.020965	-0.913068	0.401647	0.070617
49555		-0.061328	0.025418	-0.997794	-0.363733	-0.931502	-0.001372	-0.929482	0.362847	0.066373
49556		-0.051358	0.040652	-0.997853	-0.327262	-0.944686	-0.021643	-0.943537	0.325448	0.061821
49558		-0.035557	0.068287	-0.997032	-0.258745	-0.964273	-0.056816	-0.965291	0.255957	0.051955
49559		-0.029279	0.080719	-0.996307	-0.227224	-0.971177	-0.072006	-0.973402	0.224277	0.046777
49560		-0.023649	0.091838	-0.995493	-0.197702	-0.976536	-0.085393	-0.979977	0.194791	0.041251
49561		-0.018783	0.101478	-0.994660	-0.169981	-0.980677	-0.096841	-0.985268	0.167255	0.035670
49562		-0.014772	0.109207	-0.993909	-0.144163	-0.983864	-0.105961	-0.989444	0.141720	0.030277
49563		-0.011899	0.114733	-0.993325	-0.120996	-0.986261	-0.112468	-0.992582	0.118850	0.025618
49564		-0.010026	0.117520	-0.993020	-0.099225	-0.988285	-0.115957	-0.995014	0.097370	0.021570
49565		-0.009313	0.118009	-0.992969	-0.079642	-0.989945	-0.116902	-0.996780	0.077993	0.018618
49566		-0.009312	0.116528	-0.993144	-0.061758	-0.991358	-0.115739	-0.998048	0.060257	0.016428
49567		-0.008728	0.113756	-0.993470	-0.044317	-0.992576	-0.113264	-0.998979	0.043040	0.013705
49568		-0.007570	0.110165	-0.993884	-0.026240	-0.993593	-0.109933	-0.999627	0.025247	0.010412
49569		-0.005685	0.106462	-0.994301	-0.007839	-0.994291	-0.106416	-0.999953	0.007189	0.006487
49571		0.003387	0.101894	-0.994789	0.029897	-0.994361	-0.101748	-0.999547	-0.029396	-0.006415
49572		0.008432	0.102219	-0.994726	0.050553	-0.993533	-0.101668	-0.998686	-0.049429	-0.013545
49573		0.012819	0.103624	-0.994534	0.068135	-0.992394	-0.102523	-0.997594	-0.066448	-0.019782
49574		0.015910	0.105446	-0.994298	0.079023	-0.991446	-0.103879	-0.996746	-0.076919	-0.024106
49576		0.015178	0.106582	-0.994188	0.090669	-0.990353	-0.104787	-0.995765	-0.088551	-0.024695
49577		0.014321	0.104323	-0.994440	0.087951	-0.990819	-0.102676	-0.996022	-0.085992	-0.023365
49578		0.016437	0.099901	-0.994862	0.075414	-0.992286	-0.098396	-0.997017	-0.073409	-0.023844
49579		0.021049	0.094344	-0.995317	0.054203	-0.994181	-0.093090	-0.998308	-0.051989	-0.026040
49580		0.027093	0.087842	-0.995766	0.030724	-0.995734	-0.087003	-0.999161	-0.028237	-0.029677
49581		0.032354	0.081190	-0.996173	0.009463	-0.996675	-0.080924	-0.999432	-0.006808	-0.033015
49582		0.036570	0.074310	-0.996564	-0.006674	-0.997191	-0.074601	-0.999309	0.009379	-0.035971
49583		0.040526	0.068061	-0.996858	-0.019390	-0.997436	-0.068889	-0.998990	0.022121	-0.039103
49584		0.043881	0.062955	-0.997051	-0.028608	-0.997524	-0.064244	-0.998627	0.031342	-0.041971
49585		0.047220	0.059066	-0.997137	-0.033426	-0.997598	-0.060676	-0.998325	0.036195	-0.045133
49586		0.051172	0.055527	-0.997145	-0.032701	-0.997825	-0.057243	-0.998154	0.035537	-0.049245
49588		0.059379	0.048116	-0.997075	-0.018748	-0.998608	-0.049306	-0.998059	0.021621	-0.058394
49589		0.063896	0.043700	-0.996999	-0.007117	-0.998995	-0.044243	-0.997931	0.009923	-0.063521
49590		0.067596	0.039127	-0.996945	0.004528	-0.999232	-0.038909	-0.997703	-0.001884	-0.067721
49592		0.074275	0.030847	-0.996761	0.025574	-0.999252	-0.029018	-0.996910	-0.023336	-0.075008
49593		0.077248	0.027330	-0.996637	0.031225	-0.999200	-0.024980	-0.996523	-0.029190	-0.078040
49594		0.080364	0.023820	-0.996481	0.034410	-0.999185	-0.021110	-0.996171	-0.032592	-0.081118
49595		0.083790	0.020415	-0.996274	0.036370	-0.999187	-0.017416	-0.995819	-0.034775	-0.084464
49596		0.087847	0.016778	-0.995993	0.038684	-0.999161	-0.013419	-0.995383	-0.037350	-0.088423
49597		0.092151	0.013112	-0.995659	0.040675	-0.999128	-0.009394	-0.994914	-0.039632	-0.092604
49598		0.096719	0.009356	-0.995268	0.043859	-0.999025	-0.005129	-0.994345	-0.043155	-0.097035
49599		0.100812	0.005844	-0.994888	0.049638	-0.998767	-0.000837	-0.993666	-0.049300	-0.100978
49601		0.107942	-0.000432	-0.994157	0.067544	-0.997686	0.007767	-0.991860	-0.067988	-0.107663
49602		0.110989	-0.003077	-0.993817	0.077885	-0.996893	0.011785	-0.990765	-0.078712	-0.110405
49604		0.116459	-0.008486	-0.993159	0.094924	-0.995291	0.019635	-0.988649	-0.096561	-0.115106
49605		0.118509	-0.011356	-0.992888	0.102057	-0.994500	0.023556	-0.987694	-0.104123	-0.116698
49606		0.120464	-0.014332	-0.992614	0.109571	-0.993595	0.027644	-0.986652	-0.112092	-0.118122
49609		0.125758	-0.021874	-0.991820	0.128432	-0.990985	0.038140	-0.983712	-0.132178	-0.121815
49610		0.127160	-0.024228	-0.991586	0.135149	-0.989955	0.041520	-0.982632	-0.139292	-0.122609
49611		0.128218	-0.026431	-0.991394	0.142510	-0.988779	0.044792	-0.981454	-0.147027	-0.123013
49612		0.129240	-0.028527	-0.991203	0.150362	-0.987464	0.048025	-0.980147	-0.155246	-0.123330
49613		0.130097	-0.030446	-0.991034	0.158426	-0.986048	0.051090	-0.978763	-0.163652	-0.123458
49614		0.131028	-0.032394	-0.990849	0.166428	-0.984563	0.054196	-0.977309	-0.172006	-0.123614
49615		0.131765	-0.034367	-0.990685	0.174212	-0.983041	0.057273	-0.975852	-0.180136	-0.123544
49616		0.132592	-0.036409	-0.990502	0.182535	-0.981336	0.060507	-0.974218	-0.188824	-0.123472
49617		0.133331	-0.038471	-0.990325	0.189966	-0.979726	0.063635	-0.972695	-0.196612	-0.123320
49618		0.134396	-0.040596	-0.990096	0.197245	-0.978070	0.066877	-0.971098	-0.204280	-0.123442
49619		0.135439	-0.042611	-0.989869	0.203984	-0.976472	0.069945	-0.969560	-0.211390	-0.123561
49621		0.137967	-0.046760	-0.989332	0.215705	-0.973489	0.076092	-0.966663	-0.223903	-0.124223
49622		0.138974	-0.048942	-0.989086	0.220908	-0.972078	0.079139	-0.965342	-0.229496	-0.124282
49623		0.140038	-0.051442	-0.988809	0.225800	-0.970676	0.082477	-0.964056	-0.234823	-0.124316
49624		0.140995	-0.054124	-0.988530	0.231508	-0.969017	0.086076	-0.962561	-0.240989	-0.124097
49626		0.143227	-0.059967	-0.987871	0.242794	-0.965531	0.093813	-0.959446	-0.253286	-0.123731
49627		0.144544	-0.062871	-0.987499	0.247434	-0.963977	0.097592	-0.958062	-0.258447	-0.123781
49629		0.146755	-0.069442	-0.986732	0.254583	-0.961277	0.105514	-0.955851	-0.266690	-0.123393
49630		0.148035	-0.072854	-0.986295	0.257323	-0.960097	0.109541	-0.954919	-0.270012	-0.123381
49632		0.150548	-0.080139	-0.985349	0.261112	-0.958092	0.117817	-0.953496	-0.275024	-0.123314
49633		0.151811	-0.083821	-0.984849	0.261973	-0.957350	0.121863	-0.953060	-0.276504	-0.123377
49634		0.153745	-0.087607	-0.984219	0.261590	-0.956914	0.126040	-0.952855	-0.276840	-0.124204
49635		0.155549	-0.091434	-0.983588	0.259946	-0.956825	0.130055	-0.953012	-0.275910	-0.125065
49636		0.157737	-0.095394	-0.982863	0.258406	-0.956653	0.134321	-0.953072	-0.275165	-0.126249
49637		0.159901	-0.099421	-0.982114	0.256863	-0.956451	0.138644	-0.953128	-0.274438	-0.127400
49638		0.162159	-0.103635	-0.981307	0.256022	-0.955995	0.143269	-0.952973	-0.274468	-0.128490
49639		0.164415	-0.107828	-0.980480	0.255701	-0.955369	0.147945	-0.952672	-0.275034	-0.129505
49640		0.166976	-0.112195	-0.979557	0.254307	-0.954988	0.152730	-0.952600	-0.274611	-0.130928
49641		0.169750	-0.116481	-0.978579	0.252077	-0.954824	0.157380	-0.952702	-0.273393	-0.132719
49642		0.172554	-0.121156	-0.977521	0.251289	-0.954153	0.162618	-0.952407	-0.273701	-0.134197
49643		0.175280	-0.126055	-0.976415	0.250341	-0.953464	0.168032	-0.952159	-0.273890	-0.135566
49644		0.178066	-0.131390	-0.975207	0.248705	-0.952860	0.173791	-0.952071	-0.273485	-0.136995
49645		0.180812	-0.136860	-0.973949	0.246503	-0.952357	0.179589	-0.952126	-0.272553	-0.138462
49646		0.183680	-0.142655	-0.972580	0.244284	-0.951750	0.185735	-0.952149	-0.271701	-0.139969
49647		0.186652	-0.148410	-0.971152	0.240355	-0.951585	0.191615	-0.952571	-0.269186	-0.141944
49648		0.189586	-0.154513	-0.969630	0.237179	-0.951088	0.197932	-0.952787	-0.267501	-0.143666
49649		0.192445	-0.160713	-0.968058	0.233994	-0.950527	0.204319	-0.953002	-0.265840	-0.145318
49650		0.195336	-0.167308	-0.966360	0.231773	-0.949555	0.211248	-0.952956	-0.265241	-0.146704
49651		0.198059	-0.174022	-0.964618	0.230203	-0.948330	0.218350	-0.952774	-0.265304	-0.147765
49652		0.200830	-0.181149	-0.962732	0.229638	-0.946666	0.226030	-0.952331	-0.266473	-0.148520
49653		0.203981	-0.188355	-0.960684	0.228463	-0.945062	0.233801	-0.951943	-0.267172	-0.149743
49654		0.207493	-0.195854	-0.958430	0.225962	-0.943661	0.241755	-0.951781	-0.266731	-0.151547
49655		0.210918	-0.203431	-0.956101	0.223467	-0.942168	0.249764	-0.951618	-0.266337	-0.153260
49656		0.214598	-0.211380	-0.953555	0.221203	-0.940413	0.258249	-0.951324	-0.266349	-0.155053
49657		0.217946	-0.219587	-0.950937	0.218952	-0.938522	0.266901	-0.951083	-0.266380	-0.156468
49658		0.221561	-0.228164	-0.948078	0.216649	-0.936426	0.275990	-0.950776	-0.266548	-0.158043
49659		0.224953	-0.236893	-0.945134	0.214296	-0.934216	0.285162	-0.950512	-0.266687	-0.159389
49660		0.228534	-0.245956	-0.941954	0.212460	-0.931638	0.294808	-0.950070	-0.267501	-0.160656
49661		0.232063	-0.255135	-0.938644	0.211232	-0.928741	0.304666	-0.949488	-0.268974	-0.161634
49662		0.235874	-0.264730	-0.935030	0.210149	-0.925517	0.315049	-0.948789	-0.270808	-0.162672
49663		0.239636	-0.274500	-0.931249	0.208875	-0.922158	0.325569	-0.948128	-0.272533	-0.163646
49664		0.243714	-0.284644	-0.927136	0.208209	-0.918316	0.336667	-0.947234	-0.275089	-0.164541
49665		0.248041	-0.294954	-0.922755	0.207033	-0.914376	0.347927	-0.946368	-0.277341	-0.165738
49666		0.253085	-0.305623	-0.917901	0.205693	-0.910098	0.359739	-0.945324	-0.279850	-0.167468
49667		0.258476	-0.316354	-0.912749	0.204153	-0.905628	0.371699	-0.944199	-0.282415	-0.169499
49668		0.264868	-0.327286	-0.907044	0.203033	-0.900624	0.384258	-0.942668	-0.285937	-0.172096
49669		0.271722	-0.338147	-0.901013	0.203178	-0.894978	0.397155	-0.940684	-0.290982	-0.174481
49670		0.279706	-0.349038	-0.894392	0.205507	-0.888217	0.410897	-0.937833	-0.298734	-0.176710
49671		0.288364	-0.359662	-0.887406	0.210134	-0.880412	0.425110	-0.934179	-0.309060	-0.178302
49672		0.298234	-0.370212	-0.879772	0.217820	-0.870999	0.440359	-0.929306	-0.322962	-0.179122
49673		0.308843	-0.380384	-0.871736	0.228517	-0.860019	0.456232	-0.923253	-0.340111	-0.178687
49674		0.320648	-0.390308	-0.863044	0.241380	-0.847401	0.472914	-0.915926	-0.359960	-0.177505
49675		0.333010	-0.399703	-0.854015	0.254591	-0.833958	0.489590	-0.907903	-0.380463	-0.175955
49676		0.346847	-0.408556	-0.844263	0.267837	-0.819515	0.506615	-0.898866	-0.401843	-0.174820
49677		0.361262	-0.416772	-0.834141	0.280188	-0.804697	0.523409	-0.889373	-0.422804	-0.173932
49678		0.376567	-0.424727	-0.823289	0.291616	-0.789180	0.540514	-0.879294	-0.443624	-0.173323
49679		0.391352	-0.432410	-0.812321	0.300934	-0.774057	0.557023	-0.869645	-0.462447	-0.172801
49680		0.405587	-0.440218	-0.801067	0.307733	-0.759464	0.573163	-0.860697	-0.478982	-0.172559
49681		0.417910	-0.448451	-0.790091	0.311815	-0.746043	0.588381	-0.853301	-0.492252	-0.171945
49682		0.428037	-0.458137	-0.779034	0.318295	-0.730344	0.604389	-0.845856	-0.506663	-0.166792
49683		0.436108	-0.468587	-0.768268	0.330537	-0.710645	0.621071	-0.836992	-0.524795	-0.155032
49684		0.442570	-0.479257	-0.757921	0.337019	-0.694344	0.635849	-0.830993	-0.536842	-0.145778
49685		0.448401	-0.488427	-0.748583	0.344117	-0.678612	0.648899	-0.824936	-0.548567	-0.136214
49686		0.453476	-0.495803	-0.740634	0.352807	-0.663252	0.660018	-0.818466	-0.560603	-0.125846
49687		0.456489	-0.501149	-0.735165	0.361769	-0.650345	0.667963	-0.812860	-0.570878	-0.115576
49688		0.458517	-0.504417	-0.731660	0.374431	-0.637008	0.673811	-0.805955	-0.582910	-0.103210
49689		0.458869	-0.505541	-0.730663	0.388306	-0.625556	0.676681	-0.799160	-0.594229	-0.090744
49690		0.458756	-0.504188	-0.731668	0.401447	-0.616994	0.676874	-0.792706	-0.604246	-0.080645
49691		0.457570	-0.500197	-0.735142	0.413639	-0.612121	0.673951	-0.787104	-0.612463	-0.073187
49692		0.455514	-0.494006	-0.740584	0.424859	-0.610416	0.668496	-0.782306	-0.619153	-0.068170
49693		0.451501	-0.485664	-0.748517	0.434593	-0.612961	0.659854	-0.779279	-0.623225	-0.065686
49694		0.445923	-0.475713	-0.758189	0.443163	-0.618617	0.648784	-0.777663	-0.625308	-0.065037
49695		0.438004	-0.464478	-0.769683	0.450658	-0.627381	0.635059	-0.777856	-0.625023	-0.065475
49696		0.428578	-0.452145	-0.782231	0.457959	-0.637606	0.619461	-0.778842	-0.623717	-0.066200
49697		0.417083	-0.438662	-0.796001	0.466094	-0.648645	0.601677	-0.780255	-0.621961	-0.066081
49698		0.404453	-0.423875	-0.810399	0.475811	-0.659218	0.582268	-0.781039	-0.621097	-0.064938
49699		0.389904	-0.407541	-0.825764	0.487162	-0.669683	0.560534	-0.781440	-0.620835	-0.062574
49700		0.373924	-0.389901	-0.841521	0.499127	-0.680144	0.536914	-0.781699	-0.620791	-0.059712
49701		0.355807	-0.370929	-0.857795	0.510395	-0.691764	0.510842	-0.782878	-0.619576	-0.056815
49702		0.336345	-0.350947	-0.873904	0.520115	-0.704377	0.483047	-0.785081	-0.617001	-0.054381
49703		0.315463	-0.329203	-0.890005	0.526931	-0.719240	0.452810	-0.789194	-0.611816	-0.053426
49704		0.293918	-0.305825	-0.905584	0.530758	-0.735722	0.420725	-0.794926	-0.604305	-0.053923
49705		0.270959	-0.280845	-0.920710	0.531967	-0.753470	0.386386	-0.802242	-0.594482	-0.054760
49706		0.247228	-0.254840	-0.934845	0.531844	-0.770782	0.350768	-0.809951	-0.583911	-0.055024
49707		0.222131	-0.227612	-0.948077	0.530463	-0.787655	0.313383	-0.818087	-0.572532	-0.054223
49708		0.196409	-0.199558	-0.960000	0.528698	-0.802997	0.275089	-0.825774	-0.561580	-0.052209
49709		0.169528	-0.170638	-0.970640	0.526486	-0.816898	0.235564	-0.833110	-0.550963	-0.048649
49710		0.142409	-0.141635	-0.979622	0.523801	-0.828985	0.196001	-0.839852	-0.541039	-0.043866
49711		0.115285	-0.112387	-0.986954	0.520284	-0.839554	0.156376	-0.846176	-0.531524	-0.038315
49712		0.089002	-0.083530	-0.992523	0.515920	-0.848516	0.117674	-0.852001	-0.522536	-0.032424
49713		0.063226	-0.054613	-0.996504	0.509822	-0.856618	0.079294	-0.857953	-0.513053	-0.026317
49714		0.038412	-0.025953	-0.998925	0.502261	-0.863707	0.041753	-0.863863	-0.503325	-0.020141
49715		0.013924	0.002962	-0.999899	0.493130	-0.869945	0.004290	-0.869844	-0.493140	-0.013574
49716		-0.009926	0.031489	-0.999455	0.483836	-0.874560	-0.032359	-0.875103	-0.483893	-0.006555
49717		-0.033414	0.060001	-0.997639	0.474287	-0.877688	-0.068672	-0.879736	-0.475462	0.000869
49718		-0.055864	0.087927	-0.994559	0.465605	-0.878878	-0.103853	-0.883228	-0.468873	0.008158
49719		-0.077503	0.115582	-0.990270	0.457335	-0.878471	-0.138326	-0.885911	-0.463605	0.015225
49720		-0.097827	0.142218	-0.984989	0.450598	-0.876147	-0.171255	-0.887351	-0.460588	0.021628
49721		-0.117250	0.168234	-0.978749	0.445579	-0.871867	-0.203241	-0.887531	-0.459940	0.027265
49722		-0.135720	0.193063	-0.971755	0.442789	-0.865603	-0.233815	-0.886294	-0.462016	0.031993
49723		-0.153225	0.217499	-0.963959	0.441256	-0.857768	-0.263678	-0.884203	-0.465755	0.035459
49724		-0.169192	0.241220	-0.955608	0.440762	-0.848708	-0.292273	-0.881535	-0.470646	0.037274
49725		-0.183918	0.264145	-0.946785	0.439472	-0.839484	-0.319579	-0.879226	-0.474862	0.038312
49726		-0.196628	0.285486	-0.937995	0.437513	-0.830598	-0.344513	-0.877450	-0.478126	0.038415
49727		-0.207475	0.305303	-0.929379	0.434516	-0.822424	-0.367170	-0.876442	-0.480008	0.037973
49728		-0.216480	0.322913	-0.921338	0.431661	-0.814801	-0.386998	-0.875674	-0.481483	0.036999
49729		-0.224112	0.338547	-0.913871	0.428771	-0.807839	-0.404416	-0.875174	-0.482476	0.035887
49730		-0.230654	0.351596	-0.907292	0.426776	-0.801406	-0.419059	-0.874449	-0.483868	0.034795
49731		-0.236095	0.362433	-0.901610	0.426406	-0.795097	-0.431275	-0.873177	-0.486274	0.033175
49732		-0.239945	0.370786	-0.897187	0.429439	-0.788303	-0.440637	-0.870637	-0.491015	0.029919
49733		-0.242261	0.377187	-0.893890	0.435626	-0.780954	-0.447595	-0.866914	-0.497836	0.024882
49734		-0.243027	0.381417	-0.891885	0.444976	-0.773166	-0.451897	-0.861936	-0.506691	0.018178
49735		-0.242264	0.384045	-0.890964	0.456018	-0.765488	-0.453956	-0.856362	-0.516273	0.010319
49736		-0.240168	0.384424	-0.891368	0.467469	-0.758958	-0.453272	-0.850760	-0.525549	0.002572
49737		-0.236479	0.382960	-0.892983	0.478603	-0.753912	-0.450062	-0.845587	-0.533814	-0.005001
49738		-0.230967	0.379485	-0.895905	0.488891	-0.750851	-0.444081	-0.841213	-0.540568	-0.012105
49739		-0.223772	0.374380	-0.899870	0.497098	-0.750327	-0.435779	-0.838343	-0.544839	-0.018201
49740		-0.214909	0.367402	-0.904892	0.502568	-0.752847	-0.425027	-0.837401	-0.546112	-0.022851
49741		-0.204565	0.358891	-0.910687	0.504501	-0.758616	-0.412286	-0.838827	-0.543782	-0.025875
49742		-0.192817	0.348499	-0.917262	0.503580	-0.767162	-0.397328	-0.842157	-0.538527	-0.027575
49743		-0.179657	0.337223	-0.924123	0.499111	-0.778269	-0.381031	-0.847709	-0.529695	-0.028490
49744		-0.165449	0.325334	-0.931013	0.488597	-0.792987	-0.363930	-0.856679	-0.515102	-0.027759
49745		-0.151217	0.314216	-0.937231	0.475027	-0.808382	-0.347661	-0.866881	-0.497782	-0.027020
49746		-0.138161	0.304757	-0.942356	0.457853	-0.824054	-0.333625	-0.878227	-0.477555	-0.025682
49747		-0.125860	0.299060	-0.945898	0.435215	-0.840182	-0.323546	-0.891486	-0.452390	-0.024411
49748		-0.115315	0.295963	-0.948213	0.414696	-0.853070	-0.316699	-0.902624	-0.429740	-0.024363
49749		-0.107742	0.292737	-0.950104	0.396940	-0.863523	-0.311073	-0.911499	-0.410650	-0.023161
49750		-0.101893	0.287038	-0.952485	0.375837	-0.875399	-0.304013	-0.921067	-0.388956	-0.018682
49751		-0.094941	0.279709	-0.955379	0.349213	-0.889368	-0.295086	-0.932221	-0.361646	-0.013240
49753		-0.077099	0.262682	-0.961797	0.304723	-0.912300	-0.273590	-0.949315	-0.314175	-0.009707
49754		-0.067210	0.252746	-0.965195	0.294572	-0.919233	-0.261223	-0.953263	-0.301877	-0.012670
49757		-0.035093	0.218414	-0.975225	0.311614	-0.924786	-0.218331	-0.949561	-0.311555	-0.035608
49758		-0.024615	0.207647	-0.977894	0.321809	-0.924477	-0.204405	-0.946485	-0.319727	-0.044066
49759		-0.014203	0.197881	-0.980123	0.327502	-0.925232	-0.191544	-0.944744	-0.323713	-0.051665
49760		-0.005842	0.189604	-0.981843	0.331332	-0.926030	-0.180797	-0.943496	-0.326373	-0.057413
49761		0.000007	0.182787	-0.983153	0.336090	-0.925963	-0.172152	-0.941830	-0.330426	-0.061440
49762		0.005117	0.176901	-0.984215	0.340035	-0.925887	-0.164650	-0.940399	-0.333825	-0.064891
49763		0.011232	0.171332	-0.985149	0.345448	-0.925217	-0.156971	-0.938371	-0.338555	-0.069578
49764		0.017160	0.165150	-0.986119	0.353921	-0.923413	-0.148490	-0.935118	-0.346460	-0.074296
49765		0.023120	0.157948	-0.987177	0.367052	-0.919821	-0.138574	-0.929913	-0.359141	-0.079241
49766		0.028170	0.150163	-0.988260	0.381230	-0.915542	-0.128246	-0.924051	-0.373141	-0.083038
49767		0.032456	0.142725	-0.989230	0.393625	-0.911587	-0.118608	-0.918698	-0.385536	-0.085766
49768		0.036962	0.135834	-0.990042	0.399878	-0.909954	-0.109917	-0.915823	-0.391833	-0.087951
49769		0.041620	0.129129	-0.990754	0.402924	-0.909574	-0.101622	-0.914287	-0.394969	-0.089886
49770		0.046054	0.122826	-0.991359	0.405200	-0.909399	-0.093848	-0.913067	-0.397376	-0.091650
49771		0.049688	0.117438	-0.991836	0.401591	-0.911599	-0.087819	-0.914470	-0.393949	-0.092457
49772		0.053572	0.112146	-0.992247	0.395325	-0.914869	-0.082056	-0.916978	-0.387864	-0.093345
49773		0.057576	0.106994	-0.992591	0.390233	-0.917552	-0.076269	-0.918914	-0.382951	-0.094582
49774		0.061673	0.101720	-0.992900	0.387120	-0.919358	-0.070140	-0.919965	-0.380045	-0.096078
49776		0.070085	0.091059	-0.993376	0.386280	-0.920610	-0.057136	-0.919715	-0.379717	-0.099695
49777		0.073799	0.085812	-0.993574	0.388373	-0.920111	-0.050620	-0.918542	-0.382142	-0.101231
49778		0.077681	0.080821	-0.993697	0.388428	-0.920404	-0.044495	-0.918199	-0.382523	-0.102891
49779		0.081949	0.076182	-0.993721	0.386251	-0.921577	-0.038799	-0.918746	-0.380646	-0.104948
49780		0.085912	0.071484	-0.993735	0.385397	-0.922160	-0.033017	-0.918743	-0.380146	-0.106775
49781		0.089861	0.066720	-0.993717	0.386027	-0.922092	-0.027003	-0.918100	-0.381175	-0.108615
49782		0.093826	0.061965	-0.993658	0.386816	-0.921919	-0.020966	-0.917371	-0.382396	-0.110469
49783		0.097890	0.057153	-0.993555	0.387103	-0.921916	-0.014893	-0.916825	-0.383150	-0.112370
49784		0.103441	0.052918	-0.993227	0.383192	-0.923622	-0.009301	-0.917858	-0.379635	-0.115818
49785		0.108831	0.048579	-0.992872	0.377581	-0.925968	-0.003918	-0.919559	-0.374464	-0.119117
49786		0.113928	0.043854	-0.992521	0.373773	-0.927518	0.001922	-0.920497	-0.371197	-0.122062
49787		0.118414	0.038703	-0.992210	0.371395	-0.928440	0.008108	-0.920893	-0.369462	-0.124314
49788		0.123208	0.033595	-0.991812	0.369553	-0.929097	0.014437	-0.921005	-0.368306	-0.126887
49789		0.127936	0.028280	-0.991379	0.368205	-0.929507	0.021002	-0.920900	-0.367718	-0.129330
49790		0.133219	0.022915	-0.990822	0.365470	-0.930413	0.027621	-0.921241	-0.365795	-0.132323
49791		0.138252	0.017078	-0.990250	0.363867	-0.930803	0.034747	-0.921134	-0.365123	-0.134899
49792		0.143206	0.011019	-0.989632	0.363262	-0.930731	0.042203	-0.920615	-0.365539	-0.137289
49793		0.148195	0.004762	-0.988947	0.362173	-0.930780	0.049790	-0.920255	-0.365549	-0.139662
49794		0.153214	-0.001718	-0.988192	0.361278	-0.930675	0.057632	-0.919785	-0.365842	-0.141972
49795		0.158384	-0.008345	-0.987342	0.360622	-0.930394	0.065713	-0.919166	-0.366465	-0.144351
49796		0.163680	-0.015055	-0.986399	0.360010	-0.930014	0.073933	-0.918478	-0.367214	-0.146805
49797		0.168906	-0.021977	-0.985387	0.359791	-0.929387	0.082400	-0.917617	-0.368451	-0.149072
49798		0.174213	-0.029118	-0.984277	0.360110	-0.928441	0.091204	-0.916499	-0.370337	-0.151261
49799		0.179227	-0.036598	-0.983127	0.360650	-0.927296	0.100267	-0.915319	-0.372535	-0.152998
49800		0.184278	-0.044295	-0.981876	0.362021	-0.925692	0.109704	-0.913774	-0.375676	-0.154549
49801		0.189293	-0.052253	-0.980529	0.363480	-0.923918	0.119407	-0.912168	-0.379006	-0.155898
49802		0.194222	-0.060470	-0.979092	0.364329	-0.922260	0.129232	-0.910792	-0.381812	-0.157092
49803		0.199085	-0.068820	-0.977563	0.364836	-0.920621	0.139112	-0.909538	-0.384345	-0.158174
49804		0.203840	-0.077294	-0.975948	0.365766	-0.918678	0.149153	-0.908111	-0.387372	-0.158992
49805		0.208426	-0.085871	-0.974261	0.367933	-0.916078	0.159456	-0.906192	-0.391698	-0.159339
49806		0.212895	-0.094532	-0.972491	0.372107	-0.912460	0.170157	-0.903445	-0.398096	-0.159082
49807		0.217437	-0.103310	-0.970592	0.376848	-0.908396	0.181113	-0.900393	-0.405146	-0.158587
49809		0.226635	-0.121107	-0.966421	0.384395	-0.900573	0.202999	-0.894917	-0.417494	-0.157549
49810		0.231221	-0.130260	-0.964142	0.388123	-0.896373	0.214185	-0.892131	-0.423730	-0.156704
49811		0.236195	-0.139390	-0.961656	0.390061	-0.892821	0.225216	-0.889980	-0.428300	-0.156509
49812		0.241209	-0.148665	-0.959019	0.391434	-0.889344	0.236317	-0.888030	-0.432395	-0.156326
49815		0.257753	-0.177523	-0.949762	0.392289	-0.879085	0.270775	-0.882991	-0.442374	-0.156947
49816		0.263729	-0.187488	-0.946200	0.391774	-0.875557	0.282687	-0.881453	-0.445250	-0.157457
49818		0.276640	-0.207977	-0.938198	0.389326	-0.868332	0.307287	-0.878576	-0.450273	-0.159244
49819		0.283601	-0.218505	-0.933716	0.387433	-0.864578	0.320002	-0.877192	-0.452505	-0.160539
49820		0.291041	-0.229162	-0.928859	0.384922	-0.860791	0.332977	-0.875860	-0.454448	-0.162316
49821		0.298879	-0.239826	-0.923664	0.382086	-0.856863	0.346116	-0.874461	-0.456366	-0.164464
49822		0.307164	-0.250758	-0.918025	0.379447	-0.852392	0.359790	-0.872737	-0.458856	-0.166675
49823		0.315844	-0.261783	-0.911982	0.376452	-0.847717	0.373711	-0.870934	-0.461352	-0.169198
49824		0.325185	-0.272866	-0.905428	0.373070	-0.842789	0.387977	-0.868949	-0.463952	-0.172264
49825		0.334879	-0.283875	-0.898483	0.370676	-0.836968	0.402596	-0.866288	-0.467867	-0.175057
49826		0.345171	-0.294854	-0.891021	0.369762	-0.829862	0.417857	-0.862632	-0.473697	-0.177419
49827		0.355840	-0.305658	-0.883148	0.370399	-0.821482	0.433557	-0.858011	-0.481394	-0.179101
49828		0.367197	-0.316408	-0.874673	0.373161	-0.811257	0.450125	-0.852008	-0.491679	-0.179820
49829		0.378557	-0.327139	-0.865838	0.378560	-0.798913	0.467365	-0.844622	-0.504696	-0.178592
49830		0.390566	-0.337870	-0.856330	0.385826	-0.784493	0.485499	-0.835821	-0.520014	-0.176037
49831		0.403225	-0.347952	-0.846368	0.393779	-0.768905	0.503710	-0.826043	-0.536391	-0.173025
49832		0.417180	-0.357337	-0.835626	0.400444	-0.753119	0.521973	-0.815846	-0.552379	-0.171092
49833		0.432367	-0.365584	-0.824262	0.405055	-0.737952	0.539775	-0.805599	-0.567252	-0.170985
49834		0.448480	-0.372709	-0.812376	0.408441	-0.722994	0.557185	-0.795011	-0.581694	-0.172019
49835		0.464024	-0.379001	-0.800650	0.412394	-0.707499	0.573913	-0.783973	-0.596492	-0.171999
49836		0.478327	-0.385161	-0.789211	0.417146	-0.691175	0.590141	-0.772782	-0.611497	-0.169939
49837		0.490230	-0.391129	-0.778905	0.421627	-0.675719	0.604678	-0.762828	-0.624838	-0.166347
49838		0.499780	-0.397760	-0.769420	0.424410	-0.661911	0.617859	-0.755047	-0.635343	-0.161997
49839		0.506693	-0.405129	-0.761008	0.427906	-0.648127	0.629943	-0.748438	-0.644827	-0.155045
49840		0.511672	-0.413025	-0.753394	0.434327	-0.632243	0.641583	-0.741318	-0.655499	-0.144113
49841		0.515041	-0.420739	-0.746801	0.442155	-0.615979	0.651973	-0.734324	-0.665994	-0.131222
49842		0.517873	-0.427713	-0.740857	0.448112	-0.602078	0.660831	-0.728700	-0.674213	-0.120137
49843		0.519830	-0.433567	-0.736068	0.453873	-0.589791	0.667942	-0.723724	-0.681298	-0.109806
49844		0.520981	-0.438473	-0.732339	0.460181	-0.578324	0.673628	-0.718897	-0.687956	-0.099519
49845		0.520735	-0.442176	-0.730285	0.467468	-0.568096	0.677304	-0.714359	-0.694080	-0.089124
49846		0.519306	-0.445027	-0.729570	0.474471	-0.559898	0.679258	-0.710773	-0.698902	-0.079606
49847		0.516475	-0.446927	-0.730418	0.481625	-0.553666	0.679331	-0.708019	-0.702645	-0.070703
49848		0.513273	-0.447426	-0.732367	0.489208	-0.548605	0.678018	-0.705142	-0.706288	-0.062700
49849		0.508828	-0.446808	-0.735837	0.496019	-0.546448	0.674804	-0.703605	-0.708348	-0.056423
49851		0.496566	-0.442142	-0.746949	0.505766	-0.551979	0.662963	-0.705424	-0.706986	-0.050474
49852		0.488523	-0.437358	-0.755025	0.510551	-0.558437	0.653824	-0.707589	-0.704887	-0.049516
49853		0.479776	-0.430669	-0.764421	0.515149	-0.566990	0.642763	-0.710237	-0.702172	-0.050169
49854		0.470466	-0.421420	-0.775285	0.519753	-0.577672	0.629406	-0.713105	-0.699071	-0.052741
49856		0.448556	-0.397001	-0.800742	0.527634	-0.605517	0.595778	-0.721388	-0.689738	-0.062137
49857		0.434465	-0.382654	-0.815363	0.531176	-0.622228	0.575052	-0.727387	-0.682941	-0.067080
49858		0.418894	-0.366542	-0.830767	0.534277	-0.640282	0.551894	-0.734218	-0.675045	-0.072376
49859		0.401725	-0.348452	-0.846876	0.537535	-0.658975	0.526125	-0.741399	-0.666583	-0.077422
49860		0.383141	-0.328975	-0.863121	0.542201	-0.676404	0.498493	-0.747811	-0.658978	-0.080788
49861		0.362026	-0.308913	-0.879494	0.548356	-0.692403	0.468918	-0.753819	-0.652036	-0.081274
49862		0.338963	-0.288220	-0.895563	0.555816	-0.706680	0.437804	-0.759060	-0.646168	-0.079341
49863		0.314004	-0.266707	-0.911191	0.564830	-0.718942	0.405080	-0.763131	-0.641865	-0.075106
49864		0.287775	-0.244383	-0.925993	0.575659	-0.728586	0.371185	-0.765377	-0.639874	-0.068988
49865		0.259946	-0.221012	-0.939990	0.586953	-0.736809	0.335557	-0.766756	-0.638957	-0.061807
49866		0.231171	-0.196639	-0.952834	0.598015	-0.743791	0.298585	-0.767423	-0.638833	-0.054351
49867		0.201785	-0.170847	-0.964414	0.608892	-0.749381	0.260152	-0.767159	-0.639719	-0.047186
49868		0.172349	-0.143824	-0.974480	0.619597	-0.753238	0.220755	-0.765765	-0.641831	-0.040707
49869		0.142552	-0.115676	-0.983005	0.629258	-0.756013	0.180218	-0.764011	-0.644254	-0.034981
49870		0.112763	-0.086772	-0.989826	0.636983	-0.758235	0.139036	-0.762585	-0.646181	-0.030229
49871		0.082951	-0.057181	-0.994912	0.641927	-0.760575	0.097234	-0.762265	-0.646727	-0.026384
49872		0.053598	-0.027079	-0.998195	0.643480	-0.763466	0.055263	-0.763584	-0.645280	-0.023495
49873		0.024143	0.003569	-0.999702	0.639984	-0.768283	0.012713	-0.768009	-0.640100	-0.020832
49874		-0.005271	0.034060	-0.999406	0.632221	-0.774218	-0.029720	-0.774770	-0.632002	-0.017453
49875		-0.034230	0.064508	-0.997330	0.621226	-0.780336	-0.071795	-0.782884	-0.622024	-0.013363
49876		-0.062256	0.094312	-0.993594	0.608621	-0.785419	-0.112686	-0.791015	-0.611737	-0.008503
49877		-0.090517	0.122560	-0.988325	0.595726	-0.788605	-0.152353	-0.798071	-0.602562	-0.001630
49878		-0.118941	0.148166	-0.981784	0.583601	-0.789534	-0.189855	-0.803282	-0.595552	0.007438
49879		-0.146705	0.171931	-0.974124	0.574843	-0.786605	-0.225407	-0.805005	-0.593036	0.016565
49880		-0.173374	0.193699	-0.965620	0.571276	-0.778884	-0.258811	-0.802237	-0.596507	0.024382
49881		-0.199303	0.213725	-0.956347	0.572303	-0.766811	-0.290636	-0.795454	-0.605245	0.030512
49882		-0.223579	0.232749	-0.946488	0.575648	-0.752088	-0.320924	-0.786537	-0.616596	0.034170
49883		-0.245875	0.251866	-0.936007	0.579093	-0.736204	-0.350221	-0.777301	-0.628146	0.035160
49884		-0.266085	0.269695	-0.925453	0.579858	-0.722154	-0.377170	-0.770041	-0.636991	0.035769
49885		-0.281884	0.286863	-0.915560	0.577324	-0.711455	-0.400660	-0.766315	-0.641515	0.034935
49886		-0.293721	0.302550	-0.906748	0.573497	-0.703123	-0.420379	-0.764741	-0.643491	0.033011
49887		-0.303215	0.315746	-0.899091	0.569020	-0.696837	-0.436617	-0.764380	-0.643990	0.031625
49888		-0.310779	0.325770	-0.892911	0.564731	-0.692345	-0.449152	-0.764523	-0.643842	0.031194
49889		-0.316634	0.332449	-0.888381	0.561078	-0.689509	-0.458005	-0.764810	-0.643471	0.031792
49890		-0.319717	0.336743	-0.885655	0.559249	-0.687471	-0.463276	-0.764867	-0.643419	0.031473
49891		-0.320419	0.338716	-0.884649	0.559544	-0.685878	-0.465276	-0.764357	-0.644083	0.030241
49892		-0.319081	0.338051	-0.885387	0.562321	-0.684475	-0.463993	-0.762878	-0.645923	0.028310
49893		-0.315882	0.334854	-0.887745	0.566844	-0.683713	-0.459591	-0.760859	-0.648389	0.026162
49894		-0.310339	0.329497	-0.891696	0.572093	-0.684399	-0.452004	-0.759210	-0.650407	0.023893
49895		-0.302656	0.322002	-0.897059	0.576692	-0.687489	-0.441345	-0.758832	-0.650902	0.022377
49896		-0.293123	0.312673	-0.903501	0.579971	-0.693127	-0.428029	-0.760074	-0.649470	0.021831
49897		-0.281837	0.301929	-0.910718	0.581841	-0.700961	-0.412449	-0.762908	-0.646137	0.021882
49898		-0.268933	0.290298	-0.918369	0.581569	-0.711113	-0.395089	-0.767758	-0.640348	0.022413
49899		-0.255043	0.278823	-0.925857	0.576896	-0.724552	-0.377116	-0.775980	-0.630303	0.023939
49900		-0.240824	0.268759	-0.932616	0.567220	-0.740747	-0.359937	-0.787569	-0.615680	0.025944
49901		-0.227364	0.260489	-0.938324	0.556037	-0.756313	-0.344693	-0.799455	-0.600114	0.027117
49902		-0.214844	0.255005	-0.942770	0.544697	-0.769950	-0.332388	-0.810646	-0.584935	0.026518
49903		-0.204922	0.251419	-0.945937	0.534829	-0.780644	-0.323348	-0.819735	-0.572175	0.025505
49904		-0.197544	0.248625	-0.948241	0.526978	-0.788715	-0.316582	-0.826602	-0.562241	0.024786
49905		-0.190586	0.247076	-0.950069	0.520294	-0.795270	-0.311191	-0.832449	-0.553624	0.023016
49906		-0.182700	0.246082	-0.951874	0.513256	-0.801898	-0.305823	-0.838563	-0.544429	0.020204
49907		-0.174070	0.243884	-0.954055	0.510962	-0.805843	-0.299223	-0.841794	-0.539571	0.015658
49908		-0.165268	0.239951	-0.956614	0.510206	-0.809276	-0.291139	-0.844024	-0.536186	0.011323
49909		-0.156523	0.234448	-0.959445	0.509436	-0.813062	-0.281787	-0.846153	-0.532882	0.007827
49910		-0.146658	0.227848	-0.962589	0.509787	-0.816521	-0.270943	-0.847708	-0.530451	0.003596
49911		-0.134869	0.220859	-0.965936	0.512628	-0.818689	-0.258767	-0.847952	-0.530065	-0.002802
49912		-0.121916	0.213639	-0.969275	0.516761	-0.820098	-0.245758	-0.847405	-0.530846	-0.010417
49913		-0.109497	0.205598	-0.972492	0.521285	-0.821157	-0.232298	-0.846329	-0.532381	-0.017261
49914		-0.097763	0.197442	-0.975428	0.522927	-0.823725	-0.219145	-0.846753	-0.531502	-0.022718
49915		-0.086542	0.189869	-0.977988	0.522238	-0.827337	-0.206835	-0.848397	-0.528643	-0.027558
49916		-0.077170	0.182722	-0.980131	0.519257	-0.831848	-0.195961	-0.851127	-0.524062	-0.030686
49917		-0.069238	0.176121	-0.981930	0.515736	-0.836235	-0.186354	-0.853945	-0.519320	-0.032933
49918		-0.061247	0.170562	-0.983442	0.511802	-0.840535	-0.177651	-0.856917	-0.514208	-0.035814
49919		-0.052451	0.165746	-0.984773	0.506414	-0.845511	-0.169280	-0.860694	-0.507581	-0.039588
49920		-0.043778	0.160862	-0.986006	0.501615	-0.849988	-0.160943	-0.863982	-0.501641	-0.043480
49921		-0.035179	0.155678	-0.987181	0.503504	-0.850505	-0.152067	-0.863276	-0.502400	-0.048464
49922		-0.026609	0.150534	-0.988247	0.508112	-0.849328	-0.143054	-0.860880	-0.505946	-0.053888
49923		-0.018237	0.145202	-0.989234	0.515629	-0.846311	-0.133729	-0.856618	-0.512517	-0.059436
49924		-0.010308	0.139961	-0.990103	0.523792	-0.842688	-0.124576	-0.851784	-0.519892	-0.064624
49925		-0.002858	0.134332	-0.990932	0.530765	-0.839632	-0.115353	-0.847514	-0.526282	-0.068899
49926		0.004440	0.128695	-0.991674	0.536326	-0.837296	-0.106259	-0.844000	-0.531388	-0.072740
49927		0.011305	0.122810	-0.992366	0.539766	-0.836170	-0.097331	-0.841739	-0.534545	-0.075741
49928		0.017705	0.117082	-0.992964	0.541404	-0.836047	-0.088926	-0.840576	-0.536021	-0.078190
49929		0.024186	0.111496	-0.993470	0.540021	-0.837757	-0.080874	-0.841304	-0.534539	-0.080473
49930		0.030839	0.106435	-0.993841	0.536384	-0.840777	-0.073399	-0.843411	-0.530817	-0.083019
49931		0.037070	0.101525	-0.994142	0.533555	-0.843169	-0.066212	-0.844952	-0.527975	-0.085425
49932		0.042708	0.097081	-0.994360	0.529903	-0.845945	-0.059832	-0.846982	-0.524359	-0.087572
49933		0.048507	0.093376	-0.994449	0.525511	-0.849065	-0.054092	-0.849403	-0.519970	-0.090255
49934		0.053908	0.090220	-0.994462	0.523679	-0.850519	-0.048773	-0.850209	-0.518149	-0.093096
49935		0.059020	0.087233	-0.994438	0.524330	-0.850405	-0.043479	-0.849467	-0.518847	-0.095930
49936		0.063928	0.084591	-0.994363	0.524865	-0.850310	-0.038593	-0.848781	-0.519439	-0.098757
49937		0.068670	0.082031	-0.994261	0.526144	-0.849725	-0.033767	-0.847618	-0.520806	-0.101511
49938		0.073136	0.079862	-0.994119	0.528307	-0.848548	-0.029301	-0.845898	-0.523057	-0.104251
49939		0.077314	0.077619	-0.993981	0.530183	-0.847516	-0.024943	-0.844351	-0.525063	-0.106678
49940		0.081413	0.075587	-0.993810	0.530222	-0.847598	-0.021031	-0.843941	-0.525228	-0.109084
49941		0.085766	0.073383	-0.993609	0.528728	-0.848621	-0.017036	-0.844447	-0.523887	-0.111583
49942		0.089950	0.071026	-0.993410	0.527412	-0.849511	-0.012982	-0.844835	-0.522768	-0.113874
49943		0.094986	0.068731	-0.993103	0.524006	-0.851669	-0.008824	-0.846402	-0.519554	-0.116912
49944		0.100301	0.066540	-0.992730	0.519712	-0.854328	-0.004754	-0.848433	-0.515457	-0.120272
49945		0.105741	0.064001	-0.992332	0.517403	-0.855742	-0.000058	-0.849183	-0.513430	-0.123601
49946		0.111038	0.061277	-0.991925	0.515572	-0.856833	0.004783	-0.849621	-0.511940	-0.126733
49947		0.116336	0.058243	-0.991501	0.512855	-0.858420	0.009749	-0.850556	-0.509630	-0.129735
49948		0.121857	0.055366	-0.991002	0.509028	-0.860628	0.014509	-0.852080	-0.506216	-0.133057
49949		0.127377	0.052113	-0.990484	0.505452	-0.862632	0.019616	-0.853401	-0.503141	-0.136220
49950		0.132619	0.048657	-0.989972	0.502870	-0.864003	0.024900	-0.854128	-0.501129	-0.139052
49951		0.138382	0.045176	-0.989348	0.499368	-0.865860	0.030310	-0.855267	-0.498243	-0.142379
49952		0.143980	0.041588	-0.988706	0.495343	-0.867966	0.035625	-0.856682	-0.494878	-0.145570
49953		0.149642	0.037771	-0.988019	0.491977	-0.869630	0.041268	-0.857652	-0.492257	-0.148715
49954		0.155089	0.033991	-0.987316	0.488168	-0.871501	0.046678	-0.858860	-0.489215	-0.151754
49955		0.160385	0.029984	-0.986599	0.485464	-0.872685	0.052397	-0.859419	-0.487362	-0.154522
49956		0.165457	0.025963	-0.985875	0.483986	-0.873136	0.058232	-0.859291	-0.486784	-0.157032
49957		0.170694	0.021738	-0.985084	0.483040	-0.873224	0.064431	-0.858799	-0.486833	-0.159554
49958		0.176056	0.017673	-0.984222	0.481921	-0.873372	0.070523	-0.858345	-0.486733	-0.162279
49959		0.181582	0.013575	-0.983282	0.480957	-0.873378	0.076760	-0.857735	-0.486854	-0.165119
49960		0.186860	0.009534	-0.982340	0.480399	-0.873123	0.082907	-0.856913	-0.487408	-0.167732
49961		0.192161	0.005385	-0.981349	0.480407	-0.872489	0.089282	-0.855735	-0.488604	-0.170246
49962		0.197123	0.001116	-0.980378	0.481574	-0.871150	0.095838	-0.853949	-0.491016	-0.172261
49963		0.202054	-0.003382	-0.979368	0.484479	-0.868723	0.102953	-0.851148	-0.495286	-0.173891
49964		0.207161	-0.007750	-0.978276	0.487690	-0.866042	0.110135	-0.848082	-0.499912	-0.175631
49965		0.212479	-0.012343	-0.977088	0.490880	-0.863247	0.117653	-0.844920	-0.504631	-0.177363
49966		0.217718	-0.016872	-0.975866	0.493740	-0.860574	0.125033	-0.841915	-0.509046	-0.179032
49967		0.223005	-0.021533	-0.974579	0.496283	-0.857988	0.132517	-0.839030	-0.513219	-0.180649
49968		0.228034	-0.026311	-0.973298	0.498692	-0.855404	0.139963	-0.836246	-0.517292	-0.181940
49969		0.232799	-0.031430	-0.972017	0.502055	-0.852113	0.147796	-0.832914	-0.522413	-0.182591
49970		0.237480	-0.036338	-0.970713	0.505154	-0.848930	0.155362	-0.829713	-0.527255	-0.183248
49971		0.242492	-0.040926	-0.969290	0.508334	-0.845617	0.162877	-0.826314	-0.532219	-0.184251
49972		0.247402	-0.045156	-0.967860	0.511608	-0.842219	0.170071	-0.822830	-0.537241	-0.185265
49973		0.252234	-0.049147	-0.966417	0.515400	-0.838438	0.177158	-0.818988	-0.542777	-0.186152
49974		0.256803	-0.052694	-0.965026	0.519661	-0.834358	0.183846	-0.814865	-0.548699	-0.186882
49975		0.261192	-0.056114	-0.963655	0.524334	-0.829942	0.190445	-0.810464	-0.555020	-0.187351
49976		0.265308	-0.059386	-0.962333	0.529544	-0.825112	0.196909	-0.805727	-0.561839	-0.187461
49977		0.269538	-0.062546	-0.960957	0.534628	-0.820258	0.203346	-0.800951	-0.568564	-0.187651
49978		0.273406	-0.065732	-0.959650	0.539532	-0.815466	0.209570	-0.796338	-0.575060	-0.187489
49979		0.277229	-0.069158	-0.958312	0.544456	-0.810502	0.215996	-0.791651	-0.581639	-0.187041
49980		0.280861	-0.072488	-0.957007	0.549538	-0.805357	0.222279	-0.786845	-0.588341	-0.186358
49981		0.284590	-0.075937	-0.955637	0.555387	-0.799462	0.228922	-0.781379	-0.595898	-0.185345
49982		0.288413	-0.079336	-0.954214	0.561254	-0.793401	0.235606	-0.775766	-0.603507	-0.184299
49983		0.292569	-0.082678	-0.952664	0.566813	-0.787377	0.242405	-0.770147	-0.610903	-0.183499
49984		0.296601	-0.086150	-0.951108	0.571978	-0.781512	0.249159	-0.764767	-0.617913	-0.182521
49985		0.300776	-0.089837	-0.949454	0.577513	-0.775109	0.256290	-0.758954	-0.625409	-0.181252
49986		0.304947	-0.093551	-0.947764	0.582548	-0.768955	0.263338	-0.753423	-0.632421	-0.179992
49987		0.309112	-0.097570	-0.946007	0.587506	-0.762626	0.270626	-0.747855	-0.639439	-0.178414
49988		0.313521	-0.101506	-0.944140	0.591634	-0.756822	0.277831	-0.742748	-0.645691	-0.177225
49989		0.318168	-0.105603	-0.942134	0.595521	-0.750976	0.285289	-0.737647	-0.651831	-0.176048
49990		0.322893	-0.109536	-0.940075	0.599197	-0.745202	0.292639	-0.732601	-0.657781	-0.174987
49991		0.327904	-0.113586	-0.937858	0.602349	-0.739640	0.300180	-0.727774	-0.663348	-0.174113
49992		0.333096	-0.117515	-0.935541	0.605216	-0.734186	0.307707	-0.723022	-0.668701	-0.173433
49993		0.338473	-0.121683	-0.933075	0.608319	-0.728232	0.315637	-0.717903	-0.674442	-0.172465
49994		0.343974	-0.125778	-0.930517	0.611765	-0.721774	0.323706	-0.712338	-0.680604	-0.171325
49995		0.349751	-0.129997	-0.927780	0.616051	-0.714181	0.332304	-0.705801	-0.687783	-0.169701
49996		0.355741	-0.133849	-0.924950	0.620874	-0.705886	0.340940	-0.698544	-0.695564	-0.168009
49997		0.361824	-0.137350	-0.922073	0.626267	-0.696853	0.349550	-0.690560	-0.703940	-0.166120
49998		0.367948	-0.140352	-0.919193	0.632131	-0.687218	0.357970	-0.681927	-0.712764	-0.164140
49999		0.374296	-0.143062	-0.916207	0.638519	-0.676725	0.366520	-0.672455	-0.722203	-0.161948
50000		0.380801	-0.145207	-0.913184	0.645617	-0.665244	0.375006	-0.661944	-0.732370	-0.159577
50001		0.387559	-0.147031	-0.910044	0.653214	-0.652782	0.383650	-0.650469	-0.743140	-0.156949
50002		0.394462	-0.148266	-0.906872	0.661205	-0.639543	0.392164	-0.638129	-0.754322	-0.154241
50003		0.401622	-0.148954	-0.903611	0.669953	-0.624928	0.400785	-0.624390	-0.766341	-0.151193
50004		0.409154	-0.148550	-0.900292	0.679552	-0.608840	0.409295	-0.608935	-0.779260	-0.148162
50005		0.417333	-0.146832	-0.896813	0.690374	-0.590511	0.417948	-0.590946	-0.793560	-0.145071
50006		0.426035	-0.143533	-0.893249	0.702369	-0.569846	0.426561	-0.570239	-0.809120	-0.141961
50007		0.435330	-0.138598	-0.889538	0.714943	-0.547264	0.435154	-0.547123	-0.825405	-0.139150
50008		0.444788	-0.132085	-0.885842	0.728354	-0.522241	0.443582	-0.521214	-0.842507	-0.136082
50009		0.454468	-0.124169	-0.882066	0.742559	-0.494133	0.452149	-0.492001	-0.860474	-0.132365
50010		0.463962	-0.114817	-0.878383	0.757362	-0.462922	0.460549	-0.459502	-0.878931	-0.127821
50011		0.473153	-0.104365	-0.874776	0.772368	-0.428483	0.468882	-0.423762	-0.897502	-0.122131
50012		0.481591	-0.093120	-0.871435	0.787165	-0.391170	0.476819	-0.385281	-0.915595	-0.115083
50013		0.489411	-0.081137	-0.868270	0.801467	-0.350563	0.484516	-0.343695	-0.933018	-0.106540
50014		0.496219	-0.068452	-0.865495	0.814742	-0.307679	0.491455	-0.299936	-0.949025	-0.096906
50015		0.502268	-0.054993	-0.862962	0.826236	-0.263859	0.497707	-0.255071	-0.962992	-0.087090
50016		0.507319	-0.040739	-0.860795	0.835949	-0.219369	0.503058	-0.209326	-0.974791	-0.077235
50017		0.511586	-0.025432	-0.858855	0.843988	-0.172576	0.507841	-0.161133	-0.984668	-0.066823
50018		0.514508	-0.009020	-0.857438	0.850422	-0.122715	0.511589	-0.109835	-0.992401	-0.055467
50019		0.516314	0.007766	-0.856364	0.854512	-0.071029	0.514553	-0.056830	-0.997444	-0.043309
50020		0.516576	0.024347	-0.855895	0.856223	-0.021136	0.516173	-0.005523	-0.999480	-0.031765
50021		0.515275	0.041400	-0.856024	0.855895	0.026419	0.516475	0.043997	-0.998793	-0.021821
50022		0.511823	0.059619	-0.857020	0.854119	0.071856	0.515090	0.092291	-0.995632	-0.014144
50023		0.506285	0.078288	-0.858805	0.850953	0.116132	0.512242	0.139838	-0.990144	-0.007823
50024		0.498279	0.097026	-0.861570	0.846524	0.160332	0.507633	0.187391	-0.982283	-0.002244
50025		0.488345	0.115071	-0.865031	0.840460	0.204732	0.501708	0.234832	-0.972031	0.003268
50026		0.476588	0.131826	-0.869187	0.832425	0.250292	0.494391	0.282724	-0.959154	0.009551
50027		0.463648	0.147251	-0.873698	0.822021	0.296478	0.486192	0.330624	-0.943620	0.016418
50028		0.449186	0.161436	-0.878732	0.809192	0.343419	0.476730	0.378735	-0.925204	0.023627
50029		0.433843	0.173642	-0.884098	0.793508	0.391141	0.466212	0.426761	-0.903801	0.031908
50030		0.417645	0.183885	-0.889809	0.775511	0.438148	0.454543	0.473451	-0.879894	0.040385
50031		0.400730	0.192881	-0.895663	0.755064	0.484182	0.442093	0.518935	-0.853443	0.048388
50032		0.382783	0.200253	-0.901874	0.732511	0.529076	0.428377	0.562944	-0.824607	0.055834
50033		0.363962	0.206209	-0.908300	0.708093	0.572268	0.413658	0.605092	-0.793717	0.062268
50034		0.344019	0.210727	-0.915011	0.681895	0.613855	0.397745	0.645499	-0.760774	0.067484
50035		0.323718	0.213599	-0.921728	0.654502	0.652941	0.381177	0.683253	-0.726666	0.071567
50036		0.303215	0.214450	-0.928478	0.626293	0.689506	0.363785	0.718204	-0.691804	0.074760
50037		0.282836	0.213443	-0.935118	0.597601	0.723363	0.345861	0.750251	-0.656649	0.077039
50038		0.262528	0.210702	-0.941639	0.569216	0.754168	0.327450	0.779148	-0.621961	0.078055
50039		0.242398	0.206991	-0.947839	0.541065	0.782090	0.309165	0.805290	-0.587783	0.077581
50040		0.222014	0.202471	-0.953790	0.513109	0.807539	0.290861	0.829114	-0.553973	0.075395
50041		0.201342	0.197487	-0.959406	0.485728	0.830427	0.272872	0.850606	-0.520951	0.071275
50042		0.180500	0.191779	-0.964697	0.459296	0.850869	0.255087	0.869751	-0.489124	0.065498
50043		0.160778	0.184877	-0.969521	0.432228	0.869910	0.237560	0.887316	-0.457249	0.059953
50044		0.141953	0.176969	-0.973926	0.402724	0.888456	0.220137	0.904247	-0.423472	0.054849
50045		0.124213	0.168537	-0.977838	0.371818	0.905760	0.203345	0.919958	-0.388836	0.049842
50046		0.107450	0.159597	-0.981317	0.341108	0.921202	0.187170	0.933863	-0.354846	0.044544
50047		0.091411	0.150624	-0.984356	0.310722	0.934827	0.171901	0.946095	-0.321574	0.038652
50048		0.074961	0.141939	-0.987033	0.281201	0.946638	0.157487	0.956717	-0.289360	0.031048
50049		0.059542	0.132934	-0.989335	0.248799	0.957839	0.143676	0.966723	-0.254700	0.023957
50050		0.045861	0.123584	-0.991274	0.212382	0.968425	0.130561	0.976110	-0.216516	0.018166
50051		0.034207	0.114026	-0.992889	0.174186	0.977584	0.118269	0.984118	-0.176993	0.013579
50052		0.024091	0.104485	-0.994235	0.133644	0.985260	0.106780	0.990737	-0.135446	0.009772
50053		0.015056	0.095156	-0.995348	0.091655	0.991139	0.096140	0.995677	-0.092676	0.006201
50054		0.006920	0.086288	-0.996246	0.048496	0.995069	0.086523	0.998799	-0.048913	0.002702
50055		0.000076	0.078009	-0.996953	0.004893	0.996941	0.078009	0.999988	-0.004884	-0.000306
50056		-0.005482	0.070649	-0.997486	-0.037618	0.996781	0.070806	0.999277	0.037912	-0.002807
50057		-0.012154	0.063915	-0.997881	-0.080963	0.994616	0.064692	0.996643	0.081578	-0.006914
50058		-0.017490	0.057036	-0.998219	-0.122734	0.990699	0.058757	0.992285	0.123543	-0.010327
50059		-0.022341	0.050037	-0.998497	-0.160645	0.985589	0.052985	0.986759	0.161587	-0.013981
50060		-0.027613	0.042831	-0.998701	-0.195009	0.979655	0.047406	0.980413	0.196065	-0.018698
50061		-0.032639	0.035098	-0.998851	-0.226385	0.973150	0.041592	0.973491	0.227482	-0.023817
50062		-0.037276	0.026777	-0.998946	-0.253985	0.966561	0.035386	0.966489	0.255037	-0.029229
50063		-0.041425	0.018242	-0.998975	-0.278074	0.960120	0.029064	0.959666	0.278993	-0.034700
50064		-0.045413	0.010319	-0.998915	-0.299950	0.953666	0.023488	0.952873	0.300691	-0.040213
50065		-0.048745	0.003524	-0.998805	-0.320687	0.946995	0.018992	0.945930	0.321229	-0.045031
50066		-0.050899	-0.001689	-0.998702	-0.340486	0.940117	0.015763	0.938871	0.340847	-0.048426
50067		-0.051580	-0.005864	-0.998652	-0.358986	0.933251	0.013062	0.931917	0.359176	-0.050242
50068		-0.051483	-0.009012	-0.998633	-0.375620	0.926709	0.011001	0.925343	0.375673	-0.051095
50069		-0.050835	-0.011211	-0.998644	-0.389753	0.920871	0.009502	0.919515	0.389707	-0.051182
50070		-0.049473	-0.012369	-0.998699	-0.400315	0.916338	0.008482	0.915041	0.400213	-0.050285
50071		-0.047327	-0.012420	-0.998802	-0.405995	0.913841	0.007874	0.912649	0.405881	-0.048292
50072		-0.045350	-0.011575	-0.998904	-0.406742	0.913509	0.007881	0.912417	0.406654	-0.046136
50073		-0.043838	-0.010555	-0.998983	-0.402080	0.915570	0.007971	0.914554	0.402021	-0.044380
50074		-0.044636	-0.010274	-0.998950	-0.391279	0.920237	0.008019	0.919189	0.391226	-0.045096
50075		-0.047540	-0.011502	-0.998803	-0.376657	0.926324	0.007261	0.925132	0.376551	-0.048369
50076		-0.051658	-0.013154	-0.998578	-0.358830	0.933382	0.006267	0.931973	0.358643	-0.052936
50077		-0.055324	-0.014577	-0.998362	-0.341078	0.940021	0.005175	0.938406	0.340805	-0.056978
50078		-0.057531	-0.015010	-0.998231	-0.330283	0.943869	0.004843	0.942127	0.329978	-0.059259
50079		-0.059693	-0.014650	-0.998109	-0.328704	0.944415	0.005797	0.942545	0.328428	-0.061191
50080		-0.062791	-0.013154	-0.997940	-0.336080	0.941793	0.008732	0.939738	0.335936	-0.063557
50081		-0.066090	-0.011061	-0.997752	-0.348642	0.937170	0.012704	0.934923	0.348698	-0.065794
50082		-0.070540	-0.008737	-0.997471	-0.362904	0.931662	0.017504	0.929153	0.363221	-0.068890
50083		-0.076364	-0.006971	-0.997056	-0.377245	0.925842	0.022420	0.922960	0.377846	-0.073331
50084		-0.082793	-0.005442	-0.996552	-0.388538	0.921030	0.027249	0.917706	0.389454	-0.078369
50085		-0.088326	-0.004236	-0.996083	-0.395262	0.918040	0.031145	0.914312	0.396464	-0.082761
50086		-0.093606	-0.003320	-0.995604	-0.397252	0.917069	0.034292	0.912923	0.398715	-0.087162
50087		-0.098826	-0.002126	-0.995102	-0.395572	0.917676	0.037325	0.913102	0.397323	-0.091531
50088		-0.104461	-0.000593	-0.994529	-0.392548	0.918831	0.040684	0.913780	0.394650	-0.096215
50089		-0.110392	0.000849	-0.993888	-0.389768	0.919858	0.044077	0.914273	0.392251	-0.101214
50090		-0.116378	0.002486	-0.993202	-0.388234	0.920320	0.047795	0.914183	0.391157	-0.106140
50091		-0.122139	0.003978	-0.992505	-0.388559	0.919983	0.051504	0.913293	0.391937	-0.110820
50092		-0.127929	0.005372	-0.991769	-0.390859	0.918782	0.055394	0.911517	0.394728	-0.115439
50093		-0.133184	0.006579	-0.991069	-0.394693	0.916909	0.059127	0.909109	0.399043	-0.119521
50094		-0.137861	0.007887	-0.990420	-0.398371	0.915076	0.062738	0.906805	0.403204	-0.123011
50095		-0.141948	0.009177	-0.989832	-0.403576	0.912538	0.066336	0.903868	0.408888	-0.125829
50096		-0.146111	0.010525	-0.989212	-0.409281	0.909709	0.070132	0.900634	0.415112	-0.128611
50097		-0.150129	0.011646	-0.988598	-0.413925	0.907335	0.073547	0.897846	0.420247	-0.131396
50098		-0.154109	0.012627	-0.987973	-0.418330	0.905041	0.076821	0.895126	0.425138	-0.134192
50099		-0.157563	0.013274	-0.987420	-0.423151	0.902551	0.079656	0.892254	0.430378	-0.136592
50100		-0.160950	0.013543	-0.986870	-0.427700	0.900184	0.082107	0.889476	0.435300	-0.139092
50101		-0.164158	0.013249	-0.986345	-0.432922	0.897499	0.084107	0.886358	0.440818	-0.141596
50102		-0.167266	0.012859	-0.985828	-0.439149	0.894272	0.086175	0.882706	0.447340	-0.143934
50103		-0.170602	0.012063	-0.985266	-0.446682	0.890330	0.088245	0.878277	0.455155	-0.146503
50104		-0.174051	0.010955	-0.984676	-0.454413	0.886214	0.090182	0.873622	0.463146	-0.149268
50105		-0.177274	0.009364	-0.984117	-0.461398	0.882461	0.091511	0.869302	0.470292	-0.152117
50106		-0.180530	0.007502	-0.983541	-0.468300	0.878698	0.092659	0.864930	0.477320	-0.155119
50107		-0.183445	0.005489	-0.983015	-0.475229	0.874872	0.093570	0.860526	0.484322	-0.157882
50108		-0.186532	0.003708	-0.982442	-0.482884	0.870520	0.094968	0.855587	0.492120	-0.160589
50109		-0.189366	0.002023	-0.981904	-0.491379	0.865578	0.096548	0.850110	0.500770	-0.162917
50110		-0.192190	0.000356	-0.981358	-0.499670	0.860635	0.098168	0.844626	0.509222	-0.165228
50111		-0.194526	-0.001201	-0.980897	-0.508049	0.855538	0.099705	0.839075	0.517739	-0.167034
50112		-0.196750	-0.002584	-0.980450	-0.516983	0.849956	0.101505	0.833078	0.526847	-0.168564
50113		-0.198842	-0.004174	-0.980023	-0.526588	0.843828	0.103249	0.826539	0.536598	-0.169986
50114		-0.201159	-0.005763	-0.979542	-0.537036	0.836953	0.105362	0.819223	0.547244	-0.171455
50115		-0.203472	-0.007356	-0.979053	-0.547677	0.829744	0.107587	0.811572	0.558095	-0.172858
50116		-0.205764	-0.008645	-0.978563	-0.558113	0.822430	0.110089	0.803848	0.568801	-0.174051
50117		-0.207962	-0.010169	-0.978084	-0.567680	0.815565	0.112221	0.796550	0.578577	-0.175379
50118		-0.210007	-0.011645	-0.977631	-0.577047	0.808669	0.114324	0.789249	0.588148	-0.176546
50119		-0.211713	-0.013199	-0.977243	-0.586154	0.801830	0.116157	0.782049	0.597407	-0.177495
50120		-0.213342	-0.014782	-0.976866	-0.595347	0.794757	0.117994	0.774627	0.606748	-0.178355
50121		-0.214740	-0.016615	-0.976530	-0.604834	0.787318	0.119608	0.766852	0.616323	-0.179118
50122		-0.215951	-0.018542	-0.976228	-0.614925	0.779212	0.121228	0.758441	0.626486	-0.179673
50123		-0.216970	-0.020805	-0.975956	-0.624861	0.771069	0.122479	0.749982	0.636411	-0.180299
50124		-0.217787	-0.022977	-0.975726	-0.635331	0.762242	0.123859	0.740894	0.646884	-0.180604
50125		-0.218357	-0.025114	-0.975546	-0.644942	0.753948	0.124948	0.732373	0.656454	-0.180827
50126		-0.219184	-0.027342	-0.975300	-0.652542	0.747254	0.125700	0.725361	0.663975	-0.181628
50127		-0.219813	-0.029750	-0.975088	-0.659975	0.740615	0.126182	0.718411	0.671270	-0.182431
50128		-0.220119	-0.032027	-0.974947	-0.667863	0.733422	0.126695	0.710990	0.679019	-0.182830
50129		-0.220203	-0.034442	-0.974846	-0.675356	0.726494	0.126885	0.703850	0.686309	-0.183237
50130		-0.220226	-0.036931	-0.974750	-0.682886	0.719396	0.127028	0.696539	0.693618	-0.183650
50131		-0.220028	-0.039545	-0.974692	-0.691185	0.711401	0.127166	0.688368	0.701673	-0.183861
50132		-0.219801	-0.042298	-0.974627	-0.698800	0.703945	0.127045	0.680710	0.708994	-0.184286
50133		-0.219786	-0.045710	-0.974477	-0.704236	0.698684	0.126062	0.675089	0.713968	-0.185752
50134		-0.219184	-0.048788	-0.974463	-0.711155	0.691775	0.125324	0.667995	0.720463	-0.186322
50135		-0.218517	-0.052147	-0.974439	-0.718657	0.684120	0.124548	0.660139	0.727503	-0.186968
50136		-0.217492	-0.055126	-0.974504	-0.726278	0.676153	0.123843	0.652087	0.734696	-0.187095
50137		-0.216136	-0.058094	-0.974633	-0.734681	0.667140	0.123158	0.643062	0.742664	-0.186873
50138		-0.214577	-0.060636	-0.974823	-0.743806	0.657007	0.122859	0.633016	0.751442	-0.186080
50139		-0.212919	-0.063220	-0.975022	-0.752665	0.646923	0.122416	0.623025	0.759930	-0.185326
50140		-0.211111	-0.065650	-0.975255	-0.760941	0.637282	0.121820	0.613515	0.767829	-0.184493
50141		-0.208944	-0.068071	-0.975556	-0.769593	0.626949	0.121084	0.603381	0.776081	-0.183385
50142		-0.206589	-0.070366	-0.975894	-0.779331	0.614889	0.120642	0.591577	0.785468	-0.181868
50143		-0.204206	-0.072956	-0.976206	-0.789092	0.602431	0.120043	0.579339	0.794829	-0.180589
50144		-0.201633	-0.075500	-0.976547	-0.799523	0.588612	0.119575	0.565780	0.804882	-0.179048
50145		-0.198938	-0.078200	-0.976887	-0.810891	0.572913	0.119272	0.550345	0.815877	-0.177385
50146		-0.195910	-0.080605	-0.977303	-0.822384	0.556355	0.118968	0.534139	0.827026	-0.175284
50147		-0.192757	-0.083189	-0.977714	-0.834066	0.538767	0.118595	0.516894	0.838338	-0.173236
50148		-0.189424	-0.085610	-0.978156	-0.845955	0.519964	0.118314	0.498477	0.849887	-0.170915
50149		-0.185974	-0.088274	-0.978581	-0.857332	0.501121	0.117727	0.479996	0.860863	-0.168875
50150		-0.182561	-0.090936	-0.978980	-0.868238	0.482125	0.117126	0.461340	0.871370	-0.166971
50151		-0.178931	-0.093451	-0.979413	-0.879076	0.462228	0.116497	0.441825	0.881823	-0.164858
50152		-0.175240	-0.095966	-0.979837	-0.889448	0.442130	0.115772	0.422105	0.891802	-0.162836
50153		-0.171596	-0.098414	-0.980240	-0.899124	0.422317	0.114997	0.402654	0.901090	-0.160954
50154		-0.168232	-0.101012	-0.980558	-0.907979	0.403139	0.114251	0.383760	0.909547	-0.159538
50155		-0.165371	-0.103883	-0.980745	-0.916384	0.383764	0.113869	0.364546	0.917569	-0.158660
50156		-0.163063	-0.107192	-0.980775	-0.923862	0.365461	0.113658	0.346252	0.924634	-0.158623
50157		-0.161322	-0.111160	-0.980622	-0.931291	0.345982	0.113987	0.326607	0.931633	-0.159337
50158		-0.160212	-0.116145	-0.980226	-0.938610	0.325295	0.114867	0.305522	0.938453	-0.161131
50159		-0.159311	-0.121982	-0.979663	-0.946106	0.302289	0.116215	0.281965	0.945379	-0.163566
50160		-0.158637	-0.128450	-0.978946	-0.954405	0.273890	0.118723	0.252873	0.953145	-0.166042
50161		-0.158012	-0.135782	-0.978057	-0.962722	0.241408	0.122020	0.219543	0.960877	-0.168866
50162		-0.157084	-0.143508	-0.977103	-0.971074	0.202606	0.126358	0.179834	0.968688	-0.171183
50163		-0.155932	-0.152184	-0.975974	-0.978217	0.160862	0.131207	0.137030	0.975174	-0.173952
50164		-0.154664	-0.161194	-0.974729	-0.983749	0.116201	0.136879	0.091200	0.980058	-0.176546
50165		-0.153347	-0.170632	-0.973329	-0.987165	0.070911	0.143096	0.044603	0.982780	-0.179316
50166		-0.151764	-0.179543	-0.971973	-0.988413	0.024828	0.149745	-0.002753	0.983437	-0.181231
50167		-0.149925	-0.188335	-0.970594	-0.987454	-0.020701	0.156547	-0.049576	0.981887	-0.182868
50168		-0.147817	-0.196682	-0.969261	-0.984324	-0.066075	0.163523	-0.096206	0.978238	-0.183832
50169		-0.145685	-0.204808	-0.967899	-0.979167	-0.110028	0.170663	-0.141449	0.972598	-0.184512
50170		-0.143436	-0.212335	-0.966613	-0.972203	-0.152409	0.177746	-0.185062	0.965239	-0.184572
50171		-0.141269	-0.219364	-0.965361	-0.963699	-0.192688	0.184811	-0.226554	0.956426	-0.184180
50172		-0.139268	-0.225523	-0.964232	-0.953639	-0.231791	0.191952	-0.266790	0.946262	-0.182786
50173		-0.137429	-0.231282	-0.963131	-0.942236	-0.269335	0.199125	-0.305459	0.934862	-0.180908
50174		-0.135788	-0.236771	-0.962030	-0.929827	-0.304767	0.206251	-0.342029	0.922527	-0.178773
50175		-0.134281	-0.242364	-0.960848	-0.916380	-0.338633	0.213483	-0.377115	0.909169	-0.176626
50176		-0.133020	-0.247773	-0.959643	-0.901970	-0.371059	0.220830	-0.410800	0.894944	-0.174125
50177		-0.131762	-0.253341	-0.958362	-0.886308	-0.402879	0.228356	-0.443956	0.879492	-0.171454
50178		-0.130375	-0.258887	-0.957068	-0.869361	-0.434244	0.235890	-0.476670	0.862792	-0.168452
50179		-0.128665	-0.264816	-0.955677	-0.851391	-0.464651	0.243379	-0.508507	0.844969	-0.165678
50180		-0.126587	-0.270820	-0.954271	-0.832243	-0.494476	0.250731	-0.539767	0.825924	-0.162794
50181		-0.124306	-0.277369	-0.952688	-0.811424	-0.524190	0.258488	-0.571086	0.805166	-0.159905
50182		-0.121889	-0.284079	-0.951022	-0.788711	-0.553967	0.266561	-0.602559	0.782573	-0.156534
50183		-0.118914	-0.291675	-0.949097	-0.763796	-0.583880	0.275135	-0.634409	0.757634	-0.153349
50184		-0.115235	-0.299730	-0.947039	-0.736355	-0.614122	0.283964	-0.666710	0.730080	-0.149939
50185		-0.110331	-0.308491	-0.944807	-0.705990	-0.644783	0.292972	-0.699575	0.699348	-0.146652
50186		-0.104546	-0.316966	-0.942657	-0.672400	-0.675855	0.301827	-0.732768	0.665397	-0.142470
50187		-0.097573	-0.325478	-0.940502	-0.635759	-0.706676	0.310515	-0.765696	0.628230	-0.137973
50188		-0.089751	-0.333219	-0.938568	-0.595973	-0.737066	0.318671	-0.797973	0.587962	-0.132437
50189		-0.081117	-0.340472	-0.936749	-0.553429	-0.766263	0.326430	-0.828937	0.544903	-0.126270
50190		-0.072299	-0.346441	-0.935281	-0.507793	-0.794316	0.333479	-0.858440	0.499040	-0.118492
50191		-0.062811	-0.351822	-0.933957	-0.460435	-0.820050	0.339878	-0.885469	0.451375	-0.110483
50192		-0.052956	-0.356132	-0.932934	-0.411019	-0.843665	0.345386	-0.910087	0.401744	-0.101700
50193		-0.042310	-0.359850	-0.932050	-0.359313	-0.864988	0.350270	-0.932257	0.349718	-0.092701
50194		-0.031122	-0.362435	-0.931489	-0.304968	-0.884058	0.354170	-0.951854	0.295097	-0.083017
50195		-0.019162	-0.364397	-0.931047	-0.247842	-0.900422	0.357512	-0.968611	0.237603	-0.073059
50196		-0.006736	-0.365283	-0.930872	-0.187532	-0.913916	0.359986	-0.982235	0.176993	-0.062346
50197		0.006647	-0.365626	-0.930738	-0.125412	-0.923715	0.361971	-0.992082	0.114320	-0.051994
50198		0.020689	-0.365003	-0.930776	-0.061286	-0.929688	0.363214	-0.997906	0.049529	-0.041604
50199		0.035943	-0.363852	-0.930763	0.003386	-0.931315	0.364198	-0.999348	-0.016242	-0.032242
50200		0.052156	-0.361484	-0.930919	0.068240	-0.928718	0.364453	-0.996305	-0.082534	-0.023771
50201		0.069635	-0.358082	-0.931090	0.132676	-0.921740	0.364408	-0.988710	-0.148909	-0.016676
50202		0.087753	-0.352979	-0.931507	0.196747	-0.910552	0.363573	-0.976519	-0.215176	-0.010456
50203		0.106762	-0.346467	-0.931967	0.260458	-0.894848	0.362504	-0.959564	-0.281440	-0.005295
50204		0.125852	-0.337898	-0.932731	0.324830	-0.874341	0.360574	-0.937362	-0.348357	-0.000278
50205		0.144635	-0.327849	-0.933593	0.388915	-0.848742	0.358304	-0.909849	-0.414912	0.004748
50206		0.162421	-0.315671	-0.934864	0.456584	-0.815866	0.354815	-0.874729	-0.484474	0.011617
50207		0.180255	-0.301806	-0.936174	0.522019	-0.777317	0.351105	-0.833669	-0.551989	0.017433
50208		0.196489	-0.286738	-0.937643	0.580690	-0.736510	0.346917	-0.790058	-0.612645	0.021790
50209		0.212078	-0.270846	-0.938970	0.634112	-0.692951	0.343104	-0.743589	-0.668177	0.024787
50210		0.226215	-0.253857	-0.940417	0.684777	-0.645168	0.338879	-0.692753	-0.720635	0.027889
50212		0.252196	-0.217287	-0.942965	0.776026	-0.536725	0.331225	-0.578084	-0.815299	0.033260
50213		0.264001	-0.197525	-0.944080	0.814660	-0.478348	0.327892	-0.516365	-0.855668	0.034631
50214		0.275331	-0.177285	-0.944861	0.847924	-0.418356	0.325581	-0.453009	-0.890813	0.035138
50215		0.285364	-0.156466	-0.945561	0.876449	-0.356616	0.323517	-0.387821	-0.921056	0.035369
50216		0.294470	-0.135508	-0.946005	0.900045	-0.293441	0.322197	-0.321257	-0.946324	0.035553
50217		0.301734	-0.114382	-0.946506	0.918739	-0.230345	0.320719	-0.254707	-0.966363	0.035584
50218		0.307749	-0.092945	-0.946917	0.932173	-0.169957	0.319639	-0.190644	-0.981059	0.034337
50219		0.311561	-0.071379	-0.947542	0.941355	-0.112752	0.318020	-0.129537	-0.991056	0.032064
50220		0.313880	-0.050133	-0.948138	0.946688	-0.059757	0.316560	-0.072528	-0.996953	0.028704
50221		0.314335	-0.029517	-0.948853	0.949115	-0.010600	0.314751	-0.019348	-0.999508	0.024683
50222		0.313765	-0.009286	-0.949455	0.949020	0.034891	0.313279	0.030218	-0.999348	0.019760
50223		0.311369	0.010354	-0.950233	0.947179	0.077456	0.311212	0.076824	-0.996942	0.014310
50224		0.307449	0.029031	-0.951122	0.943939	0.116984	0.308698	0.120228	-0.992709	0.008563
50225		0.301308	0.046425	-0.952396	0.940090	0.152623	0.304855	0.159511	-0.987193	0.002343
50226		0.293994	0.062452	-0.953765	0.935717	0.184713	0.300526	0.194941	-0.980806	-0.004133
50227		0.285219	0.077174	-0.955350	0.930853	0.215210	0.295290	0.228390	-0.973514	-0.010455
50228		0.275235	0.090601	-0.957098	0.925367	0.244953	0.289298	0.260655	-0.965292	-0.016420
50229		0.263603	0.102094	-0.959213	0.919558	0.273815	0.281849	0.291422	-0.956348	-0.021703
50230		0.250718	0.112072	-0.961551	0.912076	0.305540	0.273429	0.324436	-0.945561	-0.025614
50231		0.236257	0.119363	-0.964332	0.902598	0.340581	0.263289	0.359860	-0.932608	-0.027272
50232		0.221066	0.123672	-0.967386	0.890818	0.378133	0.251910	0.396954	-0.917454	-0.026577
50233		0.205048	0.124308	-0.970826	0.876987	0.417072	0.238632	0.434568	-0.900332	-0.023496
50234		0.189193	0.122523	-0.974266	0.860789	0.456727	0.224594	0.472492	-0.881129	-0.019057
50235		0.174284	0.118221	-0.977573	0.841503	0.497679	0.210211	0.511369	-0.859267	-0.012745
50236		0.161727	0.111721	-0.980491	0.818898	0.539247	0.196517	0.550682	-0.834704	-0.004278
50237		0.151769	0.103531	-0.982979	0.793553	0.580135	0.183624	0.589271	-0.807914	0.005889
50238		0.143930	0.095958	-0.984924	0.765267	0.620237	0.172258	0.627416	-0.778523	0.015838
50239		0.136559	0.089408	-0.986589	0.737311	0.655965	0.161500	0.661607	-0.749478	0.023656
50240		0.129503	0.083970	-0.988017	0.714237	0.683269	0.151687	0.687818	-0.725323	0.028511
50242		0.114434	0.074527	-0.990631	0.689086	0.712334	0.133191	0.715587	-0.697872	0.030160
50243		0.106971	0.070916	-0.991730	0.690140	0.712727	0.125406	0.715726	-0.697848	0.027299
50244		0.100218	0.068365	-0.992614	0.701033	0.703096	0.119203	0.706052	-0.707801	0.022536
50245		0.094413	0.066727	-0.993294	0.718851	0.685689	0.114390	0.688724	-0.724830	0.016771
50246		0.089790	0.065918	-0.993777	0.738442	0.665145	0.110840	0.668312	-0.743799	0.011047
50247		0.086303	0.065467	-0.994116	0.757004	0.644397	0.108155	0.647686	-0.761883	0.006055
50248		0.083008	0.065639	-0.994385	0.772966	0.625561	0.105817	0.628994	-0.777409	0.001190
50249		0.080068	0.065461	-0.994638	0.785497	0.610168	0.103390	0.613664	-0.789563	-0.002565
50250		0.077197	0.065527	-0.994860	0.794882	0.598285	0.101085	0.601834	-0.798600	-0.005901
50251		0.073795	0.066320	-0.995066	0.799734	0.592173	0.098777	0.595802	-0.803077	-0.009339
50252		0.070132	0.067806	-0.995231	0.799307	0.593087	0.096733	0.596817	-0.802278	-0.012604
50253		0.067004	0.068970	-0.995366	0.794537	0.599732	0.095041	0.603508	-0.797223	-0.014614
50254		0.064247	0.069863	-0.995486	0.787444	0.609241	0.093577	0.613028	-0.789902	-0.015871
50255		0.061126	0.070815	-0.995615	0.780185	0.618760	0.091910	0.622555	-0.782382	-0.017426
50256		0.057198	0.071820	-0.995776	0.773591	0.627307	0.089680	0.631098	-0.775453	-0.019678
50257		0.052462	0.072532	-0.995985	0.769291	0.633000	0.086619	0.636741	-0.770747	-0.022590
50258		0.047707	0.072858	-0.996201	0.768429	0.634503	0.083205	0.638155	-0.769478	-0.025716
50259		0.043441	0.072898	-0.996393	0.770619	0.632273	0.079856	0.635814	-0.771308	-0.028710
50260		0.038946	0.073424	-0.996540	0.774741	0.627632	0.076521	0.631079	-0.775040	-0.032440
50261		0.034536	0.073723	-0.996681	0.779936	0.621587	0.073004	0.624906	-0.779868	-0.036032
50262		0.030342	0.073785	-0.996812	0.785020	0.615564	0.069460	0.618727	-0.784625	-0.039245
50263		0.026112	0.073909	-0.996923	0.789060	0.610766	0.065948	0.613761	-0.788354	-0.042370
50264		0.021582	0.073965	-0.997027	0.792298	0.606958	0.062178	0.609752	-0.791285	-0.045503
50265		0.016510	0.073671	-0.997146	0.794839	0.604063	0.057789	0.606596	-0.793524	-0.048583
50266		0.011829	0.072635	-0.997288	0.795414	0.603709	0.053404	0.605951	-0.793889	-0.050634
50267		0.008143	0.070927	-0.997448	0.792750	0.607520	0.049671	0.609493	-0.791131	-0.051281
50268		0.004824	0.069273	-0.997586	0.788870	0.612808	0.046369	0.614541	-0.787190	-0.051691
50269		0.001395	0.067818	-0.997697	0.785565	0.617279	0.043058	0.618778	-0.783816	-0.052414
50270		-0.001930	0.066191	-0.997805	0.781526	0.622603	0.039790	0.623870	-0.779733	-0.052931
50271		-0.005079	0.064303	-0.997918	0.778014	0.627188	0.036454	0.628226	-0.776209	-0.053214
50272		-0.008397	0.062452	-0.998013	0.775556	0.630420	0.032924	0.631223	-0.773738	-0.053728
50273		-0.011607	0.060515	-0.998100	0.773559	0.633042	0.029385	0.633618	-0.771748	-0.054160
50274		-0.014638	0.058684	-0.998169	0.771996	0.635094	0.026017	0.635459	-0.770202	-0.054600
50275		-0.017276	0.056888	-0.998231	0.771595	0.635703	0.022874	0.635880	-0.769835	-0.054876
50276		-0.019927	0.055529	-0.998258	0.772085	0.635206	0.019922	0.635206	-0.770344	-0.055531
50277		-0.022657	0.054643	-0.998249	0.772635	0.634618	0.017201	0.634446	-0.770892	-0.056597
50278		-0.025253	0.053619	-0.998242	0.772106	0.635326	0.014593	0.634992	-0.770380	-0.057443
50279		-0.027490	0.052247	-0.998256	0.770308	0.637556	0.012156	0.637079	-0.768631	-0.057773
50280		-0.029238	0.050666	-0.998288	0.767755	0.640665	0.010029	0.640076	-0.766147	-0.057630
50281		-0.030463	0.049300	-0.998319	0.764735	0.644289	0.008481	0.643624	-0.763191	-0.057329
50282		-0.031277	0.048269	-0.998345	0.761389	0.648252	0.007489	0.647540	-0.759894	-0.057026
