// Start Time: Unknown
// Update Rate: 100.0Hz
// Filter Profile: human (46.1)
// Option Flags: AHS Disabled ICC Disabled 
// Firmware Version: 4.0.2
PacketCounter	SampleTimeFine	Mat[1][1]	Mat[2][1]	Mat[3][1]	Mat[1][2]	Mat[2][2]	Mat[3][2]	Mat[1][3]	Mat[2][3]	Mat[3][3]
12704		0.210919	-0.100245	-0.972350	-0.725281	-0.682944	-0.086917	-0.655347	0.723560	-0.216752
12705		0.211331	-0.100426	-0.972242	-0.724623	-0.683646	-0.086891	-0.655943	0.722871	-0.217247
12706		0.211617	-0.100324	-0.972190	-0.724375	-0.683882	-0.087102	-0.656124	0.722662	-0.217393
12707		0.211972	-0.100113	-0.972134	-0.724302	-0.683907	-0.087503	-0.656090	0.722667	-0.217481
12708		0.212286	-0.099815	-0.972097	-0.724547	-0.683580	-0.088037	-0.655718	0.723019	-0.217435
12709		0.212486	-0.099250	-0.972111	-0.724943	-0.683072	-0.088720	-0.655216	0.723576	-0.217093
12710		0.212747	-0.098706	-0.972109	-0.725659	-0.682203	-0.089541	-0.654337	0.724470	-0.216764
12711		0.213014	-0.098173	-0.972104	-0.726320	-0.681394	-0.090342	-0.653517	0.725303	-0.216452
12712		0.213336	-0.097718	-0.972080	-0.726931	-0.680639	-0.091114	-0.652732	0.726073	-0.216239
12713		0.213641	-0.097292	-0.972056	-0.727345	-0.680106	-0.091787	-0.652171	0.726629	-0.216063
12714		0.214006	-0.096992	-0.972005	-0.727678	-0.679668	-0.092391	-0.651679	0.727079	-0.216032
12715		0.214193	-0.096742	-0.971989	-0.728103	-0.679149	-0.092853	-0.651143	0.727597	-0.215907
12716		0.214349	-0.096533	-0.971975	-0.728536	-0.678629	-0.093264	-0.650608	0.728110	-0.215791
12717		0.214324	-0.096245	-0.972009	-0.729161	-0.677904	-0.093654	-0.649915	0.728823	-0.215469
12718		0.214080	-0.095845	-0.972103	-0.729750	-0.677230	-0.093936	-0.649334	0.729502	-0.214924
12719		0.213903	-0.095537	-0.972172	-0.730445	-0.676438	-0.094243	-0.648610	0.730277	-0.214477
12720		0.213939	-0.095521	-0.972165	-0.731338	-0.675425	-0.094577	-0.647591	0.731216	-0.214358
12721		0.214053	-0.095500	-0.972142	-0.732121	-0.674526	-0.094940	-0.646668	0.732048	-0.214302
12722		0.214265	-0.095517	-0.972094	-0.733199	-0.673281	-0.095453	-0.645375	0.733191	-0.214294
12723		0.214456	-0.095440	-0.972060	-0.734478	-0.671796	-0.096081	-0.643856	0.734562	-0.214169
12724		0.214558	-0.095264	-0.972054	-0.735856	-0.670192	-0.096743	-0.642247	0.736049	-0.213896
12725		0.214566	-0.095078	-0.972071	-0.737051	-0.668800	-0.097275	-0.640872	0.737338	-0.213579
12726		0.214512	-0.094814	-0.972108	-0.737896	-0.667806	-0.097695	-0.639917	0.738272	-0.213215
12727		0.214406	-0.094654	-0.972147	-0.738388	-0.667234	-0.097885	-0.639385	0.738809	-0.212951
12728		0.214140	-0.094437	-0.972227	-0.738498	-0.667116	-0.097859	-0.639347	0.738943	-0.212598
12729		0.213738	-0.094251	-0.972334	-0.738194	-0.667495	-0.097567	-0.639832	0.738625	-0.212245
12730		0.213281	-0.094194	-0.972439	-0.737819	-0.667975	-0.097120	-0.640417	0.738198	-0.211965
12731		0.212870	-0.094235	-0.972526	-0.737494	-0.668401	-0.096659	-0.640929	0.737807	-0.211780
12732		0.212377	-0.094317	-0.972626	-0.737289	-0.668701	-0.096145	-0.641328	0.737525	-0.211555
12733		0.211856	-0.094380	-0.972733	-0.737418	-0.668618	-0.095732	-0.641351	0.737593	-0.211248
12734		0.211365	-0.094534	-0.972825	-0.737667	-0.668402	-0.095320	-0.641227	0.737768	-0.211012
12735		0.210934	-0.094805	-0.972892	-0.737960	-0.668140	-0.094890	-0.641032	0.737971	-0.210896
12736		0.210463	-0.095059	-0.972969	-0.738130	-0.668022	-0.094399	-0.640991	0.738045	-0.210760
12737		0.209918	-0.095382	-0.973055	-0.738410	-0.667791	-0.093839	-0.640847	0.738212	-0.210612
12738		0.209518	-0.095853	-0.973095	-0.739157	-0.667020	-0.093445	-0.640117	0.738849	-0.210603
12739		0.209265	-0.096526	-0.973083	-0.740114	-0.666006	-0.093099	-0.639093	0.739675	-0.210812
12740		0.208948	-0.097086	-0.973095	-0.740904	-0.665179	-0.092726	-0.638280	0.740345	-0.210920
12741		0.208515	-0.097435	-0.973154	-0.741347	-0.664746	-0.092290	-0.637908	0.740688	-0.210843
12742		0.208121	-0.097665	-0.973215	-0.741646	-0.664464	-0.091919	-0.637689	0.740911	-0.210721
12743		0.207975	-0.097958	-0.973217	-0.742016	-0.664077	-0.091726	-0.637306	0.741219	-0.210797
12744		0.207981	-0.098265	-0.973184	-0.742381	-0.663681	-0.091642	-0.636878	0.741534	-0.210983
12745		0.207998	-0.098415	-0.973166	-0.742486	-0.663570	-0.091588	-0.636750	0.741612	-0.211093
12746		0.207909	-0.098230	-0.973203	-0.742188	-0.663910	-0.091545	-0.637127	0.741333	-0.210938
12747		0.207978	-0.097920	-0.973220	-0.741676	-0.664468	-0.091642	-0.637700	0.740874	-0.210820
12748		0.208202	-0.097616	-0.973203	-0.741405	-0.664730	-0.091938	-0.637942	0.740679	-0.210771
12749		0.208399	-0.097241	-0.973198	-0.741111	-0.665014	-0.092253	-0.638219	0.740473	-0.210655
12750		0.208563	-0.096756	-0.973211	-0.740748	-0.665372	-0.092595	-0.638588	0.740215	-0.210444
12751		0.208586	-0.096141	-0.973267	-0.740231	-0.665908	-0.092863	-0.639179	0.739813	-0.210065
12752		0.208526	-0.095411	-0.973352	-0.739852	-0.666284	-0.093191	-0.639637	0.739569	-0.209527
12753		0.208503	-0.094644	-0.973432	-0.739526	-0.666590	-0.093591	-0.640021	0.739392	-0.208978
12754		0.208582	-0.093929	-0.973484	-0.739453	-0.666597	-0.094119	-0.640081	0.739477	-0.208496
12755		0.208769	-0.093301	-0.973504	-0.739450	-0.666518	-0.094696	-0.640023	0.739628	-0.208139
12756		0.209078	-0.092697	-0.973496	-0.739715	-0.666117	-0.095440	-0.639615	0.740064	-0.207840
12757		0.209350	-0.092168	-0.973487	-0.740241	-0.665425	-0.096189	-0.638917	0.740753	-0.207533
12758		0.209591	-0.091665	-0.973483	-0.740636	-0.664889	-0.096852	-0.638380	0.741296	-0.207245
12759		0.209696	-0.091131	-0.973510	-0.740668	-0.664787	-0.097310	-0.638309	0.741454	-0.206901
12760		0.209791	-0.090650	-0.973535	-0.740421	-0.665014	-0.097634	-0.638564	0.741309	-0.206633
12761		0.209884	-0.090228	-0.973554	-0.739931	-0.665530	-0.097837	-0.639102	0.740897	-0.206447
12762		0.209975	-0.089930	-0.973562	-0.739160	-0.666382	-0.097864	-0.639963	0.740167	-0.206396
12763		0.210027	-0.089642	-0.973577	-0.738399	-0.667226	-0.097858	-0.640824	0.739442	-0.206327
12764		0.210121	-0.089315	-0.973587	-0.737855	-0.667810	-0.097982	-0.641420	0.738954	-0.206222
12765		0.210152	-0.089043	-0.973605	-0.737536	-0.668146	-0.098090	-0.641777	0.738683	-0.206084
12766		0.210078	-0.088674	-0.973655	-0.737307	-0.668380	-0.098211	-0.642063	0.738515	-0.205792
12767		0.210016	-0.088360	-0.973697	-0.737150	-0.668537	-0.098327	-0.642264	0.738411	-0.205538
12768		0.210006	-0.088137	-0.973719	-0.736755	-0.668969	-0.098347	-0.642720	0.738046	-0.205423
12769		0.210013	-0.087876	-0.973741	-0.736099	-0.669695	-0.098322	-0.643469	0.737419	-0.205331
12770		0.210043	-0.087654	-0.973755	-0.735535	-0.670315	-0.098319	-0.644104	0.736882	-0.205267
12771		0.210046	-0.087386	-0.973778	-0.735018	-0.670878	-0.098341	-0.644693	0.736401	-0.205146
12772		0.210040	-0.087149	-0.973801	-0.734646	-0.671280	-0.098381	-0.645119	0.736063	-0.205019
12773		0.209997	-0.086753	-0.973846	-0.734412	-0.671511	-0.098546	-0.645399	0.735899	-0.204728
12774		0.209919	-0.086372	-0.973896	-0.734363	-0.671538	-0.098732	-0.645481	0.735919	-0.204397
12775		0.209751	-0.085900	-0.973974	-0.734275	-0.671609	-0.098898	-0.645635	0.735909	-0.203945
12776		0.209527	-0.085322	-0.974073	-0.733788	-0.672132	-0.098966	-0.646262	0.735499	-0.203438
12777		0.209364	-0.084760	-0.974157	-0.733253	-0.672701	-0.099059	-0.646920	0.735043	-0.202990
12778		0.209285	-0.084251	-0.974219	-0.732893	-0.673068	-0.099235	-0.647355	0.734766	-0.202609
12779		0.209287	-0.083716	-0.974264	-0.732658	-0.673280	-0.099533	-0.647620	0.734633	-0.202244
12780		0.209405	-0.083337	-0.974271	-0.732728	-0.673148	-0.099909	-0.647502	0.734797	-0.202024
12781		0.209546	-0.083000	-0.974270	-0.732923	-0.672876	-0.100313	-0.647236	0.735085	-0.201831
12782		0.209653	-0.082644	-0.974277	-0.733217	-0.672492	-0.100735	-0.646868	0.735476	-0.201586
12783		0.209785	-0.082365	-0.974272	-0.733515	-0.672108	-0.101124	-0.646487	0.735858	-0.201414
12784		0.209811	-0.082062	-0.974292	-0.733796	-0.671753	-0.101441	-0.646160	0.736216	-0.201158
12785		0.209685	-0.081699	-0.974350	-0.733988	-0.671512	-0.101651	-0.645983	0.736476	-0.200772
12786		0.209503	-0.081425	-0.974412	-0.733919	-0.671584	-0.101677	-0.646120	0.736441	-0.200458
12787		0.209264	-0.081197	-0.974482	-0.733709	-0.671828	-0.101580	-0.646436	0.736243	-0.200164
12788		0.208928	-0.080889	-0.974580	-0.733645	-0.671908	-0.101510	-0.646617	0.736204	-0.199724
12789		0.208542	-0.080621	-0.974685	-0.733726	-0.671834	-0.101416	-0.646650	0.736302	-0.199259
12790		0.208285	-0.080464	-0.974753	-0.734041	-0.671489	-0.101419	-0.646375	0.736633	-0.198925
12791		0.208050	-0.080381	-0.974810	-0.734458	-0.671033	-0.101421	-0.645977	0.737058	-0.198645
12792		0.207764	-0.080288	-0.974878	-0.735027	-0.670408	-0.101434	-0.645422	0.737636	-0.198300
12793		0.207520	-0.080249	-0.974934	-0.735496	-0.669896	-0.101413	-0.644966	0.738105	-0.198040
12794		0.207277	-0.080293	-0.974982	-0.735945	-0.669415	-0.101331	-0.644531	0.738537	-0.197846
12795		0.207104	-0.080326	-0.975016	-0.736286	-0.669049	-0.101276	-0.644198	0.738865	-0.197706
12796		0.206846	-0.080319	-0.975071	-0.736661	-0.668648	-0.101193	-0.643852	0.739229	-0.197475
12797		0.206567	-0.080193	-0.975141	-0.737072	-0.668196	-0.101186	-0.643471	0.739650	-0.197135
12798		0.206303	-0.080022	-0.975210	-0.737738	-0.667444	-0.101298	-0.642793	0.740348	-0.196731
12799		0.206071	-0.079931	-0.975267	-0.738592	-0.666478	-0.101439	-0.641885	0.741228	-0.196378
12800		0.205814	-0.079854	-0.975328	-0.739507	-0.665442	-0.101569	-0.640913	0.742166	-0.196010
12801		0.205477	-0.079699	-0.975411	-0.740183	-0.664684	-0.101614	-0.640241	0.742862	-0.195569
12802		0.205098	-0.079475	-0.975509	-0.740786	-0.664006	-0.101651	-0.639665	0.743492	-0.195060
12803		0.204807	-0.079314	-0.975584	-0.741274	-0.663456	-0.101679	-0.639192	0.744000	-0.194674
12804		0.204615	-0.079195	-0.975634	-0.741764	-0.662896	-0.101757	-0.638685	0.744511	-0.194382
12805		0.204355	-0.078973	-0.975706	-0.742137	-0.662470	-0.101816	-0.638335	0.744914	-0.193988
12806		0.204002	-0.078572	-0.975812	-0.742376	-0.662192	-0.101880	-0.638170	0.745203	-0.193418
12807		0.203686	-0.078220	-0.975907	-0.742603	-0.661928	-0.101938	-0.638006	0.745475	-0.192912
12808		0.203408	-0.077809	-0.975997	-0.742924	-0.661544	-0.102093	-0.637721	0.745859	-0.192369
12809		0.203123	-0.077439	-0.976086	-0.743206	-0.661210	-0.102203	-0.637484	0.746193	-0.191860
12810		0.202942	-0.077139	-0.976148	-0.743523	-0.660830	-0.102358	-0.637172	0.746561	-0.191464
12811		0.202757	-0.076902	-0.976205	-0.743973	-0.660301	-0.102506	-0.636706	0.747054	-0.191094
12812		0.202532	-0.076663	-0.976270	-0.744466	-0.659724	-0.102638	-0.636200	0.747588	-0.190688
12813		0.202340	-0.076540	-0.976320	-0.744989	-0.659120	-0.102725	-0.635649	0.748133	-0.190388
12814		0.202080	-0.076484	-0.976378	-0.745495	-0.658551	-0.102706	-0.635139	0.748639	-0.190098
12815		0.201665	-0.076306	-0.976478	-0.745740	-0.658294	-0.102570	-0.634982	0.748884	-0.189660
12816		0.201230	-0.076102	-0.976583	-0.746062	-0.657947	-0.102458	-0.634743	0.749209	-0.189176
12817		0.200691	-0.075783	-0.976719	-0.746370	-0.657616	-0.102337	-0.634550	0.749532	-0.188540
12818		0.200090	-0.075399	-0.976872	-0.746585	-0.657396	-0.102180	-0.634488	0.749763	-0.187830
12819		0.199565	-0.075032	-0.977008	-0.746574	-0.657436	-0.102006	-0.634666	0.749766	-0.187218
12820		0.199171	-0.074658	-0.977117	-0.746483	-0.657552	-0.101919	-0.634896	0.749701	-0.186696
12821		0.198805	-0.074196	-0.977226	-0.746309	-0.657755	-0.101888	-0.635216	0.749569	-0.186138
12822		0.198539	-0.073788	-0.977311	-0.746237	-0.657830	-0.101930	-0.635383	0.749543	-0.185669
12823		0.198374	-0.073280	-0.977383	-0.746103	-0.657956	-0.102101	-0.635593	0.749482	-0.185196
12824		0.198193	-0.072539	-0.977475	-0.746044	-0.657970	-0.102439	-0.635719	0.749542	-0.184523
12825		0.197983	-0.071720	-0.977578	-0.745887	-0.658094	-0.102779	-0.635967	0.749512	-0.183787
12826		0.197859	-0.070882	-0.977664	-0.745741	-0.658194	-0.103203	-0.636177	0.749504	-0.183089
12827		0.197722	-0.069956	-0.977759	-0.745285	-0.658650	-0.103587	-0.636754	0.749190	-0.182367
12828		0.197439	-0.068927	-0.977889	-0.744748	-0.659208	-0.103902	-0.637470	0.748795	-0.181487
12829		0.197097	-0.067975	-0.978025	-0.744210	-0.659781	-0.104121	-0.638204	0.748378	-0.180629
12830		0.196719	-0.067244	-0.978151	-0.743693	-0.660356	-0.104170	-0.638923	0.747936	-0.179913
12831		0.196218	-0.066597	-0.978296	-0.743005	-0.661154	-0.104018	-0.639877	0.747289	-0.179212
12832		0.195623	-0.066053	-0.978452	-0.742363	-0.661918	-0.103737	-0.640803	0.746660	-0.178522
12833		0.194837	-0.065549	-0.978643	-0.741757	-0.662667	-0.103290	-0.641744	0.746040	-0.177733
12834		0.194115	-0.065205	-0.978809	-0.741334	-0.663210	-0.102838	-0.642451	0.745587	-0.177077
12835		0.193425	-0.065036	-0.978957	-0.741070	-0.663583	-0.102338	-0.642963	0.745271	-0.176550
12836		0.192593	-0.064867	-0.979132	-0.741199	-0.663516	-0.101835	-0.643065	0.745345	-0.175868
12837		0.191645	-0.064512	-0.979342	-0.741685	-0.663030	-0.101463	-0.642787	0.745808	-0.174914
12838		0.190770	-0.064235	-0.979531	-0.742631	-0.662008	-0.101219	-0.641955	0.746740	-0.173994
12839		0.189910	-0.064008	-0.979713	-0.743934	-0.660569	-0.101048	-0.640700	0.748032	-0.173066
12840		0.189071	-0.063863	-0.979884	-0.745453	-0.658878	-0.100895	-0.639181	0.749534	-0.172182
12841		0.188104	-0.063612	-0.980087	-0.746566	-0.657662	-0.100600	-0.638166	0.750623	-0.171200
12842		0.187137	-0.063411	-0.980285	-0.747603	-0.656536	-0.100249	-0.637236	0.751625	-0.170268
12843		0.186212	-0.063347	-0.980465	-0.748404	-0.655695	-0.099774	-0.636566	0.752364	-0.169508
12844		0.185212	-0.063224	-0.980663	-0.749350	-0.654684	-0.099318	-0.635744	0.753254	-0.168632
12845		0.184096	-0.062943	-0.980891	-0.750258	-0.653712	-0.098862	-0.634997	0.754122	-0.167569
12846		0.183020	-0.062765	-0.981104	-0.751393	-0.652472	-0.098428	-0.633965	0.755209	-0.166577
12847		0.181872	-0.062447	-0.981337	-0.752469	-0.651294	-0.098010	-0.633019	0.756251	-0.165442
12848		0.180808	-0.062177	-0.981551	-0.753861	-0.649728	-0.097708	-0.631666	0.757619	-0.164349
12849		0.179714	-0.061859	-0.981772	-0.755268	-0.648136	-0.097415	-0.630296	0.759008	-0.163199
12850		0.178614	-0.061575	-0.981991	-0.756847	-0.646334	-0.097135	-0.628713	0.760566	-0.162047
12851		0.177446	-0.061207	-0.982225	-0.758549	-0.644374	-0.096883	-0.626990	0.762258	-0.160770
12852		0.176123	-0.060915	-0.982482	-0.760700	-0.641880	-0.096569	-0.624753	0.764382	-0.159388
12853		0.174521	-0.060617	-0.982786	-0.763213	-0.638957	-0.096119	-0.622132	0.766850	-0.157775
12854		0.172587	-0.060479	-0.983136	-0.766332	-0.635316	-0.095445	-0.618829	0.769881	-0.155994
12855		0.170223	-0.060472	-0.983548	-0.769669	-0.631428	-0.094384	-0.615333	0.773073	-0.154027
12856		0.167456	-0.060867	-0.983999	-0.773220	-0.627314	-0.092783	-0.611629	0.776384	-0.152111
12857		0.164158	-0.061584	-0.984510	-0.776278	-0.623873	-0.090412	-0.608641	0.779095	-0.150220
12858		0.160238	-0.062794	-0.985079	-0.779174	-0.620715	-0.087177	-0.605979	0.781517	-0.148389
12859		0.155513	-0.064568	-0.985721	-0.781998	-0.617742	-0.082909	-0.603568	0.783725	-0.146559
12860		0.150123	-0.067197	-0.986381	-0.785126	-0.614451	-0.077633	-0.600866	0.786088	-0.145002
12861		0.144050	-0.070613	-0.987048	-0.788056	-0.611465	-0.071265	-0.598513	0.788115	-0.143728
12862		0.137289	-0.074809	-0.987702	-0.790814	-0.608721	-0.063817	-0.596461	0.789850	-0.142731
12863		0.129830	-0.079127	-0.988374	-0.792866	-0.606857	-0.055565	-0.595405	0.790862	-0.141526
12864		0.121589	-0.083431	-0.989068	-0.794083	-0.606029	-0.046499	-0.595524	0.791055	-0.139938
12865		0.112533	-0.087610	-0.989778	-0.794701	-0.605889	-0.036723	-0.596478	0.790711	-0.137806
12866		0.102925	-0.092113	-0.990415	-0.795146	-0.605848	-0.026286	-0.597620	0.790230	-0.135600
12867		0.093044	-0.097054	-0.990920	-0.794934	-0.606504	-0.015238	-0.599519	0.789134	-0.133583
12868		0.082907	-0.102431	-0.991279	-0.795213	-0.606318	-0.003857	-0.600635	0.788598	-0.131723
12869		0.072537	-0.107893	-0.991513	-0.795994	-0.605257	0.007628	-0.600943	0.788685	-0.129786
12870		0.062270	-0.113793	-0.991551	-0.797829	-0.602583	0.019050	-0.599659	0.789902	-0.128310
12871		0.052541	-0.120233	-0.991354	-0.800315	-0.598818	0.030210	-0.597273	0.791809	-0.127687
12872		0.043303	-0.127540	-0.990888	-0.804049	-0.593133	0.041206	-0.592984	0.794938	-0.128233
12873		0.034372	-0.135322	-0.990205	-0.807839	-0.587088	0.052190	-0.588400	0.798133	-0.129498
12874		0.025302	-0.143328	-0.989352	-0.812387	-0.579684	0.063203	-0.582570	0.802137	-0.131105
12875		0.016314	-0.151247	-0.988361	-0.816639	-0.572371	0.074109	-0.576918	0.805925	-0.132852
12876		0.006698	-0.158922	-0.987268	-0.820426	-0.565334	0.085437	-0.571714	0.809408	-0.134170
12877		-0.003684	-0.166420	-0.986048	-0.822389	-0.560479	0.097667	-0.568913	0.811275	-0.134797
12878		-0.014438	-0.174368	-0.984575	-0.821795	-0.558862	0.111026	-0.569600	0.810721	-0.135226
12879		-0.025335	-0.182006	-0.982971	-0.818369	-0.560944	0.124957	-0.574135	0.807598	-0.134737
12880		-0.036839	-0.188978	-0.981290	-0.814138	-0.563757	0.139133	-0.579502	0.804031	-0.133086
12881		-0.049064	-0.194502	-0.979674	-0.808108	-0.568714	0.153382	-0.586988	0.799208	-0.129275
12882		-0.061995	-0.199322	-0.977971	-0.800910	-0.574759	0.167913	-0.595566	0.793677	-0.124007
12883		-0.074565	-0.204235	-0.976078	-0.792647	-0.581792	0.182287	-0.605104	0.787278	-0.118505
12884		-0.086768	-0.209733	-0.973901	-0.785354	-0.587067	0.196397	-0.612936	0.781898	-0.113775
12885		-0.098334	-0.215539	-0.971532	-0.779202	-0.590585	0.209891	-0.619012	0.777658	-0.109873
12886		-0.109966	-0.221779	-0.968876	-0.774744	-0.591518	0.223333	-0.622639	0.775190	-0.106775
12887		-0.121190	-0.228535	-0.965963	-0.771058	-0.591176	0.236602	-0.625126	0.773488	-0.104569
12888		-0.132528	-0.235576	-0.962777	-0.768021	-0.589617	0.249989	-0.626562	0.772564	-0.102787
12889		-0.143992	-0.242174	-0.959488	-0.764332	-0.588628	0.263274	-0.628540	0.771277	-0.100344
12890		-0.155899	-0.248419	-0.956025	-0.760620	-0.587304	0.276643	-0.630201	0.770300	-0.097392
12891		-0.168027	-0.254301	-0.952417	-0.756294	-0.586441	0.290011	-0.632287	0.769037	-0.093788
12892		-0.180379	-0.259821	-0.948661	-0.752073	-0.585164	0.303265	-0.633916	0.768165	-0.089853
12893		-0.192676	-0.265246	-0.944733	-0.747461	-0.584098	0.316436	-0.635750	0.767121	-0.085719
12894		-0.204823	-0.270722	-0.940615	-0.742055	-0.583718	0.329588	-0.638281	0.765495	-0.081332
12895		-0.216713	-0.275926	-0.936429	-0.736044	-0.583950	0.342405	-0.641307	0.763457	-0.076544
12896		-0.228468	-0.280806	-0.932175	-0.729662	-0.584496	0.354906	-0.644512	0.761257	-0.071354
12897		-0.239945	-0.285234	-0.927937	-0.723131	-0.585221	0.366875	-0.647694	0.759050	-0.065841
12898		-0.251071	-0.289249	-0.923741	-0.716791	-0.585781	0.378247	-0.650518	0.757097	-0.060258
12899		-0.261696	-0.292925	-0.919625	-0.711270	-0.585528	0.388911	-0.652388	0.755878	-0.055118
12900		-0.271791	-0.296415	-0.915570	-0.707033	-0.583918	0.398929	-0.652866	0.755763	-0.050871
12901		-0.281383	-0.299693	-0.911596	-0.703776	-0.581332	0.408352	-0.652321	0.756463	-0.047340
12902		-0.290678	-0.302433	-0.907767	-0.700848	-0.578593	0.417185	-0.651397	0.757473	-0.043775
12903		-0.299825	-0.304406	-0.904125	-0.698126	-0.575891	0.425406	-0.650173	0.758740	-0.039847
12904		-0.308296	-0.306021	-0.900725	-0.695462	-0.573527	0.432895	-0.649065	0.759880	-0.036010
12905		-0.316268	-0.307373	-0.897495	-0.693146	-0.571050	0.439830	-0.647706	0.761199	-0.032450
12906		-0.323724	-0.308950	-0.894289	-0.691533	-0.567825	0.446495	-0.645744	0.762971	-0.029831
12907		-0.330990	-0.310833	-0.890971	-0.690158	-0.564166	0.453209	-0.643528	0.764918	-0.027791
12908		-0.338447	-0.312851	-0.887456	-0.687347	-0.561916	0.460222	-0.642656	0.765751	-0.024858
12909		-0.346094	-0.315032	-0.883727	-0.682641	-0.561608	0.467545	-0.643600	0.765083	-0.020684
12910		-0.354261	-0.316984	-0.879784	-0.676867	-0.562235	0.475124	-0.645252	0.763815	-0.015378
12911		-0.363163	-0.318633	-0.875549	-0.670424	-0.563205	0.483044	-0.647028	0.762413	-0.009084
12912		-0.372689	-0.320421	-0.870881	-0.664094	-0.563401	0.491487	-0.648137	0.761518	-0.002816
12913		-0.382821	-0.322506	-0.865701	-0.657800	-0.562804	0.500551	-0.648650	0.761079	0.003309
12914		-0.393461	-0.324944	-0.860000	-0.651795	-0.561109	0.510215	-0.648345	0.761294	0.008977
12915		-0.404380	-0.327833	-0.853816	-0.645147	-0.559468	0.520366	-0.648276	0.761263	0.014738
12916		-0.415333	-0.330901	-0.847350	-0.637530	-0.558570	0.530618	-0.648886	0.760594	0.021033
12917		-0.426092	-0.333891	-0.840810	-0.629236	-0.558389	0.540614	-0.650005	0.759420	0.027829
12918		-0.436682	-0.336512	-0.834307	-0.620541	-0.558780	0.550176	-0.651335	0.757974	0.035189
12919		-0.446890	-0.338934	-0.827897	-0.611943	-0.559236	0.559268	-0.652544	0.756557	0.042509
12920		-0.456837	-0.340782	-0.821686	-0.603276	-0.560141	0.567716	-0.653727	0.755057	0.050308
12921		-0.466754	-0.341538	-0.815778	-0.593738	-0.562625	0.575263	-0.655451	0.752865	0.059823
12922		-0.476530	-0.341447	-0.810144	-0.584033	-0.565835	0.582011	-0.657134	0.750496	0.070221
12923		-0.485794	-0.341084	-0.804777	-0.574540	-0.569266	0.588082	-0.658717	0.748063	0.080580
12924		-0.494804	-0.340599	-0.799476	-0.564781	-0.573156	0.593729	-0.660448	0.745308	0.091236
12925		-0.503501	-0.339889	-0.794331	-0.554347	-0.578100	0.598748	-0.662711	0.741806	0.102658
12926		-0.512172	-0.338811	-0.789232	-0.544337	-0.582742	0.603414	-0.664362	0.738660	0.114037
12927		-0.521011	-0.337470	-0.784004	-0.533626	-0.588101	0.607767	-0.666177	0.735018	0.126324
12928		-0.529416	-0.336422	-0.778806	-0.523578	-0.592754	0.611971	-0.667521	0.731753	0.137671
12929		-0.537851	-0.335266	-0.773507	-0.513430	-0.597467	0.615973	-0.668660	0.728443	0.149212
12930		-0.545878	-0.334326	-0.768273	-0.504193	-0.601266	0.619894	-0.669183	0.725744	0.159653
12931		-0.553254	-0.333563	-0.763312	-0.495969	-0.604307	0.623561	-0.669271	0.723567	0.168899
12932		-0.559983	-0.332739	-0.758751	-0.488567	-0.607007	0.626773	-0.669119	0.721683	0.177348
12933		-0.565910	-0.331864	-0.754727	-0.482411	-0.609067	0.629537	-0.668600	0.720349	0.184582
12934		-0.571053	-0.331030	-0.751211	-0.477507	-0.610408	0.631973	-0.667747	0.719598	0.190506
12935		-0.575749	-0.330106	-0.748026	-0.473122	-0.611640	0.634076	-0.666835	0.718976	0.195971
12936		-0.579996	-0.329223	-0.745129	-0.469544	-0.612353	0.636044	-0.665682	0.718774	0.200577
12937		-0.583838	-0.328324	-0.742520	-0.466882	-0.612445	0.637913	-0.664195	0.719107	0.204280
12938		-0.587621	-0.327048	-0.740095	-0.464277	-0.612834	0.639438	-0.662682	0.719357	0.208273
12939		-0.590907	-0.325678	-0.738080	-0.463324	-0.611960	0.640965	-0.660424	0.720721	0.210717
12940		-0.593997	-0.324065	-0.736308	-0.462448	-0.611380	0.642149	-0.658262	0.721939	0.213295
12941		-0.596499	-0.322410	-0.735011	-0.462172	-0.610726	0.642970	-0.656190	0.723232	0.215289
12942		-0.598809	-0.320879	-0.733802	-0.462031	-0.609988	0.643771	-0.654183	0.724535	0.217011
12943		-0.601087	-0.319221	-0.732661	-0.461982	-0.609277	0.644480	-0.652125	0.725865	0.218754
12944		-0.603515	-0.317295	-0.731501	-0.461246	-0.609409	0.644882	-0.650401	0.726598	0.221437
12945		-0.606014	-0.315194	-0.730342	-0.460303	-0.609850	0.645138	-0.648743	0.727142	0.224493
12946		-0.608687	-0.312920	-0.729096	-0.458651	-0.611062	0.645168	-0.647409	0.727106	0.228425
12947		-0.611452	-0.310656	-0.727750	-0.456489	-0.612746	0.645104	-0.646331	0.726660	0.232854
12948		-0.613944	-0.308575	-0.726536	-0.454714	-0.614102	0.645069	-0.645219	0.726402	0.236711
12949		-0.616024	-0.306950	-0.725463	-0.453269	-0.615093	0.645142	-0.644253	0.726253	0.239781
12950		-0.617940	-0.305588	-0.724408	-0.451921	-0.615901	0.645316	-0.643364	0.726142	0.242488
12951		-0.619511	-0.304673	-0.723451	-0.451293	-0.615844	0.645810	-0.642294	0.726575	0.244025
12952		-0.620900	-0.304095	-0.722502	-0.451621	-0.614580	0.646784	-0.640719	0.727886	0.244257
12953		-0.622223	-0.303865	-0.721460	-0.452227	-0.612746	0.648100	-0.639006	0.729526	0.243849
12954		-0.623494	-0.304067	-0.720276	-0.452714	-0.610696	0.649692	-0.637420	0.731159	0.243110
12955		-0.624700	-0.304829	-0.718908	-0.452664	-0.608813	0.651492	-0.636274	0.732411	0.242341
12956		-0.625749	-0.306079	-0.717463	-0.451948	-0.607404	0.653302	-0.635752	0.733059	0.241751
12957		-0.626742	-0.307665	-0.715917	-0.450526	-0.606552	0.655073	-0.635784	0.733101	0.241540
12958		-0.627753	-0.309546	-0.714218	-0.447860	-0.606829	0.656643	-0.636670	0.732079	0.242305
12959		-0.628822	-0.311741	-0.712320	-0.444036	-0.608061	0.658099	-0.638291	0.730123	0.243938
12960		-0.629927	-0.314230	-0.710247	-0.439769	-0.609455	0.659673	-0.640152	0.727891	0.245724
12961		-0.630966	-0.317103	-0.708045	-0.435432	-0.610597	0.661491	-0.642091	0.725684	0.247189
12962		-0.631948	-0.320285	-0.705733	-0.431337	-0.611194	0.663619	-0.643887	0.723782	0.248092
12963		-0.632702	-0.323875	-0.703416	-0.427632	-0.611163	0.666041	-0.645616	0.722208	0.248184
12964		-0.633164	-0.327929	-0.701117	-0.423759	-0.611140	0.668533	-0.647712	0.720396	0.247989
12965		-0.633283	-0.332522	-0.698843	-0.419487	-0.611354	0.671027	-0.650372	0.718105	0.247671
12966		-0.633097	-0.337694	-0.696527	-0.415073	-0.611420	0.673706	-0.653377	0.715631	0.246921
12967		-0.632503	-0.343421	-0.694264	-0.410891	-0.611052	0.676598	-0.656589	0.713217	0.245383
12968		-0.631573	-0.349605	-0.692020	-0.406513	-0.610719	0.679536	-0.660199	0.710492	0.243595
12969		-0.630018	-0.356420	-0.689958	-0.401990	-0.610483	0.682433	-0.664441	0.707301	0.241338
12970		-0.627569	-0.364093	-0.688181	-0.397586	-0.610099	0.685351	-0.669390	0.703716	0.238121
12971		-0.624543	-0.372322	-0.686529	-0.392956	-0.609865	0.688222	-0.674931	0.699600	0.234580
12972		-0.621170	-0.380899	-0.684882	-0.387692	-0.610141	0.690958	-0.681060	0.694726	0.231330
12973		-0.617471	-0.389858	-0.683184	-0.381807	-0.610808	0.693640	-0.687715	0.689147	0.228306
12974		-0.613504	-0.399125	-0.681405	-0.375928	-0.611221	0.696482	-0.694472	0.683453	0.224944
12975		-0.609514	-0.408479	-0.679439	-0.369723	-0.611666	0.699406	-0.701283	0.677502	0.221795
12976		-0.605404	-0.417994	-0.677324	-0.362894	-0.612431	0.702308	-0.708375	0.670976	0.219081
12977		-0.601035	-0.427750	-0.675120	-0.355871	-0.613125	0.705290	-0.715620	0.664159	0.216286
12978		-0.596650	-0.437639	-0.672667	-0.348712	-0.613554	0.708485	-0.722778	0.657285	0.213467
12979		-0.592098	-0.447786	-0.670006	-0.341934	-0.613259	0.712035	-0.729727	0.650693	0.209996
12980		-0.587096	-0.458340	-0.667265	-0.335980	-0.611967	0.715970	-0.736502	0.644531	0.205291
12981		-0.581831	-0.469033	-0.664440	-0.331509	-0.609245	0.720363	-0.742680	0.639397	0.198990
12982		-0.576106	-0.479937	-0.661636	-0.329358	-0.604536	0.725300	-0.748081	0.635765	0.190206
12983		-0.570008	-0.490954	-0.658828	-0.329184	-0.598221	0.730595	-0.752814	0.633321	0.179377
12984		-0.564063	-0.501784	-0.655778	-0.330482	-0.590610	0.736181	-0.756713	0.631975	0.167310
12985		-0.558371	-0.512354	-0.652468	-0.332990	-0.581936	0.741935	-0.759828	0.631541	0.154328
12986		-0.552449	-0.523045	-0.649018	-0.337327	-0.571726	0.747890	-0.762241	0.632102	0.139413
12987		-0.546232	-0.533867	-0.645458	-0.342791	-0.560620	0.753790	-0.764281	0.633002	0.123224
12988		-0.539587	-0.544740	-0.641953	-0.348038	-0.549961	0.759218	-0.766626	0.633089	0.107162
12989		-0.532835	-0.555579	-0.638293	-0.353275	-0.539368	0.764381	-0.768949	0.632783	0.091122
12990		-0.526248	-0.566219	-0.634397	-0.357710	-0.529423	0.769256	-0.771432	0.631750	0.076065
12991		-0.519645	-0.576710	-0.630376	-0.361827	-0.519840	0.773853	-0.773984	0.630216	0.061463
12992		-0.511991	-0.587562	-0.626607	-0.366620	-0.510221	0.777987	-0.776824	0.628049	0.045816
12993		-0.503451	-0.598672	-0.622999	-0.372285	-0.500375	0.781683	-0.779706	0.625472	0.029038
12994		-0.494196	-0.610106	-0.619307	-0.378272	-0.490496	0.785063	-0.782739	0.622242	0.011615
12995		-0.484461	-0.621788	-0.615368	-0.384429	-0.480553	0.788215	-0.785819	0.618425	-0.006225
12996		-0.474372	-0.633648	-0.611115	-0.390079	-0.471023	0.791186	-0.789183	0.613700	-0.023733
12997		-0.463873	-0.645697	-0.606545	-0.395442	-0.461753	0.793984	-0.792747	0.608161	-0.041141
12998		-0.452816	-0.657901	-0.601767	-0.398716	-0.454263	0.796662	-0.797485	0.600676	-0.056618
12999		-0.441464	-0.669810	-0.597046	-0.398771	-0.449615	0.799267	-0.803798	0.590932	-0.068612
13000		-0.429535	-0.681553	-0.592440	-0.395644	-0.447699	0.801892	-0.811767	0.578836	-0.077351
13001		-0.417369	-0.692864	-0.587998	-0.389478	-0.448221	0.804615	-0.821042	0.564834	-0.082782
13002		-0.405285	-0.703398	-0.583931	-0.381120	-0.450585	0.807292	-0.830958	0.549731	-0.085463
13003		-0.393586	-0.712981	-0.580301	-0.371420	-0.454101	0.809840	-0.840915	0.534276	-0.086088
13004		-0.382329	-0.721837	-0.576868	-0.360325	-0.458410	0.812420	-0.850877	0.518471	-0.084833
13005		-0.371878	-0.729880	-0.573569	-0.346825	-0.463892	0.815179	-0.861057	0.502075	-0.080630
13006		-0.361932	-0.737366	-0.570348	-0.331694	-0.469922	0.818018	-0.871197	0.485248	-0.074500
13007		-0.352388	-0.744343	-0.567253	-0.315819	-0.475993	0.820786	-0.880955	0.468384	-0.067343
13008		-0.343294	-0.750933	-0.564136	-0.300381	-0.481312	0.823475	-0.889899	0.452150	-0.060334
13009		-0.334968	-0.757051	-0.560955	-0.285773	-0.485679	0.826105	-0.897848	0.437025	-0.053658
13010		-0.327303	-0.762917	-0.557522	-0.272191	-0.488890	0.828794	-0.904867	0.423019	-0.047644
13011		-0.320229	-0.768473	-0.553987	-0.259969	-0.491047	0.831438	-0.910972	0.410270	-0.042531
13012		-0.313501	-0.773785	-0.550430	-0.248652	-0.492533	0.834016	-0.916455	0.398331	-0.037993
13013		-0.306976	-0.778855	-0.546947	-0.238517	-0.493394	0.836464	-0.921344	0.387231	-0.034310
13014		-0.300720	-0.783725	-0.543454	-0.229623	-0.493569	0.838846	-0.925657	0.377048	-0.031536
13015		-0.295037	-0.788272	-0.539982	-0.221264	-0.493411	0.841183	-0.929514	0.367658	-0.028841
13016		-0.289842	-0.792617	-0.536422	-0.213599	-0.492773	0.843534	-0.932935	0.359071	-0.026476
13017		-0.285443	-0.796644	-0.532804	-0.205942	-0.491962	0.845908	-0.936008	0.351185	-0.023636
13018		-0.281383	-0.800533	-0.529122	-0.197879	-0.491144	0.848305	-0.938972	0.343400	-0.020209
13019		-0.277486	-0.804251	-0.525530	-0.189164	-0.490566	0.850624	-0.941923	0.335448	-0.016010
13020		-0.273854	-0.807807	-0.521969	-0.180750	-0.489818	0.852882	-0.944634	0.327911	-0.011873
13021		-0.270818	-0.811008	-0.518578	-0.172668	-0.489046	0.854997	-0.947018	0.321090	-0.007592
13022		-0.268097	-0.813877	-0.515488	-0.164530	-0.488535	0.856892	-0.949238	0.314544	-0.002933
13023		-0.265194	-0.816489	-0.512853	-0.156492	-0.488397	0.858474	-0.951411	0.307919	0.001746
13024		-0.262264	-0.818782	-0.510699	-0.148139	-0.488791	0.859732	-0.953558	0.301131	0.006899
13025		-0.259545	-0.820670	-0.509055	-0.140009	-0.489574	0.860648	-0.955528	0.294649	0.012165
13026		-0.257386	-0.822126	-0.507801	-0.132834	-0.490414	0.861307	-0.957135	0.289141	0.017020
13027		-0.256358	-0.823075	-0.506782	-0.126908	-0.491103	0.861808	-0.958215	0.285245	0.021443
13028		-0.256219	-0.823608	-0.505986	-0.120779	-0.492080	0.862131	-0.959043	0.282007	0.026606
13029		-0.256107	-0.823976	-0.505443	-0.113980	-0.493493	0.862249	-0.959905	0.278439	0.032470
13030		-0.256038	-0.824120	-0.505243	-0.106986	-0.495296	0.862112	-0.960728	0.274787	0.038645
13031		-0.256319	-0.824010	-0.505280	-0.100943	-0.497066	0.861821	-0.961307	0.271906	0.044229
13032		-0.256947	-0.823748	-0.505389	-0.094765	-0.498950	0.861434	-0.961768	0.269236	0.050141
13033		-0.257404	-0.823541	-0.505493	-0.089488	-0.500556	0.861066	-0.962151	0.266878	0.055148
13034		-0.257902	-0.823359	-0.505536	-0.084291	-0.502067	0.860711	-0.962487	0.264591	0.060083
13035		-0.258602	-0.823181	-0.505468	-0.079228	-0.503430	0.860396	-0.962729	0.262547	0.064969
13036		-0.259722	-0.822934	-0.505296	-0.073683	-0.504840	0.860063	-0.962868	0.260609	0.070482
13037		-0.260964	-0.822647	-0.505124	-0.067820	-0.506339	0.859663	-0.962963	0.258598	0.076345
13038		-0.262202	-0.822329	-0.505000	-0.062269	-0.507801	0.859221	-0.963002	0.256735	0.081941
13039		-0.263030	-0.822013	-0.505083	-0.057668	-0.509186	0.858722	-0.963063	0.254997	0.086527
13040		-0.263722	-0.821617	-0.505367	-0.054024	-0.510511	0.858172	-0.963085	0.253621	0.090246
13041		-0.264983	-0.820921	-0.505839	-0.051539	-0.511783	0.857567	-0.962875	0.253311	0.093304
13042		-0.266755	-0.819880	-0.506596	-0.050086	-0.513139	0.856843	-0.962462	0.253941	0.095818
13043		-0.268892	-0.818530	-0.507647	-0.049415	-0.514641	0.855981	-0.961902	0.255252	0.097935
13044		-0.271400	-0.816839	-0.509035	-0.048960	-0.516484	0.854896	-0.961220	0.256941	0.100182
13045		-0.274192	-0.814851	-0.510721	-0.048576	-0.518661	0.853599	-0.960447	0.258859	0.102631
13046		-0.277534	-0.812431	-0.512768	-0.047846	-0.521384	0.851979	-0.959524	0.260987	0.105830
13047		-0.281327	-0.809519	-0.515300	-0.046899	-0.524747	0.849965	-0.958465	0.263285	0.109660
13048		-0.285434	-0.806058	-0.518457	-0.045973	-0.528824	0.847486	-0.957295	0.265736	0.113887
13049		-0.289728	-0.802139	-0.522141	-0.044883	-0.533552	0.844575	-0.956056	0.268132	0.118583
13050		-0.294139	-0.797742	-0.526394	-0.043669	-0.538966	0.841195	-0.954765	0.270415	0.123694
13051		-0.298611	-0.792858	-0.531233	-0.042175	-0.545122	0.837295	-0.953443	0.272430	0.129340
13052		-0.303514	-0.787363	-0.536599	-0.041139	-0.551812	0.832953	-0.951938	0.274888	0.135091
13053		-0.308845	-0.781293	-0.542398	-0.040169	-0.559054	0.828157	-0.950264	0.277560	0.141277
13054		-0.314779	-0.774498	-0.548696	-0.039573	-0.566871	0.822855	-0.948340	0.280731	0.147790
13055		-0.321246	-0.767045	-0.555376	-0.039580	-0.575073	0.817144	-0.946168	0.284486	0.154380
13056		-0.327737	-0.759079	-0.562483	-0.040996	-0.583378	0.811165	-0.943879	0.288909	0.160075
13057		-0.334112	-0.750656	-0.569987	-0.044259	-0.591577	0.805033	-0.941494	0.294198	0.164429
13058		-0.340657	-0.741612	-0.577896	-0.048718	-0.599911	0.798582	-0.938924	0.300197	0.168234
13059		-0.347512	-0.731914	-0.586120	-0.053805	-0.608483	0.791741	-0.936131	0.306676	0.172074
13060		-0.354665	-0.721603	-0.594560	-0.059342	-0.617243	0.784531	-0.933108	0.313528	0.176093
13061		-0.361906	-0.710656	-0.603318	-0.064331	-0.626606	0.776676	-0.929992	0.319896	0.181055
13062		-0.368867	-0.698971	-0.612680	-0.069755	-0.636486	0.768127	-0.926861	0.326075	0.186022
13063		-0.375576	-0.686450	-0.622679	-0.076530	-0.646600	0.758981	-0.923626	0.332709	0.190314
13064		-0.382341	-0.672919	-0.633242	-0.082797	-0.657605	0.748799	-0.920304	0.338727	0.195713
13065		-0.389572	-0.658252	-0.644157	-0.086979	-0.669992	0.737255	-0.916880	0.343242	0.203756
13066		-0.397338	-0.642398	-0.655322	-0.089609	-0.683540	0.724392	-0.913287	0.346551	0.214032
13067		-0.405483	-0.625563	-0.666525	-0.092047	-0.697509	0.710640	-0.909456	0.349504	0.225247
13068		-0.413735	-0.607971	-0.677639	-0.093811	-0.711901	0.695986	-0.905551	0.351524	0.237504
13069		-0.422223	-0.589801	-0.688377	-0.093619	-0.726954	0.680275	-0.901645	0.351673	0.251720
13070		-0.431114	-0.570839	-0.698773	-0.092836	-0.742266	0.663644	-0.897509	0.350977	0.267007
13071		-0.439996	-0.551307	-0.708847	-0.093377	-0.756994	0.646715	-0.893132	0.350742	0.281595
13072		-0.448183	-0.531526	-0.718757	-0.096585	-0.770533	0.630040	-0.888709	0.351795	0.294003
13073		-0.456249	-0.511397	-0.728224	-0.101586	-0.783081	0.613567	-0.884034	0.353917	0.305329
13074		-0.464966	-0.490690	-0.736906	-0.105862	-0.795566	0.596547	-0.878977	0.355384	0.317965
13075		-0.473992	-0.469560	-0.744879	-0.110692	-0.807459	0.579446	-0.873544	0.357106	0.330753
13076		-0.482564	-0.448270	-0.752454	-0.118067	-0.817967	0.563018	-0.867867	0.360532	0.341795
13077		-0.490333	-0.427128	-0.759694	-0.126899	-0.827394	0.547097	-0.862247	0.364664	0.351497
13078		-0.497676	-0.405777	-0.766592	-0.137072	-0.835918	0.531462	-0.856463	0.369575	0.360396
13079		-0.505053	-0.383867	-0.773025	-0.148572	-0.843613	0.515988	-0.850205	0.375451	0.369037
13080		-0.512611	-0.361098	-0.778998	-0.160394	-0.851025	0.500031	-0.843507	0.381268	0.378327
13081		-0.520486	-0.337294	-0.784428	-0.172227	-0.858322	0.483344	-0.836321	0.386673	0.388654
13082		-0.528100	-0.312630	-0.789540	-0.184960	-0.865095	0.466262	-0.828795	0.392267	0.399032
13083		-0.535483	-0.287194	-0.794215	-0.197866	-0.871569	0.448572	-0.821040	0.397351	0.409884
13084		-0.542657	-0.260918	-0.798402	-0.211020	-0.877695	0.430258	-0.813015	0.401961	0.421228
13085		-0.549407	-0.234045	-0.802106	-0.226027	-0.882548	0.412336	-0.804402	0.407838	0.431977
13086		-0.555899	-0.206634	-0.805158	-0.242344	-0.886245	0.394764	-0.795139	0.414574	0.442586
13087		-0.562163	-0.179069	-0.807408	-0.259450	-0.888808	0.377765	-0.785276	0.421848	0.453195
13088		-0.567997	-0.151484	-0.808970	-0.277553	-0.890082	0.361550	-0.774819	0.429891	0.463519
13089		-0.573104	-0.123920	-0.810059	-0.296661	-0.890081	0.346045	-0.763900	0.438633	0.473347
13090		-0.577679	-0.095923	-0.810608	-0.317285	-0.888591	0.331264	-0.752075	0.448558	0.482885
13091		-0.581943	-0.067405	-0.810432	-0.338213	-0.886226	0.316568	-0.739564	0.458323	0.492936
13092		-0.585505	-0.038663	-0.809746	-0.358162	-0.883750	0.301174	-0.727258	0.466359	0.503593
13093		-0.588567	-0.009999	-0.808387	-0.377505	-0.880817	0.285747	-0.714898	0.473351	0.514645
13094		-0.590863	0.018211	-0.806567	-0.396414	-0.877289	0.270591	-0.702665	0.479616	0.525576
13095		-0.592878	0.045591	-0.804001	-0.414522	-0.873244	0.256155	-0.690411	0.485145	0.536626
13096		-0.594971	0.072095	-0.800507	-0.431216	-0.869126	0.242224	-0.678279	0.489308	0.548194
13097		-0.597506	0.097447	-0.795922	-0.445882	-0.865361	0.228779	-0.666465	0.491584	0.560508
13098		-0.600262	0.121536	-0.790515	-0.458397	-0.862222	0.215514	-0.655407	0.491735	0.573271
13099		-0.603087	0.144591	-0.784461	-0.469338	-0.859510	0.202399	-0.644987	0.490242	0.586221
13100		-0.605622	0.167097	-0.778011	-0.479804	-0.856667	0.189500	-0.634831	0.488058	0.598990
13101		-0.607717	0.188331	-0.771499	-0.489199	-0.854051	0.176864	-0.625591	0.484900	0.611153
13102		-0.609083	0.208429	-0.765229	-0.499129	-0.850555	0.165611	-0.616351	0.482818	0.622092
13103		-0.609930	0.227104	-0.759216	-0.509612	-0.846086	0.156317	-0.606862	0.482248	0.631788
13104		-0.610280	0.244633	-0.753468	-0.520163	-0.841106	0.148225	-0.597485	0.482385	0.640559
13105		-0.610451	0.260980	-0.747823	-0.529958	-0.836259	0.140764	-0.588637	0.482245	0.648803
13106		-0.610245	0.276312	-0.742464	-0.540045	-0.830789	0.134690	-0.579614	0.483158	0.656206
13107		-0.609946	0.290731	-0.737185	-0.550366	-0.824722	0.130120	-0.570142	0.485088	0.663044
13108		-0.609562	0.304570	-0.731896	-0.560290	-0.818663	0.125962	-0.560811	0.486856	0.669673
13109		-0.609036	0.318124	-0.726548	-0.569953	-0.812573	0.121979	-0.551569	0.488388	0.676202
13110		-0.608110	0.331606	-0.721276	-0.579378	-0.806519	0.117678	-0.542700	0.489453	0.682578
13111		-0.606370	0.344617	-0.716628	-0.589204	-0.799919	0.113880	-0.533999	0.491293	0.688096
13112		-0.604290	0.357560	-0.712028	-0.598354	-0.793753	0.109216	-0.526124	0.492043	0.693605
13113		-0.602106	0.370687	-0.707149	-0.606341	-0.788514	0.102934	-0.519441	0.490751	0.699532
13114		-0.599648	0.383956	-0.702140	-0.613965	-0.783485	0.095906	-0.513292	0.488599	0.705551
13115		-0.596663	0.396585	-0.697649	-0.621840	-0.778006	0.089562	-0.507256	0.487264	0.710820
13116		-0.593331	0.408870	-0.693386	-0.629275	-0.772760	0.082796	-0.501968	0.485456	0.715794
13117		-0.590279	0.420876	-0.688792	-0.635341	-0.768597	0.074834	-0.497907	0.481791	0.721087
13118		-0.587518	0.432543	-0.683907	-0.640623	-0.764969	0.066523	-0.494393	0.477210	0.726530
13119		-0.584581	0.443315	-0.679512	-0.646030	-0.761005	0.059296	-0.490826	0.473649	0.731264
13120		-0.581272	0.453100	-0.675887	-0.652068	-0.756248	0.053815	-0.486755	0.472006	0.735038
13121		-0.577748	0.462111	-0.672800	-0.658391	-0.751045	0.049521	-0.482419	0.471576	0.738165
13122		-0.573905	0.470501	-0.670270	-0.665385	-0.745036	0.046739	-0.477385	0.472811	0.740644
13123		-0.569962	0.478256	-0.668143	-0.672589	-0.738644	0.045033	-0.471982	0.475053	0.742669
13124		-0.566181	0.485727	-0.665964	-0.679628	-0.732253	0.043723	-0.466417	0.477363	0.744701
13125		-0.562810	0.492903	-0.663544	-0.686083	-0.726286	0.042417	-0.461015	0.479119	0.746934
13126		-0.559765	0.499827	-0.660935	-0.691952	-0.720781	0.040949	-0.455922	0.480258	0.749325
13127		-0.556778	0.505910	-0.658827	-0.697427	-0.715542	0.039937	-0.451214	0.481720	0.751234
13128		-0.554072	0.511643	-0.656678	-0.702603	-0.710499	0.039244	-0.446490	0.483128	0.753149
13129		-0.551788	0.517084	-0.654335	-0.707220	-0.705944	0.038517	-0.442008	0.484012	0.755223
13130		-0.549646	0.522153	-0.652108	-0.711502	-0.701663	0.037876	-0.437783	0.484795	0.757179
13131		-0.547270	0.526551	-0.650568	-0.716054	-0.696998	0.038228	-0.433315	0.486763	0.758485
13132		-0.544585	0.530223	-0.649839	-0.720794	-0.692028	0.039401	-0.428815	0.489857	0.759050
13133		-0.541956	0.533495	-0.649359	-0.725004	-0.687570	0.040201	-0.425033	0.492575	0.759419
13134		-0.539465	0.536255	-0.649159	-0.728711	-0.683600	0.040868	-0.421850	0.495096	0.759554
13135		-0.537067	0.538423	-0.649353	-0.732235	-0.679756	0.041985	-0.418797	0.498028	0.759327
13136		-0.534728	0.540222	-0.649789	-0.735564	-0.676074	0.043239	-0.415947	0.501083	0.758884
13137		-0.532228	0.541378	-0.650879	-0.738846	-0.672377	0.044899	-0.413329	0.504795	0.757853
13138		-0.529471	0.541844	-0.652737	-0.742237	-0.668477	0.047159	-0.410786	0.509455	0.756115
13139		-0.526730	0.541521	-0.655218	-0.745624	-0.664471	0.050239	-0.408167	0.515008	0.753768
13140		-0.524676	0.541191	-0.657136	-0.747927	-0.661726	0.052195	-0.406597	0.518875	0.751962
13141		-0.523118	0.540678	-0.658798	-0.749371	-0.659996	0.053375	-0.405945	0.521605	0.750424
13142		-0.521275	0.539324	-0.661364	-0.751192	-0.657728	0.055717	-0.404948	0.525855	0.747993
13143		-0.519206	0.537442	-0.664516	-0.753263	-0.655093	0.058726	-0.403758	0.531046	0.744963
13144		-0.517236	0.535348	-0.667734	-0.754944	-0.652916	0.061323	-0.403146	0.535820	0.741869
13145		-0.515211	0.532795	-0.671332	-0.756257	-0.651177	0.063587	-0.403277	0.540461	0.738424
13146		-0.512974	0.529845	-0.675368	-0.757088	-0.650066	0.065050	-0.404567	0.544683	0.734606
13147		-0.510684	0.526519	-0.679691	-0.756987	-0.650179	0.065103	-0.407643	0.547764	0.730604
13148		-0.508319	0.522562	-0.684501	-0.756676	-0.650521	0.065297	-0.411161	0.551137	0.726082
13149		-0.505217	0.516676	-0.691232	-0.757390	-0.649395	0.068168	-0.413661	0.557972	0.719411
13150		-0.502641	0.510762	-0.697477	-0.757442	-0.649081	0.070534	-0.416693	0.563752	0.713127
13151		-0.501210	0.505539	-0.702295	-0.756638	-0.649833	0.072218	-0.419866	0.567580	0.708213
13152		-0.500195	0.500176	-0.706844	-0.755764	-0.650600	0.074437	-0.422642	0.571440	0.703442
13153		-0.499443	0.494563	-0.711311	-0.754859	-0.651332	0.077160	-0.425140	0.575477	0.698629
13154		-0.498853	0.488075	-0.716190	-0.754346	-0.651397	0.081511	-0.426741	0.580917	0.693129
13155		-0.497697	0.480086	-0.722368	-0.754238	-0.650794	0.087136	-0.428280	0.588205	0.685997
13156		-0.496590	0.472906	-0.727844	-0.753209	-0.651515	0.090583	-0.431364	0.593202	0.679733
13157		-0.495476	0.466346	-0.732819	-0.752059	-0.652462	0.093276	-0.434638	0.597339	0.674000
13158		-0.494127	0.459786	-0.737858	-0.751589	-0.652501	0.096725	-0.436980	0.602361	0.667989
13159		-0.491821	0.453472	-0.743287	-0.752681	-0.650572	0.101129	-0.437702	0.609196	0.661285
13160		-0.489249	0.448521	-0.747973	-0.753960	-0.648598	0.104235	-0.438382	0.614939	0.655493
13161		-0.486472	0.445212	-0.751752	-0.754791	-0.647514	0.104959	-0.440041	0.618475	0.651040
13162		-0.482554	0.441956	-0.756186	-0.756076	-0.646021	0.104915	-0.442144	0.622360	0.645892
13163		-0.477675	0.438461	-0.761301	-0.757464	-0.644531	0.104059	-0.445056	0.626364	0.639994
13164		-0.472558	0.435497	-0.766180	-0.758035	-0.644297	0.101315	-0.449525	0.628668	0.634590
13165		-0.466482	0.432152	-0.771777	-0.759086	-0.643498	0.098488	-0.454075	0.631787	0.628220
13166		-0.459137	0.428713	-0.778073	-0.761716	-0.640690	0.096469	-0.457146	0.636963	0.620722
13167		-0.449662	0.424650	-0.785797	-0.766231	-0.635498	0.095039	-0.459014	0.644838	0.611139
13168		-0.438908	0.420938	-0.793833	-0.771896	-0.628863	0.093318	-0.459931	0.653714	0.600933
13169		-0.427683	0.418470	-0.801230	-0.778434	-0.621076	0.091137	-0.459487	0.662682	0.591375
13170		-0.415879	0.416796	-0.808286	-0.785904	-0.611936	0.088815	-0.457601	0.672172	0.582053
13171		-0.402268	0.414655	-0.816236	-0.795168	-0.600112	0.087024	-0.453748	0.684052	0.571126
13172		-0.386866	0.412254	-0.824852	-0.806490	-0.584976	0.085888	-0.447111	0.698463	0.558786
13173		-0.369983	0.409042	-0.834144	-0.819101	-0.567298	0.085123	-0.438390	0.714743	0.544938
13174		-0.351481	0.405477	-0.843830	-0.832155	-0.548272	0.083162	-0.428928	0.731427	0.530127
13175		-0.332089	0.402325	-0.853142	-0.844927	-0.528948	0.079449	-0.419304	0.747227	0.515593
13176		-0.311735	0.399395	-0.862151	-0.857737	-0.508662	0.074499	-0.408789	0.762723	0.501144
13177		-0.290571	0.395754	-0.871176	-0.870394	-0.487519	0.068842	-0.397470	0.778270	0.486121
13178		-0.268671	0.391298	-0.880171	-0.883157	-0.464837	0.062930	-0.384511	0.794237	0.470466
13179		-0.246771	0.386877	-0.888499	-0.895886	-0.440617	0.056966	-0.369449	0.810051	0.455329
13180		-0.224606	0.382260	-0.896342	-0.908192	-0.415511	0.050374	-0.353184	0.825365	0.440492
13181		-0.201730	0.376587	-0.904150	-0.920352	-0.388668	0.043461	-0.335047	0.840904	0.424999
13182		-0.177934	0.369481	-0.912043	-0.932142	-0.360311	0.035888	-0.315359	0.856539	0.408520
13183		-0.153920	0.362210	-0.919300	-0.943110	-0.331355	0.027351	-0.294708	0.871210	0.392606
13184		-0.130037	0.356144	-0.925339	-0.952566	-0.303863	0.016913	-0.275153	0.883645	0.378764
13185		-0.106551	0.351391	-0.930146	-0.960480	-0.278306	0.004887	-0.257148	0.893907	0.367158
13186		-0.083596	0.348804	-0.933460	-0.966576	-0.256217	-0.009179	-0.242370	0.901492	0.358564
13187		-0.061679	0.348115	-0.935421	-0.971011	-0.237781	-0.024464	-0.230941	0.906794	0.352689
13188		-0.039881	0.347537	-0.936818	-0.974205	-0.221934	-0.040859	-0.222112	0.911023	0.347423
13189		-0.018029	0.346847	-0.937748	-0.976481	-0.207646	-0.058028	-0.214847	0.914648	0.342433
13190		0.004395	0.345402	-0.938444	-0.978029	-0.194112	-0.076025	-0.208422	0.918160	0.336961
13191		0.027357	0.342927	-0.938964	-0.978856	-0.181291	-0.094730	-0.202711	0.921702	0.330717
13192		0.050859	0.339574	-0.939203	-0.978507	-0.171237	-0.114898	-0.199843	0.924861	0.323567
13193		0.074525	0.336134	-0.938861	-0.977223	-0.162976	-0.135920	-0.198699	0.927606	0.316332
13194		0.097607	0.332344	-0.938094	-0.975131	-0.156518	-0.156911	-0.198977	0.930080	0.308802
13195		0.119727	0.327519	-0.937228	-0.972279	-0.152296	-0.177425	-0.200846	0.932490	0.300206
13196		0.141004	0.322420	-0.936036	-0.969001	-0.148795	-0.197223	-0.202866	0.934829	0.291445
13197		0.161717	0.316745	-0.934623	-0.965677	-0.144280	-0.215987	-0.203260	0.937473	0.282541
13198		0.181828	0.311324	-0.932746	-0.962397	-0.138341	-0.233782	-0.201819	0.940180	0.274463
13199		0.201316	0.304837	-0.930885	-0.959131	-0.131574	-0.250512	-0.198846	0.943272	0.265890
13200		0.220602	0.296585	-0.929178	-0.955982	-0.123226	-0.266298	-0.193479	0.947023	0.256346
13201		0.239293	0.287643	-0.927362	-0.952616	-0.115165	-0.281530	-0.187779	0.950788	0.246455
13202		0.257022	0.278455	-0.925420	-0.949260	-0.106834	-0.295789	-0.181230	0.954489	0.236868
13203		0.273470	0.269087	-0.923475	-0.945970	-0.098660	-0.308880	-0.174225	0.958049	0.227568
13204		0.288218	0.260532	-0.921441	-0.942513	-0.092762	-0.321036	-0.169115	0.960999	0.218819
13205		0.300875	0.253602	-0.919326	-0.938893	-0.090237	-0.332171	-0.167196	0.963091	0.210955
13206		0.311603	0.247444	-0.917428	-0.935445	-0.089670	-0.341908	-0.166869	0.964744	0.203529
13207		0.320438	0.241687	-0.915919	-0.932353	-0.090443	-0.350053	-0.167441	0.966130	0.196356
13208		0.327693	0.235514	-0.914959	-0.929906	-0.090790	-0.356415	-0.167010	0.967621	0.189255
13209		0.333638	0.228911	-0.914487	-0.928184	-0.089822	-0.361119	-0.164805	0.969294	0.182504
13210		0.338232	0.222078	-0.914484	-0.927112	-0.088070	-0.364290	-0.161439	0.971043	0.176103
13211		0.341128	0.215612	-0.914955	-0.926546	-0.087069	-0.365967	-0.158571	0.972590	0.170073
13212		0.342056	0.209604	-0.916004	-0.926539	-0.087222	-0.365949	-0.156600	0.973888	0.164371
13213		0.341205	0.204502	-0.917474	-0.926980	-0.088621	-0.364493	-0.155847	0.974846	0.159331
13214		0.338714	0.199252	-0.919550	-0.928110	-0.089777	-0.361320	-0.154549	0.975827	0.154519
13215		0.334996	0.193167	-0.922206	-0.929889	-0.090045	-0.356648	-0.151933	0.977025	0.149459
13216		0.329895	0.186580	-0.925396	-0.932203	-0.090217	-0.350511	-0.148885	0.978289	0.144168
13217		0.323531	0.179661	-0.929005	-0.934997	-0.090048	-0.343032	-0.145285	0.979598	0.138850
13218		0.315658	0.172637	-0.933036	-0.938351	-0.089237	-0.333967	-0.140917	0.980935	0.133826
13219		0.306387	0.165587	-0.937394	-0.942204	-0.087492	-0.323414	-0.135567	0.982307	0.129210
13220		0.295439	0.158619	-0.942102	-0.946475	-0.085594	-0.311221	-0.130004	0.983623	0.124841
13221		0.283078	0.151740	-0.947017	-0.950970	-0.083864	-0.297697	-0.124593	0.984856	0.120560
13222		0.269107	0.145142	-0.952111	-0.955585	-0.083100	-0.282757	-0.120161	0.985915	0.116333
13223		0.253742	0.138722	-0.957273	-0.960277	-0.082673	-0.266519	-0.116113	0.986875	0.112234
13224		0.236789	0.132192	-0.962526	-0.965087	-0.082174	-0.248705	-0.111971	0.987812	0.108119
13225		0.218659	0.124753	-0.967794	-0.969950	-0.080666	-0.229544	-0.106705	0.988903	0.103366
13226		0.199197	0.116579	-0.973000	-0.974740	-0.078768	-0.208991	-0.101006	0.990053	0.097943
13227		0.178635	0.108707	-0.977892	-0.979165	-0.077908	-0.187528	-0.096572	0.991016	0.092525
13228		0.156735	0.101516	-0.982410	-0.983165	-0.078552	-0.164972	-0.093917	0.991728	0.087496
13229		0.134072	0.094295	-0.986475	-0.986689	-0.079748	-0.141724	-0.092033	0.992345	0.082348
13230		0.110417	0.086645	-0.990101	-0.989703	-0.081709	-0.117523	-0.091083	0.992883	0.076730
13231		0.086161	0.078899	-0.993152	-0.992072	-0.084743	-0.092800	-0.091484	0.993274	0.070972
13232		0.061153	0.070828	-0.995612	-0.993835	-0.088100	-0.067311	-0.092481	0.993590	0.065003
13233		0.035967	0.062134	-0.997420	-0.994927	-0.091600	-0.041584	-0.093947	0.993856	0.058524
13234		0.010475	0.052983	-0.998540	-0.995237	-0.096237	-0.015547	-0.096920	0.993947	0.051722
13235		-0.015162	0.043468	-0.998940	-0.994590	-0.103337	0.010600	-0.102766	0.993696	0.044800
13236		-0.041327	0.034199	-0.998560	-0.992742	-0.114379	0.037169	-0.112944	0.992848	0.038677
13237		-0.067678	0.026136	-0.997365	-0.989598	-0.128957	0.063772	-0.126950	0.991306	0.034591
13238		-0.093827	0.016956	-0.995444	-0.985357	-0.144557	0.090414	-0.142365	0.989351	0.030271
13239		-0.119096	0.005806	-0.992866	-0.980072	-0.160805	0.116621	-0.158980	0.986969	0.024842
13240		-0.143888	-0.006526	-0.989572	-0.973446	-0.178977	0.142723	-0.178042	0.983832	0.019400
13241		-0.168191	-0.019189	-0.985568	-0.965386	-0.198990	0.168622	-0.199354	0.979814	0.014944
13242		-0.192771	-0.031216	-0.980747	-0.955522	-0.221376	0.194859	-0.223197	0.974689	0.012848
13243		-0.217018	-0.041888	-0.975268	-0.944510	-0.243363	0.220626	-0.246585	0.969030	0.013251
13244		-0.240708	-0.052664	-0.969168	-0.932632	-0.263991	0.245979	-0.268806	0.963086	0.014428
13245		-0.264005	-0.062346	-0.962504	-0.919332	-0.285604	0.270663	-0.291770	0.956318	0.018084
13246		-0.287445	-0.070692	-0.955185	-0.904452	-0.308141	0.294983	-0.315185	0.948711	0.024636
13247		-0.310622	-0.078073	-0.947322	-0.889088	-0.328647	0.318612	-0.336210	0.941220	0.032671
13248		-0.334175	-0.084605	-0.938706	-0.873466	-0.346378	0.342169	-0.354096	0.934272	0.041851
13249		-0.357304	-0.090558	-0.929588	-0.857773	-0.361976	0.364963	-0.369539	0.927778	0.051658
13250		-0.380558	-0.096530	-0.919705	-0.841013	-0.377432	0.387611	-0.384542	0.920992	0.062452
13251		-0.402034	-0.104972	-0.909588	-0.826320	-0.386326	0.409814	-0.394416	0.916370	0.068576
13252		-0.422852	-0.114561	-0.898928	-0.813506	-0.389057	0.432252	-0.399254	0.914062	0.071317
13253		-0.443393	-0.124531	-0.887634	-0.800388	-0.390753	0.454633	-0.403462	0.912033	0.073584
13254		-0.464109	-0.133787	-0.875616	-0.785729	-0.394196	0.476696	-0.408940	0.909236	0.077829
13255		-0.484283	-0.142465	-0.863234	-0.770121	-0.398805	0.497863	-0.415191	0.905902	0.083419
13256		-0.504290	-0.150140	-0.850382	-0.754208	-0.403014	0.518412	-0.420550	0.902795	0.089999
13257		-0.523580	-0.157765	-0.837242	-0.739200	-0.404490	0.538489	-0.423611	0.900832	0.095163
13258		-0.542647	-0.165047	-0.823586	-0.723573	-0.406111	0.558135	-0.426586	0.898795	0.100952
13259		-0.561687	-0.171607	-0.809357	-0.707027	-0.408483	0.577281	-0.429674	0.896489	0.108109
13260		-0.580968	-0.177743	-0.794281	-0.689000	-0.412119	0.596185	-0.433306	0.893625	0.116963
13261		-0.600999	-0.182399	-0.778159	-0.668712	-0.418493	0.614563	-0.437750	0.889716	0.129541
13262		-0.621804	-0.185756	-0.760825	-0.646462	-0.426645	0.632503	-0.442094	0.885138	0.145205
13263		-0.642301	-0.188694	-0.742862	-0.622598	-0.436823	0.649275	-0.447013	0.879534	0.163091
13264		-0.662996	-0.190658	-0.723937	-0.596297	-0.450173	0.664660	-0.452620	0.872349	0.184774
13265		-0.683699	-0.191657	-0.704148	-0.569341	-0.463520	0.678970	-0.456516	0.865111	0.207789
13266		-0.703127	-0.192834	-0.684418	-0.543948	-0.474055	0.692382	-0.457966	0.859120	0.228429
13267		-0.720403	-0.194760	-0.665649	-0.522167	-0.479364	0.705373	-0.456466	0.855733	0.243638
13268		-0.736155	-0.196779	-0.647575	-0.503558	-0.480058	0.718313	-0.452223	0.854881	0.254308
13269		-0.750022	-0.199359	-0.630652	-0.487765	-0.477265	0.730960	-0.446712	0.855847	0.260719
13270		-0.762102	-0.202527	-0.614966	-0.473184	-0.474080	0.742527	-0.441924	0.856873	0.265465
13271		-0.772479	-0.206124	-0.600658	-0.459808	-0.470845	0.752915	-0.438011	0.857798	0.268941
13272		-0.781289	-0.210558	-0.587582	-0.447092	-0.468101	0.762227	-0.435541	0.858223	0.271583
13273		-0.789395	-0.214841	-0.575064	-0.434556	-0.466105	0.770654	-0.433608	0.858248	0.274581
13274		-0.797906	-0.218497	-0.561788	-0.421330	-0.464348	0.779013	-0.431077	0.858277	0.278447
13275		-0.806135	-0.222614	-0.548261	-0.406958	-0.464051	0.786792	-0.429572	0.857379	0.283493
13276		-0.814937	-0.226301	-0.533540	-0.389819	-0.467200	0.793577	-0.428857	0.854700	0.292523
13277		-0.823833	-0.230508	-0.517847	-0.370352	-0.472722	0.799608	-0.429114	0.850529	0.304075
13278		-0.832356	-0.235206	-0.501859	-0.350478	-0.478093	0.805352	-0.429359	0.846230	0.315509
13279		-0.840218	-0.239285	-0.486596	-0.331296	-0.483876	0.810005	-0.429274	0.841788	0.327287
13280		-0.847498	-0.242005	-0.472420	-0.313910	-0.489185	0.813731	-0.428029	0.837933	0.338615
13281		-0.853886	-0.243495	-0.459987	-0.298798	-0.494300	0.816325	-0.426143	0.834492	0.349320
13282		-0.858864	-0.244708	-0.449967	-0.286033	-0.499610	0.817664	-0.424897	0.830968	0.359103
13283		-0.862506	-0.245938	-0.442265	-0.275544	-0.504801	0.818078	-0.424452	0.827460	0.367627
13284		-0.865220	-0.246767	-0.436463	-0.266601	-0.510823	0.817303	-0.424639	0.823508	0.376186
13285		-0.867143	-0.247203	-0.432381	-0.258909	-0.517883	0.815330	-0.425475	0.818956	0.385075
13286		-0.868387	-0.247579	-0.429661	-0.252172	-0.525577	0.812513	-0.426981	0.813925	0.393972
13287		-0.869092	-0.247848	-0.428077	-0.246506	-0.533284	0.809224	-0.428851	0.808814	0.402377
13288		-0.869123	-0.248382	-0.427705	-0.242368	-0.539929	0.806061	-0.431141	0.804228	0.409065
13289		-0.868495	-0.249227	-0.428488	-0.240089	-0.544760	0.803489	-0.433674	0.800701	0.413285
13290		-0.867479	-0.250216	-0.429966	-0.239004	-0.548394	0.801337	-0.436299	0.797907	0.415917
13291		-0.866091	-0.251321	-0.432116	-0.238574	-0.551817	0.799112	-0.439283	0.795195	0.417966
13292		-0.864273	-0.252813	-0.434877	-0.238830	-0.554633	0.797083	-0.442710	0.792759	0.418975
13293		-0.861770	-0.254958	-0.438575	-0.240669	-0.555577	0.795872	-0.446576	0.791411	0.417419
13294		-0.858282	-0.258179	-0.443505	-0.244488	-0.554131	0.795717	-0.451197	0.791380	0.412478
13295		-0.854069	-0.261696	-0.449534	-0.249897	-0.551523	0.795848	-0.456199	0.792047	0.405641
13296		-0.849232	-0.265166	-0.456608	-0.256362	-0.548933	0.795582	-0.461609	0.792691	0.398193
13297		-0.843863	-0.268322	-0.464649	-0.263432	-0.547236	0.794441	-0.467439	0.792802	0.391108
13298		-0.838117	-0.270920	-0.473458	-0.270577	-0.547174	0.792079	-0.473654	0.791961	0.385291
13299		-0.831847	-0.273117	-0.483154	-0.278239	-0.548023	0.788831	-0.480223	0.790619	0.379880
13300		-0.825110	-0.275072	-0.493487	-0.286575	-0.548992	0.785164	-0.486897	0.789268	0.374150
13301		-0.818117	-0.276724	-0.504092	-0.295053	-0.550421	0.781013	-0.493587	0.787694	0.368660
13302		-0.811011	-0.278067	-0.514723	-0.303499	-0.552195	0.776511	-0.500149	0.785977	0.363443
13303		-0.803913	-0.279189	-0.525145	-0.311632	-0.554321	0.771760	-0.506566	0.784080	0.358622
13304		-0.796923	-0.280225	-0.535151	-0.319074	-0.556966	0.766799	-0.512937	0.781833	0.354447
13305		-0.789927	-0.281635	-0.544700	-0.325880	-0.559657	0.761962	-0.519440	0.779401	0.350308
13306		-0.782818	-0.283783	-0.553772	-0.331874	-0.562398	0.757343	-0.526361	0.776644	0.346075
13307		-0.775824	-0.286326	-0.562240	-0.336710	-0.565722	0.752718	-0.533594	0.773289	0.342492
13308		-0.768625	-0.289284	-0.570552	-0.341152	-0.569119	0.748144	-0.541138	0.769687	0.338749
13309		-0.761057	-0.292322	-0.579085	-0.345988	-0.572201	0.743558	-0.548712	0.766246	0.334338
13310		-0.753221	-0.295068	-0.587872	-0.350664	-0.576010	0.738408	-0.556501	0.762330	0.330393
13311		-0.744416	-0.298191	-0.597433	-0.356791	-0.578655	0.733388	-0.564398	0.759105	0.324368
13312		-0.734399	-0.301714	-0.607970	-0.366001	-0.578312	0.729108	-0.571578	0.757973	0.314285
13313		-0.723520	-0.305103	-0.619218	-0.376479	-0.577469	0.724426	-0.578604	0.757259	0.302945
13314		-0.711871	-0.308319	-0.631014	-0.386969	-0.577598	0.718773	-0.586084	0.755857	0.291866
13315		-0.699387	-0.311304	-0.643387	-0.397293	-0.578967	0.712008	-0.594151	0.753583	0.281243
13316		-0.685958	-0.313898	-0.656453	-0.408130	-0.580913	0.704251	-0.602405	0.751004	0.270371
13317		-0.671279	-0.316254	-0.670350	-0.420559	-0.582213	0.695815	-0.610340	0.749007	0.257824
13318		-0.655294	-0.318424	-0.684979	-0.434133	-0.583323	0.686486	-0.618158	0.747222	0.244010
13319		-0.637879	-0.320606	-0.700230	-0.448905	-0.584010	0.676326	-0.625775	0.745751	0.228606
13320		-0.619230	-0.322645	-0.715860	-0.465420	-0.583449	0.665561	-0.632408	0.745310	0.211124
13321		-0.599044	-0.324415	-0.732053	-0.482843	-0.582968	0.653461	-0.638756	0.744918	0.192582
13322		-0.578042	-0.324748	-0.748603	-0.500021	-0.584024	0.639450	-0.644862	0.743946	0.175210
13323		-0.556136	-0.323712	-0.765456	-0.516238	-0.587242	0.623414	-0.651315	0.741861	0.159475
13324		-0.532062	-0.323170	-0.782605	-0.533033	-0.590304	0.606149	-0.657864	0.739663	0.141818
13325		-0.506216	-0.323159	-0.799571	-0.552041	-0.590878	0.588315	-0.662568	0.739210	0.120715
13326		-0.479422	-0.322385	-0.816225	-0.571828	-0.590773	0.569210	-0.665708	0.739632	0.098881
13327		-0.453527	-0.318863	-0.832250	-0.590045	-0.592430	0.548519	-0.667952	0.739833	0.080539
13328		-0.427722	-0.313630	-0.847756	-0.604684	-0.597840	0.526256	-0.671872	0.737715	0.066063
13329		-0.401283	-0.307751	-0.862706	-0.619377	-0.602710	0.503103	-0.674792	0.736227	0.051243
13330		-0.375658	-0.299976	-0.876867	-0.632682	-0.608367	0.479169	-0.677196	0.734782	0.038749
13331		-0.350347	-0.291345	-0.890155	-0.644450	-0.614671	0.454822	-0.679663	0.733006	0.027591
13332		-0.324484	-0.282986	-0.902568	-0.656599	-0.619466	0.430279	-0.680873	0.732244	0.015198
13333		-0.298398	-0.274548	-0.914102	-0.669109	-0.622801	0.405479	-0.680627	0.732627	0.002140
13334		-0.271762	-0.266868	-0.924623	-0.682758	-0.623643	0.380672	-0.678224	0.734745	-0.012723
13335		-0.244724	-0.260501	-0.933943	-0.696709	-0.622651	0.356234	-0.674319	0.737866	-0.029115
13336		-0.218526	-0.254628	-0.942025	-0.708566	-0.622349	0.332590	-0.670955	0.740166	-0.044421
13337		-0.194983	-0.247793	-0.948989	-0.718745	-0.622261	0.310156	-0.667373	0.742557	-0.056769
13338		-0.172899	-0.241316	-0.954920	-0.728265	-0.621424	0.288899	-0.663126	0.745385	-0.068298
13339		-0.151716	-0.236008	-0.959835	-0.739058	-0.617729	0.268709	-0.656335	0.750141	-0.080705
13340		-0.131921	-0.230226	-0.964154	-0.750729	-0.611950	0.248843	-0.647305	0.756646	-0.092108
13341		-0.112736	-0.223876	-0.968075	-0.760047	-0.608129	0.229146	-0.640015	0.761616	-0.101598
13342		-0.093805	-0.216837	-0.971690	-0.769298	-0.603741	0.208994	-0.631967	0.767124	-0.110178
13343		-0.074893	-0.209662	-0.974902	-0.781179	-0.595316	0.188039	-0.619799	0.775655	-0.119199
13344		-0.054209	-0.204161	-0.977435	-0.798115	-0.579391	0.165284	-0.600062	0.789066	-0.131535
13345		-0.032043	-0.201679	-0.978927	-0.818447	-0.556881	0.141519	-0.573688	0.805735	-0.147219
13346		-0.010118	-0.202015	-0.979330	-0.835725	-0.536053	0.119211	-0.549055	0.819657	-0.163405
13347		0.008563	-0.203673	-0.979001	-0.850683	-0.516094	0.099929	-0.525610	0.831964	-0.177681
13348		0.021068	-0.206391	-0.978243	-0.858222	-0.505645	0.088198	-0.512847	0.837691	-0.187782
13349		0.026423	-0.209341	-0.977486	-0.860805	-0.501918	0.084223	-0.508249	0.839199	-0.193464
13350		0.028504	-0.213642	-0.976496	-0.859944	-0.503260	0.085004	-0.509591	0.837309	-0.198065
13351		0.028056	-0.217243	-0.975714	-0.857066	-0.507572	0.088367	-0.514443	0.833772	-0.200432
13352		0.026061	-0.220221	-0.975102	-0.853197	-0.513211	0.093103	-0.520937	0.829528	-0.201267
13353		0.023583	-0.222369	-0.974677	-0.848045	-0.520730	0.098284	-0.529399	0.824253	-0.200859
13354		0.021760	-0.223271	-0.974513	-0.842270	-0.529231	0.102445	-0.538616	0.818574	-0.199571
13355		0.021645	-0.223099	-0.974556	-0.836148	-0.538421	0.104687	-0.548077	0.812607	-0.198197
13356		0.023903	-0.221841	-0.974790	-0.830742	-0.546841	0.104079	-0.556144	0.807311	-0.197363
13357		0.028816	-0.220013	-0.975071	-0.826464	-0.553936	0.100564	-0.562252	0.802963	-0.197795
13358		0.036172	-0.218237	-0.975225	-0.823403	-0.559505	0.094666	-0.566303	0.799579	-0.199936
13359		0.045494	-0.217114	-0.975085	-0.821727	-0.563191	0.087062	-0.568062	0.797293	-0.204031
13360		0.055586	-0.216025	-0.974804	-0.820356	-0.566406	0.078741	-0.569145	0.795310	-0.208702
13361		0.065391	-0.214962	-0.974431	-0.819432	-0.568825	0.070494	-0.569434	0.793870	-0.213343
13362		0.074508	-0.214201	-0.973944	-0.819312	-0.569913	0.062663	-0.568486	0.793295	-0.217961
13363		0.082206	-0.213489	-0.973481	-0.819293	-0.570638	0.055957	-0.567451	0.792966	-0.221820
13364		0.087473	-0.212242	-0.973294	-0.818243	-0.572577	0.051322	-0.568179	0.791902	-0.223750
13365		0.090186	-0.210831	-0.973353	-0.816700	-0.574990	0.048873	-0.569972	0.790530	-0.224041
13366		0.090921	-0.209396	-0.973595	-0.814432	-0.578244	0.048309	-0.573091	0.788535	-0.223113
13367		0.090805	-0.208493	-0.973799	-0.811589	-0.582173	0.048966	-0.577129	0.785879	-0.222075
13368		0.090605	-0.208018	-0.973920	-0.809130	-0.585517	0.049785	-0.580603	0.783517	-0.221364
13369		0.091121	-0.207902	-0.973896	-0.808145	-0.586885	0.049672	-0.581892	0.782523	-0.221493
13370		0.092338	-0.208039	-0.973752	-0.808262	-0.586804	0.048723	-0.581538	0.782548	-0.222334
13371		0.094671	-0.208962	-0.973330	-0.809568	-0.585151	0.046882	-0.579342	0.783539	-0.224566
13372		0.097835	-0.210382	-0.972712	-0.812182	-0.581732	0.044131	-0.575142	0.785702	-0.227782
13373		0.101422	-0.211862	-0.972023	-0.815915	-0.576746	0.040574	-0.569206	0.788973	-0.231357
13374		0.105533	-0.213639	-0.971196	-0.821699	-0.568794	0.035833	-0.560065	0.794249	-0.235574
13375		0.109430	-0.215233	-0.970412	-0.828032	-0.559834	0.030795	-0.549898	0.800163	-0.239483
13376		0.112571	-0.216619	-0.969744	-0.833587	-0.551752	0.026484	-0.540796	0.805385	-0.242682
13377		0.115017	-0.217971	-0.969154	-0.838708	-0.544103	0.022837	-0.532297	0.810210	-0.245395
13378		0.116352	-0.218803	-0.968807	-0.843144	-0.537312	0.020091	-0.524948	0.814507	-0.247000
13379		0.116090	-0.219279	-0.968731	-0.846614	-0.531871	0.018937	-0.519392	0.817943	-0.247390
13380		0.114630	-0.220101	-0.968719	-0.850181	-0.526150	0.018942	-0.513861	0.821414	-0.247438
13381		0.112283	-0.221486	-0.968678	-0.854426	-0.519200	0.019674	-0.507295	0.825454	-0.247541
13382		0.109205	-0.223048	-0.968671	-0.858222	-0.512835	0.021333	-0.501527	0.829005	-0.247429
13383		0.105991	-0.224585	-0.968673	-0.861824	-0.506678	0.023173	-0.496010	0.832370	-0.247256
13384		0.102762	-0.226272	-0.968628	-0.865927	-0.499554	0.024830	-0.489500	0.836210	-0.247270
13385		0.099510	-0.228028	-0.968556	-0.870028	-0.492289	0.026513	-0.482855	0.840033	-0.247378
13386		0.096253	-0.229524	-0.968532	-0.874399	-0.484405	0.027897	-0.475565	0.844198	-0.247321
13387		0.093005	-0.231018	-0.968494	-0.879152	-0.475656	0.029035	-0.467377	0.848753	-0.247338
13388		0.089559	-0.232425	-0.968482	-0.884067	-0.466386	0.030174	-0.458699	0.853501	-0.247248
13389		0.085751	-0.233656	-0.968531	-0.889291	-0.456266	0.031338	-0.449230	0.858619	-0.246913
13390		0.081801	-0.234599	-0.968644	-0.895272	-0.444368	0.032018	-0.437946	0.864581	-0.246379
13391		0.077951	-0.235190	-0.968818	-0.900776	-0.433055	0.032652	-0.427231	0.870143	-0.245611
13392		0.074433	-0.235534	-0.969012	-0.905786	-0.422440	0.033104	-0.417147	0.875253	-0.244787
13393		0.071336	-0.235815	-0.969176	-0.910260	-0.412686	0.033413	-0.407845	0.879819	-0.244093
13394		0.068880	-0.236490	-0.969189	-0.914511	-0.403180	0.033385	-0.398653	0.884035	-0.244044
13395		0.066745	-0.237125	-0.969184	-0.918513	-0.393999	0.033142	-0.389716	0.887996	-0.244100
13396		0.064881	-0.238056	-0.969082	-0.922494	-0.384623	0.032721	-0.380521	0.891849	-0.244560
13397		0.063703	-0.239687	-0.968758	-0.926562	-0.374795	0.031802	-0.370709	0.895589	-0.245960
13398		0.063152	-0.240974	-0.968475	-0.929866	-0.366625	0.030588	-0.362438	0.898620	-0.247227
13399		0.062981	-0.240779	-0.968534	-0.931845	-0.361670	0.029316	-0.357348	0.900678	-0.247147
13400		0.062797	-0.239244	-0.968927	-0.932533	-0.359963	0.028442	-0.355582	0.901770	-0.245708
13401		0.062577	-0.236907	-0.969515	-0.932206	-0.360844	0.028006	-0.356478	0.902035	-0.243426
13402		0.062157	-0.234117	-0.970219	-0.931726	-0.362105	0.027686	-0.357803	0.902258	-0.240640
13403		0.061328	-0.231420	-0.970919	-0.931854	-0.361799	0.027374	-0.357612	0.903076	-0.237838
13404		0.060391	-0.229900	-0.971339	-0.932743	-0.359523	0.027102	-0.355449	0.904372	-0.236149
13405		0.059311	-0.229305	-0.971546	-0.934171	-0.355807	0.026949	-0.351863	0.905991	-0.235314
13406		0.057914	-0.229305	-0.971630	-0.935977	-0.351021	0.027052	-0.347265	0.907857	-0.234953
13407		0.056521	-0.230138	-0.971515	-0.938216	-0.344986	0.027139	-0.341404	0.909957	-0.235418
13408		0.055145	-0.231555	-0.971258	-0.940823	-0.337812	0.027120	-0.334382	0.912286	-0.236481
13409		0.054442	-0.233494	-0.970833	-0.944150	-0.328483	0.026058	-0.324986	0.915194	-0.238336
13410		0.054144	-0.235368	-0.970397	-0.947343	-0.319275	0.024582	-0.315609	0.917968	-0.240261
13411		0.054825	-0.237786	-0.969769	-0.951268	-0.307606	0.021645	-0.303454	0.921323	-0.243062
13412		0.056700	-0.240977	-0.968873	-0.955723	-0.293767	0.017135	-0.288753	0.925003	-0.246964
13413		0.059025	-0.243884	-0.968007	-0.959272	-0.282204	0.012608	-0.276250	0.927837	-0.250608
13414		0.061266	-0.246550	-0.967192	-0.962108	-0.272536	0.008530	-0.265698	0.930020	-0.253905
13415		0.063717	-0.249081	-0.966384	-0.964552	-0.263855	0.004411	-0.256084	0.931847	-0.257064
13416		0.066424	-0.251699	-0.965523	-0.965876	-0.259001	0.001070	-0.250341	0.932505	-0.260314
13417		0.069258	-0.254072	-0.964703	-0.966313	-0.257364	-0.001592	-0.247875	0.932315	-0.263337
13418		0.072283	-0.256198	-0.963918	-0.966126	-0.258041	-0.003864	-0.247740	0.931546	-0.266171
13419		0.075662	-0.258324	-0.963091	-0.965227	-0.261350	-0.005729	-0.250224	0.930035	-0.269116
13420		0.078973	-0.260165	-0.962329	-0.963891	-0.266201	-0.007134	-0.254317	0.928144	-0.271793
13421		0.081846	-0.261604	-0.961699	-0.962167	-0.272348	-0.007800	-0.259876	0.925953	-0.273998
13422		0.084622	-0.262919	-0.961100	-0.960080	-0.279608	-0.008042	-0.266617	0.923414	-0.276084
13423		0.087227	-0.263948	-0.960585	-0.957687	-0.287703	-0.007909	-0.274275	0.920630	-0.277875
13424		0.089328	-0.265149	-0.960061	-0.955010	-0.296493	-0.006973	-0.282802	0.917490	-0.279705
13425		0.090924	-0.266086	-0.959652	-0.951655	-0.307127	-0.005008	-0.293402	0.913713	-0.281147
13426		0.091837	-0.266693	-0.959396	-0.948024	-0.318192	-0.002298	-0.304659	0.909741	-0.282053
13427		0.092540	-0.267504	-0.959103	-0.944329	-0.329001	0.000647	-0.315719	0.905649	-0.283058
13428		0.093173	-0.268478	-0.958769	-0.941091	-0.338138	0.003232	-0.325064	0.901988	-0.284168
13429		0.093520	-0.269521	-0.958443	-0.938588	-0.344998	0.005434	-0.332125	0.899074	-0.285234
13430		0.093016	-0.270926	-0.958095	-0.936477	-0.350631	0.008233	-0.338169	0.896469	-0.286331
13431		0.091681	-0.271913	-0.957945	-0.934622	-0.355459	0.011449	-0.343623	0.894266	-0.286725
13432		0.089386	-0.272789	-0.957913	-0.932991	-0.359572	0.015336	-0.348622	0.892353	-0.286650
13433		0.086830	-0.273761	-0.957870	-0.932041	-0.361857	0.018931	-0.351794	0.891131	-0.286577
13434		0.084348	-0.274961	-0.957748	-0.931827	-0.362240	0.021931	-0.352965	0.890606	-0.286770
13435		0.082031	-0.276204	-0.957592	-0.932022	-0.361575	0.024451	-0.352995	0.890491	-0.287089
13436		0.079847	-0.277421	-0.957425	-0.931912	-0.361672	0.027078	-0.353786	0.890073	-0.287411
13437		0.077987	-0.278427	-0.957286	-0.931800	-0.361786	0.029315	-0.354495	0.889713	-0.287653
13438		0.076343	-0.279557	-0.957089	-0.931833	-0.361538	0.031274	-0.354767	0.889459	-0.288101
13439		0.074810	-0.280734	-0.956866	-0.932008	-0.360931	0.033026	-0.354634	0.889335	-0.288648
13440		0.072820	-0.281715	-0.956731	-0.932042	-0.360631	0.035249	-0.354957	0.889147	-0.288831
13441		0.071109	-0.282556	-0.956612	-0.931930	-0.360717	0.037271	-0.355598	0.888845	-0.288973
13442		0.069844	-0.283199	-0.956515	-0.931648	-0.361269	0.038934	-0.356585	0.888416	-0.289074
13443		0.068788	-0.283529	-0.956493	-0.930934	-0.362921	0.040629	-0.358651	0.887637	-0.288912
13444		0.068283	-0.283546	-0.956525	-0.929807	-0.365641	0.042012	-0.361657	0.886515	-0.288610
13445		0.068300	-0.283338	-0.956585	-0.928546	-0.368728	0.042918	-0.364880	0.885302	-0.288276
13446		0.068564	-0.283327	-0.956569	-0.927543	-0.371181	0.043457	-0.367373	0.884280	-0.288247
13447		0.068947	-0.283164	-0.956590	-0.926329	-0.374139	0.043984	-0.370353	0.883084	-0.288099
13448		0.069073	-0.282514	-0.956773	-0.925101	-0.377098	0.044562	-0.373386	0.882033	-0.287401
13449		0.068959	-0.281611	-0.957048	-0.924215	-0.379213	0.044990	-0.375595	0.881415	-0.286419
13450		0.068810	-0.280774	-0.957304	-0.923510	-0.380887	0.045332	-0.377352	0.880960	-0.285507
13451		0.068777	-0.279949	-0.957548	-0.922772	-0.382640	0.045589	-0.379159	0.880463	-0.284646
13452		0.068826	-0.278802	-0.957879	-0.922444	-0.383460	0.045331	-0.379947	0.880470	-0.283571
13453		0.069052	-0.277575	-0.958219	-0.922047	-0.384462	0.044925	-0.380869	0.880421	-0.282486
13454		0.069464	-0.276033	-0.958635	-0.921367	-0.386146	0.044425	-0.382436	0.880169	-0.281151
13455		0.070220	-0.274296	-0.959078	-0.920378	-0.388575	0.043746	-0.384673	0.879643	-0.279741
13456		0.071428	-0.272610	-0.959470	-0.919082	-0.391727	0.042878	-0.387539	0.878768	-0.278531
13457		0.073049	-0.270937	-0.959821	-0.917726	-0.395022	0.041661	-0.390438	0.877810	-0.277502
13458		0.074798	-0.269049	-0.960218	-0.916245	-0.398585	0.040309	-0.393573	0.876780	-0.276328
13459		0.076334	-0.266938	-0.960686	-0.914723	-0.402189	0.039071	-0.396806	0.875779	-0.274875
13460		0.077691	-0.264877	-0.961147	-0.912998	-0.406177	0.038137	-0.400498	0.874563	-0.273389
13461		0.078825	-0.262878	-0.961604	-0.911102	-0.410469	0.037527	-0.404573	0.873161	-0.271863
13462		0.079506	-0.261044	-0.962047	-0.909393	-0.414267	0.037254	-0.408269	0.871917	-0.270329
13463		0.079882	-0.259362	-0.962471	-0.907918	-0.417498	0.037151	-0.411465	0.870877	-0.268830
13464		0.079901	-0.257298	-0.963023	-0.906398	-0.420781	0.037220	-0.414799	0.869909	-0.266835
13465		0.080075	-0.255205	-0.963566	-0.904629	-0.424566	0.037271	-0.418609	0.868685	-0.264863
13466		0.080726	-0.253201	-0.964040	-0.902362	-0.429369	0.037211	-0.423350	0.866909	-0.263140
13467		0.082284	-0.251721	-0.964296	-0.899517	-0.435327	0.036881	-0.429067	0.864365	-0.262248
13468		0.084571	-0.250488	-0.964419	-0.896431	-0.441709	0.036116	-0.435039	0.861481	-0.261902
13469		0.087568	-0.249627	-0.964374	-0.893424	-0.447864	0.034804	-0.440597	0.858548	-0.262242
13470		0.091271	-0.249158	-0.964152	-0.890524	-0.453741	0.032955	-0.445686	0.855593	-0.263294
13471		0.095283	-0.248955	-0.963817	-0.887342	-0.460061	0.031111	-0.451160	0.852271	-0.264744
13472		0.099108	-0.248716	-0.963493	-0.883855	-0.466825	0.029590	-0.457142	0.848655	-0.266095
13473		0.102345	-0.248369	-0.963244	-0.879978	-0.474143	0.028758	-0.463858	0.844690	-0.267085
13474		0.104821	-0.247752	-0.963136	-0.875824	-0.481782	0.028613	-0.471111	0.840538	-0.267488
13475		0.106675	-0.247079	-0.963106	-0.871893	-0.488846	0.028838	-0.477936	0.836649	-0.267574
13476		0.107967	-0.246233	-0.963178	-0.868336	-0.495114	0.029238	-0.484083	0.833206	-0.267268
13477		0.108798	-0.245431	-0.963290	-0.865212	-0.500520	0.029804	-0.489460	0.830207	-0.266805
13478		0.108966	-0.244567	-0.963490	-0.862884	-0.504483	0.030467	-0.493515	0.828061	-0.266005
13479		0.108505	-0.244000	-0.963686	-0.861669	-0.506510	0.031227	-0.495736	0.826990	-0.265206
13480		0.107277	-0.243770	-0.963882	-0.861202	-0.507227	0.032430	-0.496812	0.826618	-0.264349
13481		0.105377	-0.244283	-0.963961	-0.861507	-0.506592	0.034201	-0.496690	0.826856	-0.263835
13482		0.102651	-0.245050	-0.964061	-0.862508	-0.504729	0.036457	-0.495523	0.827768	-0.263169
13483		0.099130	-0.245954	-0.964199	-0.863964	-0.502023	0.039235	-0.493701	0.829143	-0.262261
13484		0.095150	-0.246914	-0.964355	-0.865742	-0.498703	0.042268	-0.491363	0.830860	-0.261215
13485		0.090872	-0.247794	-0.964542	-0.867377	-0.495560	0.045593	-0.489286	0.832477	-0.259963
13486		0.086860	-0.248715	-0.964674	-0.869168	-0.492122	0.048619	-0.486829	0.834240	-0.258921
13487		0.083426	-0.249636	-0.964739	-0.871413	-0.487903	0.050894	-0.483404	0.836441	-0.258240
13488		0.080566	-0.250395	-0.964786	-0.873594	-0.483804	0.052613	-0.479941	0.838592	-0.257722
13489		0.078423	-0.251494	-0.964676	-0.875469	-0.480244	0.054030	-0.476868	0.840307	-0.257838
13490		0.076939	-0.252956	-0.964414	-0.877273	-0.476822	0.055078	-0.473786	0.841816	-0.258597
13491		0.075961	-0.254454	-0.964097	-0.879338	-0.472948	0.055542	-0.470101	0.843548	-0.259677
13492		0.075286	-0.255694	-0.963822	-0.881525	-0.468861	0.055527	-0.466097	0.845453	-0.260699
13493		0.074803	-0.256488	-0.963649	-0.882464	-0.467056	0.055813	-0.464394	0.846210	-0.261279
13494		0.074700	-0.256703	-0.963599	-0.882830	-0.466365	0.055801	-0.463714	0.846526	-0.261463
13495		0.074914	-0.256406	-0.963662	-0.882724	-0.466599	0.055528	-0.463881	0.846488	-0.261291
13496		0.075538	-0.256005	-0.963720	-0.882546	-0.467012	0.054883	-0.464118	0.846382	-0.261213
13497		0.076647	-0.255812	-0.963683	-0.882953	-0.466394	0.053579	-0.463162	0.846781	-0.261618
13498		0.078066	-0.255700	-0.963599	-0.884065	-0.464502	0.051637	-0.460797	0.847853	-0.262318
13499		0.079587	-0.255790	-0.963451	-0.885973	-0.461116	0.049236	-0.456857	0.849672	-0.263322
13500		0.080932	-0.255943	-0.963298	-0.888279	-0.456917	0.046771	-0.452118	0.851892	-0.264328
13501		0.081938	-0.256186	-0.963149	-0.890639	-0.452518	0.044594	-0.447267	0.854164	-0.265248
13502		0.082623	-0.256282	-0.963064	-0.892907	-0.448215	0.042671	-0.442596	0.856401	-0.265869
13503		0.083176	-0.256142	-0.963054	-0.894869	-0.444449	0.040922	-0.438511	0.858403	-0.266181
13504		0.083689	-0.255668	-0.963135	-0.896359	-0.441581	0.039333	-0.435358	0.860023	-0.266126
13505		0.084489	-0.255218	-0.963185	-0.897619	-0.439163	0.037629	-0.432599	0.861394	-0.266193
13506		0.085726	-0.254760	-0.963197	-0.899036	-0.436440	0.035420	-0.429401	0.862912	-0.266452
13507		0.087399	-0.254206	-0.963193	-0.900827	-0.432957	0.032526	-0.425290	0.864828	-0.266836
13508		0.089355	-0.253371	-0.963234	-0.902729	-0.429221	0.029161	-0.420828	0.866933	-0.267078
13509		0.091603	-0.252771	-0.963180	-0.904888	-0.424888	0.025446	-0.415676	0.869239	-0.267651
13510		0.093882	-0.252101	-0.963136	-0.907289	-0.419959	0.021486	-0.409894	0.871825	-0.268155
13511		0.096011	-0.251366	-0.963118	-0.909411	-0.415518	0.017790	-0.404665	0.874162	-0.268490
13512		0.098016	-0.250728	-0.963083	-0.911223	-0.411661	0.014433	-0.400082	0.876168	-0.268818
13513		0.099681	-0.249928	-0.963120	-0.912685	-0.408500	0.011544	-0.396319	0.877875	-0.268825
13514		0.101006	-0.248820	-0.963269	-0.913912	-0.405812	0.008994	-0.393144	0.879435	-0.268389
13515		0.102305	-0.247544	-0.963460	-0.914918	-0.403587	0.006544	-0.390460	0.880818	-0.267771
13516		0.103844	-0.246341	-0.963604	-0.915689	-0.401867	0.004055	-0.388240	0.881941	-0.267303
13517		0.105679	-0.245351	-0.963657	-0.916717	-0.399536	0.001192	-0.385308	0.883275	-0.267140
13518		0.107583	-0.244285	-0.963717	-0.918099	-0.396345	-0.002024	-0.381470	0.885006	-0.266918
13519		0.109530	-0.243319	-0.963742	-0.919668	-0.392660	-0.005384	-0.377113	0.886912	-0.266781
13520		0.111312	-0.242299	-0.963795	-0.921057	-0.389336	-0.008497	-0.373181	0.888656	-0.266508
13521		0.113025	-0.241487	-0.963799	-0.922092	-0.386808	-0.011216	-0.370097	0.889979	-0.266392
13522		0.114516	-0.240778	-0.963801	-0.922890	-0.384826	-0.013517	-0.367641	0.891030	-0.266280
13523		0.115780	-0.240392	-0.963746	-0.923804	-0.382549	-0.015561	-0.364939	0.892114	-0.266367
13524		0.116718	-0.239882	-0.963760	-0.924894	-0.379824	-0.017472	-0.361868	0.893415	-0.266197
13525		0.117460	-0.239513	-0.963762	-0.926044	-0.376928	-0.019189	-0.358672	0.894740	-0.266073
13526		0.118028	-0.239121	-0.963790	-0.927137	-0.374149	-0.020711	-0.355649	0.896010	-0.265858
13527		0.118607	-0.238752	-0.963810	-0.928181	-0.371466	-0.022204	-0.352722	0.897224	-0.265663
13528		0.119267	-0.238157	-0.963876	-0.929096	-0.369073	-0.023772	-0.350079	0.898369	-0.265289
13529		0.120197	-0.237685	-0.963877	-0.930114	-0.366375	-0.025641	-0.347046	0.899597	-0.265111
13530		0.120774	-0.237225	-0.963918	-0.931122	-0.363694	-0.027158	-0.344129	0.900806	-0.264810
13531		0.121218	-0.237207	-0.963867	-0.932558	-0.359875	-0.028715	-0.340060	0.902343	-0.264832
13532		0.121537	-0.237458	-0.963765	-0.934171	-0.355545	-0.030204	-0.335489	0.903992	-0.265038
13533		0.121730	-0.237851	-0.963643	-0.935758	-0.351233	-0.031515	-0.330967	0.905573	-0.265327
13534		0.121935	-0.238243	-0.963521	-0.937220	-0.347198	-0.032758	-0.326728	0.907025	-0.265622
13535		0.121774	-0.238505	-0.963476	-0.938276	-0.344274	-0.033366	-0.323742	0.908070	-0.265707
13536		0.121539	-0.238727	-0.963451	-0.938324	-0.344171	-0.033090	-0.323692	0.908051	-0.265834
13537		0.121546	-0.239204	-0.963332	-0.937584	-0.346254	-0.032320	-0.325827	0.907133	-0.266360
13538		0.121950	-0.240246	-0.963021	-0.938150	-0.344670	-0.032815	-0.324041	0.907460	-0.267419
13539		0.122452	-0.241595	-0.962620	-0.939923	-0.339657	-0.034318	-0.318669	0.908991	-0.268673
13540		0.122838	-0.242332	-0.962386	-0.941441	-0.335279	-0.035741	-0.314007	0.910419	-0.269326
13541		0.123701	-0.243084	-0.962085	-0.942773	-0.331320	-0.037506	-0.309641	0.911667	-0.270158
13542		0.124974	-0.243489	-0.961818	-0.943749	-0.328292	-0.039518	-0.306135	0.912654	-0.270820
13543		0.126867	-0.243680	-0.961522	-0.944143	-0.326884	-0.041731	-0.304137	0.913108	-0.271539
13544		0.129420	-0.243931	-0.961118	-0.943379	-0.328841	-0.043572	-0.305427	0.912338	-0.272678
13545		0.132491	-0.244412	-0.960577	-0.941466	-0.334112	-0.044843	-0.309980	0.910292	-0.274372
13546		0.135720	-0.244847	-0.960016	-0.939572	-0.339204	-0.046317	-0.314300	0.908290	-0.276088
13547		0.138577	-0.244659	-0.959655	-0.937873	-0.343669	-0.047815	-0.318106	0.906661	-0.277084
13548		0.140891	-0.243349	-0.959652	-0.936136	-0.348185	-0.049146	-0.322177	0.905289	-0.276864
13549		0.142993	-0.241661	-0.959767	-0.934277	-0.352979	-0.050318	-0.326618	0.903884	-0.276252
13550		0.144821	-0.239359	-0.960070	-0.931855	-0.359229	-0.051004	-0.332676	0.902032	-0.275072
13551		0.146469	-0.236521	-0.960523	-0.928720	-0.367231	-0.051191	-0.340626	0.899555	-0.273450
13552		0.148237	-0.233826	-0.960912	-0.925157	-0.376115	-0.051198	-0.349442	0.896584	-0.272080
13553		0.150167	-0.231353	-0.961210	-0.921390	-0.385250	-0.051221	-0.358456	0.893341	-0.271018
13554		0.152010	-0.228727	-0.961549	-0.917602	-0.394176	-0.051299	-0.367286	0.890118	-0.269799
13555		0.153952	-0.226241	-0.961828	-0.914509	-0.401209	-0.052005	-0.374129	0.887607	-0.268667
13556		0.155973	-0.223764	-0.962082	-0.912298	-0.406021	-0.053469	-0.378661	0.886046	-0.267468
13557		0.157966	-0.221347	-0.962316	-0.911063	-0.408503	-0.055591	-0.380804	0.885512	-0.266190
13558		0.159781	-0.218820	-0.962594	-0.910270	-0.409945	-0.057906	-0.381939	0.885473	-0.264687
13559		0.161434	-0.216471	-0.962850	-0.909534	-0.411271	-0.060032	-0.382997	0.885436	-0.263281
13560		0.162753	-0.213986	-0.963183	-0.908658	-0.412942	-0.061798	-0.384515	0.885262	-0.261647
13561		0.163880	-0.211367	-0.963570	-0.907708	-0.414787	-0.063392	-0.386277	0.885029	-0.259835
13562		0.165073	-0.209005	-0.963882	-0.906881	-0.416337	-0.065034	-0.387708	0.884862	-0.258269
13563		0.166398	-0.206996	-0.964087	-0.905837	-0.418372	-0.066518	-0.389578	0.884374	-0.257121
13564		0.167872	-0.205203	-0.964215	-0.904347	-0.421384	-0.067770	-0.392398	0.883361	-0.256313
13565		0.169481	-0.203531	-0.964288	-0.902501	-0.425144	-0.068887	-0.395940	0.881946	-0.255740
13566		0.171214	-0.202040	-0.964295	-0.900428	-0.429350	-0.069917	-0.399895	0.880249	-0.255433
13567		0.172859	-0.200473	-0.964329	-0.897982	-0.434318	-0.070676	-0.404657	0.878167	-0.255097
13568		0.174315	-0.198741	-0.964425	-0.895156	-0.440044	-0.071114	-0.410257	0.875707	-0.254610
13569		0.175424	-0.196994	-0.964583	-0.892077	-0.446256	-0.071100	-0.416444	0.872954	-0.254018
13570		0.176073	-0.195096	-0.964850	-0.889280	-0.451830	-0.070921	-0.422112	0.870510	-0.253050
13571		0.176265	-0.193104	-0.965216	-0.886983	-0.456362	-0.070677	-0.426839	0.868588	-0.251720
13572		0.176064	-0.191209	-0.965630	-0.885163	-0.459937	-0.070318	-0.430683	0.867120	-0.250229
13573		0.175638	-0.189493	-0.966045	-0.883454	-0.463299	-0.069744	-0.434352	0.865706	-0.248781
13574		0.174732	-0.187339	-0.966630	-0.881168	-0.467796	-0.068622	-0.439330	0.863754	-0.246816
13575		0.173692	-0.185205	-0.967228	-0.878519	-0.472957	-0.067200	-0.445011	0.861401	-0.244855
13576		0.172783	-0.183449	-0.967726	-0.875837	-0.478109	-0.065743	-0.450618	0.858929	-0.243280
13577		0.172158	-0.181990	-0.968112	-0.873299	-0.482893	-0.064521	-0.455752	0.856559	-0.242066
13578		0.171664	-0.180654	-0.968450	-0.870779	-0.487570	-0.063400	-0.460734	0.854189	-0.241008
13579		0.171304	-0.179349	-0.968756	-0.868196	-0.492285	-0.062384	-0.465716	0.851756	-0.240041
13580		0.171196	-0.177954	-0.969033	-0.865818	-0.496530	-0.061778	-0.470160	0.849582	-0.239080
13581		0.171257	-0.176322	-0.969320	-0.863555	-0.500486	-0.061531	-0.474282	0.847599	-0.237975
13582		0.171504	-0.174475	-0.969611	-0.861093	-0.504715	-0.061490	-0.478649	0.845471	-0.236800
13583		0.172156	-0.172717	-0.969810	-0.858511	-0.509065	-0.061738	-0.483033	0.843221	-0.235918
13584		0.173261	-0.171190	-0.969884	-0.855819	-0.513516	-0.062246	-0.487396	0.840830	-0.235480
13585		0.174723	-0.169875	-0.969853	-0.852951	-0.518188	-0.062899	-0.491881	0.838227	-0.235434
13586		0.176501	-0.168718	-0.969733	-0.849905	-0.523073	-0.063685	-0.496496	0.835422	-0.235717
13587		0.178278	-0.167544	-0.969611	-0.846643	-0.528252	-0.064389	-0.501411	0.832393	-0.236026
13588		0.179705	-0.166048	-0.969605	-0.843347	-0.533430	-0.064953	-0.506431	0.829385	-0.235896
13589		0.180949	-0.164530	-0.969633	-0.840265	-0.538206	-0.065482	-0.511089	0.826598	-0.235637
13590		0.182095	-0.163220	-0.969640	-0.837502	-0.542437	-0.065971	-0.515200	0.824088	-0.235472
13591		0.183265	-0.162173	-0.969595	-0.834722	-0.546661	-0.066339	-0.519281	0.821500	-0.235553
13592		0.184408	-0.161334	-0.969518	-0.831618	-0.551361	-0.066429	-0.523837	0.818519	-0.235843
13593		0.185548	-0.160904	-0.969372	-0.828183	-0.556540	-0.066143	-0.528852	0.815091	-0.236523
13594		0.186282	-0.160350	-0.969323	-0.824605	-0.561903	-0.065518	-0.534159	0.811513	-0.236898
13595		0.186676	-0.159714	-0.969352	-0.821034	-0.567206	-0.064658	-0.539496	0.807941	-0.237015
13596		0.187069	-0.159048	-0.969386	-0.818132	-0.571444	-0.064123	-0.543751	0.805081	-0.237021
13597		0.187482	-0.158209	-0.969443	-0.816114	-0.574325	-0.064102	-0.546634	0.803194	-0.236792
13598		0.187953	-0.157103	-0.969532	-0.814593	-0.576434	-0.064512	-0.548736	0.801899	-0.236317
13599		0.188710	-0.155903	-0.969579	-0.813453	-0.577943	-0.065393	-0.550166	0.801047	-0.235883
13600		0.189846	-0.154786	-0.969536	-0.812712	-0.578832	-0.066728	-0.550870	0.800622	-0.235685
13601		0.191431	-0.153861	-0.969371	-0.812170	-0.579395	-0.068424	-0.551121	0.800393	-0.235876
13602		0.193597	-0.153364	-0.969020	-0.811842	-0.579610	-0.070462	-0.550848	0.800332	-0.236718
13603		0.196011	-0.153048	-0.968584	-0.811458	-0.579886	-0.072585	-0.550560	0.800193	-0.237856
13604		0.198343	-0.152394	-0.968213	-0.810919	-0.580361	-0.074773	-0.550518	0.799973	-0.238690
13605		0.200950	-0.152189	-0.967707	-0.810622	-0.580480	-0.077040	-0.550010	0.799926	-0.240015
13606		0.203531	-0.152134	-0.967177	-0.810949	-0.579694	-0.079471	-0.548577	0.800506	-0.241358
13607		0.205349	-0.151543	-0.966885	-0.811764	-0.578231	-0.081776	-0.546691	0.801675	-0.241756
13608		0.206434	-0.150717	-0.966783	-0.812839	-0.576444	-0.083698	-0.544681	0.803117	-0.241506
13609		0.206945	-0.149827	-0.966812	-0.813620	-0.575147	-0.085024	-0.543320	0.804213	-0.240926
13610		0.207181	-0.149227	-0.966854	-0.814630	-0.573564	-0.086036	-0.541714	0.805454	-0.240396
13611		0.207124	-0.148686	-0.966950	-0.816002	-0.571478	-0.086915	-0.539667	0.807035	-0.239695
13612		0.207046	-0.148215	-0.967039	-0.817357	-0.569413	-0.087727	-0.537642	0.808580	-0.239039
13613		0.207211	-0.147999	-0.967037	-0.818231	-0.568054	-0.088388	-0.536248	0.809574	-0.238805
13614		0.207549	-0.147713	-0.967008	-0.818493	-0.567585	-0.088973	-0.535716	0.809956	-0.238704
13615		0.207922	-0.147125	-0.967018	-0.817809	-0.568511	-0.089345	-0.536616	0.809413	-0.238526
13616		0.208331	-0.146168	-0.967075	-0.816234	-0.570736	-0.089573	-0.538851	0.808020	-0.238209
13617		0.209055	-0.145115	-0.967077	-0.814236	-0.573523	-0.089954	-0.541587	0.806234	-0.238056
13618		0.209966	-0.143781	-0.967079	-0.812061	-0.576498	-0.090598	-0.544492	0.804349	-0.237804
13619		0.210892	-0.141910	-0.967154	-0.809617	-0.579788	-0.091469	-0.547763	0.802314	-0.237165
13620		0.211813	-0.139882	-0.967248	-0.807217	-0.582969	-0.092460	-0.550941	0.800363	-0.236396
13621		0.212642	-0.137869	-0.967355	-0.805026	-0.585830	-0.093466	-0.553820	0.798621	-0.235560
13622		0.213229	-0.135898	-0.967505	-0.802913	-0.588594	-0.094280	-0.556655	0.796925	-0.234619
13623		0.213642	-0.134000	-0.967678	-0.800913	-0.591203	-0.094957	-0.559370	0.795313	-0.233629
13624		0.213959	-0.132251	-0.967849	-0.799418	-0.593108	-0.095680	-0.561385	0.794187	-0.232625
13625		0.214218	-0.130655	-0.968008	-0.798564	-0.594119	-0.096531	-0.562500	0.793695	-0.231607
13626		0.214402	-0.129372	-0.968140	-0.798266	-0.594385	-0.097355	-0.562853	0.793706	-0.230710
13627		0.214204	-0.128311	-0.968325	-0.797684	-0.595125	-0.097598	-0.563752	0.793324	-0.229830
13628		0.213613	-0.127463	-0.968567	-0.796431	-0.596884	-0.097100	-0.565745	0.792138	-0.229017
13629		0.212554	-0.126665	-0.968905	-0.794473	-0.599681	-0.095892	-0.568888	0.790151	-0.228097
13630		0.211114	-0.126030	-0.969302	-0.792238	-0.602904	-0.094159	-0.572529	0.787796	-0.227127
13631		0.209464	-0.125957	-0.969670	-0.790472	-0.605534	-0.092098	-0.575568	0.785788	-0.226403
13632		0.207414	-0.126380	-0.970055	-0.789456	-0.607220	-0.089689	-0.577702	0.784418	-0.225718
13633		0.204371	-0.126968	-0.970624	-0.789582	-0.607477	-0.086786	-0.578613	0.784124	-0.224402
13634		0.200993	-0.128551	-0.971121	-0.790379	-0.606936	-0.083242	-0.578708	0.784285	-0.223593
13635		0.196033	-0.130454	-0.971881	-0.791560	-0.606053	-0.078311	-0.578795	0.784654	-0.222069
13636		0.188961	-0.132849	-0.972957	-0.793041	-0.604968	-0.071416	-0.579120	0.785089	-0.219670
13637		0.179718	-0.135829	-0.974296	-0.794257	-0.604385	-0.062250	-0.580394	0.785028	-0.216502
13638		0.168093	-0.139217	-0.975891	-0.794517	-0.605136	-0.050526	-0.583513	0.783855	-0.212329
13639		0.154993	-0.143374	-0.977456	-0.794357	-0.606322	-0.037024	-0.587345	0.782188	-0.207866
13640		0.140306	-0.148844	-0.978856	-0.793771	-0.607842	-0.021348	-0.591813	0.779983	-0.203432
13641		0.124168	-0.155389	-0.980019	-0.792296	-0.610126	-0.003644	-0.597368	0.776918	-0.198872
13642		0.107066	-0.162373	-0.980904	-0.789155	-0.613999	0.015502	-0.604790	0.772425	-0.193876
13643		0.090310	-0.170048	-0.981289	-0.784678	-0.618913	0.035036	-0.613290	0.766832	-0.189327
13644		0.075887	-0.179570	-0.980814	-0.779297	-0.624323	0.054008	-0.622043	0.760247	-0.187317
13645		0.064828	-0.190906	-0.979465	-0.774601	-0.628428	0.071217	-0.629119	0.754078	-0.188616
13646		0.054798	-0.202270	-0.977795	-0.770928	-0.630910	0.087308	-0.634561	0.749025	-0.190508
13647		0.046179	-0.212697	-0.976026	-0.768815	-0.631409	0.101222	-0.637801	0.745710	-0.192682
13648		0.040544	-0.224798	-0.973562	-0.767000	-0.631464	0.113865	-0.640365	0.742105	-0.198022
13649		0.036370	-0.237181	-0.970784	-0.766805	-0.629574	0.125089	-0.640849	0.739853	-0.204770
13650		0.032834	-0.249400	-0.967844	-0.768130	-0.625854	0.135215	-0.639452	0.738990	-0.212121
13651		0.028970	-0.258853	-0.965482	-0.768314	-0.623631	0.144146	-0.639418	0.737617	-0.216947
13652		0.024096	-0.263813	-0.964273	-0.766726	-0.623838	0.151515	-0.641522	0.735682	-0.217305
13653		0.021511	-0.266209	-0.963675	-0.765619	-0.624253	0.155356	-0.642934	0.734466	-0.217243
13654		0.022734	-0.264719	-0.964058	-0.766306	-0.623929	0.153253	-0.642073	0.735280	-0.217040
13655		0.026671	-0.257068	-0.966025	-0.771956	-0.619272	0.143481	-0.635116	0.741902	-0.214961
13656		0.029955	-0.244590	-0.969164	-0.781362	-0.610409	0.129900	-0.623359	0.753377	-0.209399
13657		0.032076	-0.230674	-0.972502	-0.793343	-0.597697	0.115604	-0.607929	0.767820	-0.202176
13658		0.035079	-0.217274	-0.975480	-0.807149	-0.581723	0.100545	-0.589305	0.783830	-0.195779
13659		0.038915	-0.203587	-0.978283	-0.822947	-0.561845	0.084188	-0.566783	0.801799	-0.189406
13660		0.043553	-0.189768	-0.980863	-0.840861	-0.537140	0.066584	-0.539496	0.821869	-0.182963
13661		0.048264	-0.176088	-0.983191	-0.858719	-0.510080	0.049201	-0.510169	0.841910	-0.175829
13662		0.050951	-0.160966	-0.985644	-0.873939	-0.484844	0.034004	-0.483357	0.859661	-0.165377
13663		0.050556	-0.144154	-0.988263	-0.885633	-0.463847	0.022354	-0.461625	0.874109	-0.151118
13664		0.047592	-0.127663	-0.990675	-0.895254	-0.445325	0.014378	-0.443008	0.886221	-0.135484
13665		0.041673	-0.111797	-0.992857	-0.902309	-0.430958	0.010654	-0.429071	0.895420	-0.118835
13666		0.033150	-0.095904	-0.994838	-0.908105	-0.418622	0.010096	-0.417429	0.903083	-0.100968
13667		0.022922	-0.079832	-0.996545	-0.912928	-0.407954	0.011682	-0.407477	0.909506	-0.082232
13668		0.012255	-0.062851	-0.997948	-0.917619	-0.397224	0.013749	-0.397273	0.915567	-0.062541
13669		0.002989	-0.045864	-0.998943	-0.923356	-0.383658	0.014852	-0.383934	0.922336	-0.043496
13670		-0.003400	-0.031927	-0.999484	-0.928556	-0.370889	0.015006	-0.371177	0.928128	-0.028385
13671		-0.008490	-0.018959	-0.999784	-0.931173	-0.364276	0.014815	-0.364478	0.931098	-0.014562
13672		-0.013814	-0.005671	-0.999888	-0.932060	-0.361997	0.014930	-0.362041	0.932162	-0.000285
13673		-0.018866	0.007346	-0.999795	-0.930891	-0.364993	0.014884	-0.364809	0.930981	0.013724
13674		-0.024518	0.021087	-0.999477	-0.928436	-0.371191	0.014944	-0.370681	0.928317	0.028678
13675		-0.031826	0.037524	-0.998789	-0.923024	-0.384452	0.014968	-0.383424	0.922382	0.046871
13676		-0.039480	0.055622	-0.997671	-0.917905	-0.396546	0.014216	-0.394832	0.916328	0.066712
13677		-0.045862	0.074045	-0.996200	-0.915400	-0.402358	0.012236	-0.399923	0.912483	0.086234
13678		-0.050224	0.092560	-0.994440	-0.914935	-0.403509	0.008650	-0.400465	0.910282	0.104952
13679		-0.052613	0.110948	-0.992433	-0.915155	-0.403088	0.003454	-0.399654	0.908411	0.122742
13680		-0.053883	0.129035	-0.990175	-0.914404	-0.404793	-0.002991	-0.401202	0.905258	0.139802
13681		-0.054643	0.146622	-0.987682	-0.912019	-0.410015	-0.010410	-0.406491	0.900216	0.156126
13682		-0.056008	0.163872	-0.984890	-0.907752	-0.419116	-0.018114	-0.415752	0.893022	0.172228
13683		-0.058349	0.179312	-0.982060	-0.902413	-0.430151	-0.024923	-0.426903	0.884770	0.186912
13684		-0.061743	0.192240	-0.979404	-0.897598	-0.439811	-0.029741	-0.436470	0.877274	0.199710
13685		-0.067408	0.203445	-0.976763	-0.892947	-0.449030	-0.031902	-0.445087	0.870047	0.211934
13686		-0.073464	0.212098	-0.974483	-0.889438	-0.455922	-0.032179	-0.451113	0.864378	0.222142
13687		-0.078707	0.218167	-0.972732	-0.886358	-0.461902	-0.031878	-0.456262	0.859680	0.229729
13688		-0.083957	0.222974	-0.971202	-0.883312	-0.467757	-0.031031	-0.461206	0.855269	0.236227
13689		-0.091710	0.230762	-0.968679	-0.879236	-0.475440	-0.030019	-0.467475	0.848944	0.246497
13690		-0.100419	0.238514	-0.965933	-0.875243	-0.482859	-0.028240	-0.473145	0.842590	0.257246
13691		-0.106510	0.235106	-0.966116	-0.872887	-0.487409	-0.022380	-0.476155	0.840927	0.257134
13692		-0.114298	0.227005	-0.967163	-0.870810	-0.491462	-0.012441	-0.478149	0.840793	0.253851
13693		-0.127470	0.227895	-0.965306	-0.865731	-0.500495	-0.003839	-0.484006	0.835206	0.261093
13694		-0.139242	0.225413	-0.964262	-0.855938	-0.517071	0.002725	-0.497977	0.825728	0.264938
13695		-0.151469	0.220131	-0.963639	-0.853488	-0.520892	0.015163	-0.498614	0.824751	0.266778
13696		-0.163180	0.214698	-0.962952	-0.858549	-0.511770	0.031385	-0.486072	0.831863	0.267840
13697		-0.170806	0.205049	-0.963732	-0.867994	-0.494181	0.048693	-0.466274	0.844831	0.262391
13699		-0.172276	0.196044	-0.965343	-0.879926	-0.471132	0.061354	-0.442777	0.860001	0.253669
13700		-0.167688	0.192052	-0.966952	-0.881423	-0.468528	0.059798	-0.441560	0.862321	0.247846
13701		-0.165537	0.192226	-0.967288	-0.875856	-0.479473	0.054606	-0.453292	0.856245	0.247733
13702		-0.164499	0.198907	-0.966114	-0.868685	-0.493189	0.046371	-0.467254	0.846877	0.253917
13703		-0.160203	0.210558	-0.964365	-0.863311	-0.503562	0.033469	-0.478570	0.837909	0.262450
13704		-0.151482	0.222405	-0.963114	-0.860829	-0.508577	0.017952	-0.485825	0.831797	0.268493
13705		-0.139736	0.234663	-0.961981	-0.861344	-0.508020	0.001193	-0.488426	0.828763	0.273114
13706		-0.125655	0.245972	-0.961098	-0.862841	-0.505206	-0.016488	-0.489608	0.827203	0.275717
13707		-0.110232	0.254531	-0.960762	-0.865958	-0.499036	-0.032853	-0.487817	0.828358	0.275423
13708		-0.095188	0.259893	-0.960934	-0.869078	-0.492428	-0.047092	-0.485430	0.830644	0.272741
13709		-0.081732	0.261711	-0.961679	-0.871712	-0.486535	-0.058320	-0.483154	0.833541	0.267902
13710		-0.070747	0.258974	-0.963290	-0.873933	-0.481639	-0.065301	-0.480869	0.837231	0.260401
13711		-0.062634	0.251911	-0.965722	-0.875999	-0.477531	-0.067750	-0.478229	0.841728	0.250583
13713		-0.054919	0.226896	-0.972369	-0.878647	-0.473575	-0.060881	-0.474304	0.851026	0.225370
13714		-0.055289	0.211866	-0.975734	-0.876111	-0.479034	-0.054372	-0.478929	0.851844	0.212103
13715		-0.058101	0.195143	-0.979052	-0.872322	-0.486832	-0.045267	-0.485468	0.851419	0.198513
13716		-0.062259	0.174353	-0.982713	-0.872876	-0.486951	-0.031095	-0.483955	0.855850	0.182506
13717		-0.065492	0.147900	-0.986831	-0.878311	-0.477904	-0.013335	-0.473583	0.865871	0.161201
13718		-0.066588	0.117485	-0.990840	-0.886389	-0.462917	0.004680	-0.458126	0.878582	0.134962
13719		-0.068248	0.088758	-0.993712	-0.893510	-0.448537	0.021303	-0.443826	0.889346	0.109918
13720		-0.067257	0.061712	-0.995825	-0.898564	-0.437557	0.033572	-0.433659	0.897070	0.084881
13721		-0.062013	0.035201	-0.997454	-0.901547	-0.430749	0.040849	-0.428215	0.901785	0.058447
13722		-0.056762	0.008885	-0.998348	-0.900622	-0.432016	0.047361	-0.430881	0.901822	0.032524
13723		-0.051846	-0.017212	-0.998507	-0.897192	-0.438309	0.054141	-0.438587	0.898659	0.007282
13724		-0.047115	-0.041217	-0.998039	-0.892523	-0.446914	0.060591	-0.448535	0.893627	-0.015730
13725		-0.043882	-0.061185	-0.997161	-0.883832	-0.462938	0.067301	-0.465742	0.884276	-0.033763
13726		-0.041951	-0.076497	-0.996187	-0.870438	-0.486680	0.074028	-0.490488	0.870224	-0.046169
13727		-0.039808	-0.089582	-0.995184	-0.856671	-0.509600	0.080139	-0.514325	0.855735	-0.056456
13728		-0.034775	-0.104995	-0.993865	-0.846900	-0.524901	0.085085	-0.530614	0.844663	-0.070666
13729		-0.027853	-0.120712	-0.992297	-0.842780	-0.530974	0.088249	-0.537537	0.838746	-0.086945
13730		-0.018449	-0.136019	-0.990534	-0.842360	-0.531569	0.088684	-0.538600	0.836022	-0.104771
13731		-0.006592	-0.149852	-0.988686	-0.841633	-0.533092	0.086410	-0.540009	0.832681	-0.122606
13732		0.006437	-0.160197	-0.987064	-0.840318	-0.535932	0.081500	-0.542055	0.828923	-0.138066
13733		0.021596	-0.168802	-0.985413	-0.843253	-0.532570	0.072749	-0.537082	0.829382	-0.153845
13734		0.038462	-0.178292	-0.983226	-0.846045	-0.529387	0.062900	-0.531722	0.829434	-0.171205
13735		0.053694	-0.186179	-0.981048	-0.852865	-0.519544	0.051918	-0.519364	0.833913	-0.186682
13736		0.067987	-0.192475	-0.978944	-0.855075	-0.516783	0.042223	-0.514028	0.834200	-0.199714
13737		0.077262	-0.192125	-0.978324	-0.836857	-0.545875	0.041110	-0.541941	0.815542	-0.202956
13738		0.083624	-0.186450	-0.978899	-0.820398	-0.570490	0.038577	-0.565645	0.799861	-0.200670
13739		0.089994	-0.180698	-0.979413	-0.812404	-0.582175	0.032760	-0.576109	0.792730	-0.199192
13740		0.103589	-0.181812	-0.977862	-0.814476	-0.579798	0.021520	-0.570875	0.794216	-0.208142
13741		0.104246	-0.184728	-0.977245	-0.835539	-0.549235	0.014692	-0.539451	0.814995	-0.211603
13742		0.085831	-0.182842	-0.979389	-0.848956	-0.527911	0.024155	-0.521447	0.829385	-0.200536
13743		0.064545	-0.191970	-0.979276	-0.833382	-0.550158	0.052919	-0.548916	0.812695	-0.195494
13744		0.043150	-0.195280	-0.979798	-0.818099	-0.569826	0.077541	-0.573457	0.798225	-0.184347
13745		0.038424	-0.198118	-0.979425	-0.805251	-0.586510	0.087048	-0.591688	0.785338	-0.182070
13746		0.041107	-0.190710	-0.980785	-0.786239	-0.611904	0.086029	-0.616553	0.767595	-0.175097
13747		0.040284	-0.172703	-0.984150	-0.787358	-0.611898	0.075149	-0.615178	0.771851	-0.160629
13748		0.036362	-0.157318	-0.986878	-0.790953	-0.608110	0.067796	-0.610796	0.778109	-0.146543
13749		0.031760	-0.149223	-0.988293	-0.797713	-0.599536	0.064889	-0.602201	0.786313	-0.138079
13750		0.030244	-0.142471	-0.989337	-0.824292	-0.563395	0.055934	-0.565356	0.813811	-0.134478
13751		0.028308	-0.133907	-0.990589	-0.849983	-0.524742	0.046644	-0.526050	0.840663	-0.128673
13752		0.037163	-0.133176	-0.990395	-0.878006	-0.477627	0.031280	-0.477205	0.868410	-0.134679
13753		0.047730	-0.129424	-0.990440	-0.902670	-0.430145	0.012708	-0.427677	0.893434	-0.137358
13754		0.045014	-0.116434	-0.992178	-0.915043	-0.403313	0.005815	-0.400836	0.907624	-0.124697
13755		0.038651	-0.106783	-0.993531	-0.925171	-0.379520	0.004799	-0.377577	0.919001	-0.113462
13756		0.027639	-0.093452	-0.995240	-0.930132	-0.367125	0.008641	-0.366185	0.925465	-0.097070
13757		0.011929	-0.073279	-0.997240	-0.929164	-0.369320	0.016024	-0.369475	0.926408	-0.072494
13758		-0.004763	-0.052596	-0.998604	-0.925478	-0.378020	0.024325	-0.378772	0.924302	-0.046876
13759		-0.017208	-0.036180	-0.999197	-0.928237	-0.370824	0.029413	-0.371591	0.927998	-0.027203
13760		-0.025477	-0.022979	-0.999411	-0.934014	-0.355802	0.031990	-0.356327	0.934279	-0.012398
13761		-0.030671	-0.011987	-0.999458	-0.936608	-0.348828	0.032926	-0.349034	0.937110	-0.000528
13762		-0.034192	-0.001696	-0.999414	-0.934786	-0.353715	0.032581	-0.353563	0.935352	0.010509
