// Start Time: Unknown
// Update Rate: 100.0Hz
// Filter Profile: human (46.1)
// Option Flags: AHS Disabled ICC Disabled 
// Firmware Version: 4.0.2
PacketCounter	SampleTimeFine	Mat[1][1]	Mat[2][1]	Mat[3][1]	Mat[1][2]	Mat[2][2]	Mat[3][2]	Mat[1][3]	Mat[2][3]	Mat[3][3]
48935		-0.114974	-0.140836	-0.983334	0.673283	-0.738888	0.027103	-0.730391	-0.658947	0.179775
48936		-0.114939	-0.140829	-0.983339	0.673175	-0.738985	0.027149	-0.730496	-0.658838	0.179741
48937		-0.114891	-0.140830	-0.983345	0.672910	-0.739223	0.027248	-0.730748	-0.658572	0.179696
48938		-0.114746	-0.140717	-0.983378	0.672766	-0.739352	0.027296	-0.730903	-0.658451	0.179507
48939		-0.114659	-0.140780	-0.983379	0.672463	-0.739620	0.027476	-0.731195	-0.658136	0.179474
48940		-0.114518	-0.140775	-0.983396	0.672234	-0.739823	0.027624	-0.731428	-0.657909	0.179357
48941		-0.114530	-0.140888	-0.983379	0.671928	-0.740095	0.027777	-0.731707	-0.657579	0.179430
48942		-0.114479	-0.140951	-0.983375	0.671586	-0.740400	0.027942	-0.732029	-0.657222	0.179421
48943		-0.114472	-0.141010	-0.983368	0.671171	-0.740770	0.028093	-0.732411	-0.656792	0.179439
48944		-0.114460	-0.141032	-0.983366	0.670744	-0.741152	0.028222	-0.732804	-0.656356	0.179428
48945		-0.114535	-0.141072	-0.983352	0.670215	-0.741626	0.028331	-0.733276	-0.655812	0.179491
48946		-0.114558	-0.141094	-0.983346	0.669700	-0.742086	0.028459	-0.733743	-0.655286	0.179502
48947		-0.114665	-0.141061	-0.983338	0.669155	-0.742576	0.028495	-0.734223	-0.654738	0.179540
48948		-0.114795	-0.141017	-0.983329	0.668679	-0.743005	0.028491	-0.734636	-0.654261	0.179589
48949		-0.114911	-0.140929	-0.983328	0.668158	-0.743475	0.028473	-0.735092	-0.653746	0.179596
48950		-0.114918	-0.140759	-0.983352	0.667696	-0.743890	0.028452	-0.735511	-0.653310	0.179470
48951		-0.115026	-0.140638	-0.983356	0.667263	-0.744281	0.028394	-0.735886	-0.652892	0.179454
48952		-0.115016	-0.140402	-0.983391	0.667005	-0.744516	0.028285	-0.736122	-0.652674	0.179280
48953		-0.115026	-0.140235	-0.983414	0.666773	-0.744727	0.028208	-0.736331	-0.652469	0.179167
48954		-0.114911	-0.140018	-0.983458	0.666717	-0.744780	0.028135	-0.736400	-0.652455	0.178936
48955		-0.114851	-0.139851	-0.983489	0.666743	-0.744760	0.028042	-0.736385	-0.652514	0.178781
48956		-0.114748	-0.139666	-0.983527	0.666991	-0.744543	0.027911	-0.736176	-0.652801	0.178591
48957		-0.114687	-0.139609	-0.983543	0.667287	-0.744280	0.027837	-0.735918	-0.653113	0.178519
48958		-0.114598	-0.139594	-0.983555	0.667742	-0.743874	0.027775	-0.735519	-0.653578	0.178459
48959		-0.114507	-0.139598	-0.983565	0.668158	-0.743502	0.027739	-0.735155	-0.654001	0.178409
48960		-0.114303	-0.139562	-0.983594	0.668662	-0.743050	0.027726	-0.734729	-0.654523	0.178253
48961		-0.114196	-0.139590	-0.983602	0.669144	-0.742616	0.027702	-0.734306	-0.655008	0.178210
48962		-0.114024	-0.139553	-0.983628	0.669751	-0.742071	0.027644	-0.733779	-0.655634	0.178080
48963		-0.113793	-0.139509	-0.983661	0.670325	-0.741554	0.027626	-0.733291	-0.656228	0.177900
48964		-0.113516	-0.139432	-0.983704	0.671012	-0.740933	0.027589	-0.732705	-0.656945	0.177669
48965		-0.113257	-0.139334	-0.983747	0.671750	-0.740267	0.027511	-0.732069	-0.657716	0.177438
48966		-0.112963	-0.139175	-0.983804	0.672668	-0.739438	0.027368	-0.731271	-0.658682	0.177148
48967		-0.112719	-0.139033	-0.983852	0.673573	-0.738620	0.027208	-0.730476	-0.659629	0.176905
48968		-0.112435	-0.138826	-0.983913	0.674609	-0.737682	0.026994	-0.729562	-0.660722	0.176595
48969		-0.112243	-0.138716	-0.983951	0.675635	-0.736749	0.026794	-0.728641	-0.661784	0.176417
48970		-0.111986	-0.138541	-0.984005	0.676712	-0.735768	0.026577	-0.727682	-0.662911	0.176148
48971		-0.111831	-0.138395	-0.984043	0.677750	-0.734822	0.026322	-0.726739	-0.663991	0.175973
48972		-0.111616	-0.138189	-0.984096	0.678908	-0.733762	0.026035	-0.725690	-0.665205	0.175718
48973		-0.111427	-0.138001	-0.984144	0.679926	-0.732827	0.025778	-0.724765	-0.666273	0.175487
48974		-0.111179	-0.137711	-0.984213	0.680999	-0.731841	0.025472	-0.723795	-0.667416	0.175147
48975		-0.110947	-0.137484	-0.984271	0.681945	-0.730968	0.025234	-0.722939	-0.668419	0.174855
48976		-0.110672	-0.137223	-0.984338	0.683015	-0.729978	0.024970	-0.721971	-0.669554	0.174513
48977		-0.110359	-0.136935	-0.984413	0.684067	-0.729000	0.024718	-0.721023	-0.670677	0.174125
48978		-0.110006	-0.136609	-0.984498	0.685229	-0.727918	0.024440	-0.719972	-0.671918	0.173684
48979		-0.109691	-0.136360	-0.984568	0.686242	-0.726969	0.024229	-0.719055	-0.672994	0.173318
48980		-0.109255	-0.136023	-0.984663	0.687280	-0.725995	0.024032	-0.718129	-0.674114	0.172804
48981		-0.108821	-0.135731	-0.984751	0.688217	-0.725111	0.023892	-0.717297	-0.675123	0.172320
48982		-0.108247	-0.135396	-0.984861	0.689065	-0.724308	0.023840	-0.716570	-0.676052	0.171701
48983		-0.107620	-0.135004	-0.984983	0.689878	-0.723534	0.023793	-0.715881	-0.676958	0.171003
48984		-0.107144	-0.134724	-0.985073	0.690464	-0.722976	0.023778	-0.715388	-0.677610	0.170484
48985		-0.106579	-0.134433	-0.985174	0.690824	-0.722629	0.023872	-0.715125	-0.678037	0.169886
48986		-0.105811	-0.133925	-0.985326	0.691617	-0.721871	0.023846	-0.714472	-0.678945	0.169007
48987		-0.105345	-0.133816	-0.985391	0.692084	-0.721419	0.023980	-0.714088	-0.679447	0.168610
48988		-0.105021	-0.133816	-0.985426	0.692214	-0.721288	0.024175	-0.714010	-0.679586	0.168380
48989		-0.104494	-0.133569	-0.985515	0.692771	-0.720750	0.024230	-0.713547	-0.680204	0.167847
48990		-0.104181	-0.133438	-0.985566	0.693427	-0.720121	0.024199	-0.712956	-0.680897	0.167552
48991		-0.103985	-0.133373	-0.985596	0.693799	-0.719762	0.024201	-0.712622	-0.681288	0.167378
48992		-0.103741	-0.133213	-0.985643	0.694398	-0.719187	0.024114	-0.712074	-0.681927	0.167112
48993		-0.103556	-0.133042	-0.985686	0.694854	-0.718750	0.024011	-0.711656	-0.682421	0.166875
48994		-0.103383	-0.132864	-0.985728	0.695300	-0.718322	0.023898	-0.711245	-0.682906	0.166643
48995		-0.103342	-0.132652	-0.985761	0.695686	-0.717955	0.023682	-0.710874	-0.683333	0.166479
48996		-0.103254	-0.132440	-0.985798	0.696099	-0.717562	0.023492	-0.710482	-0.683787	0.166283
48997		-0.103225	-0.132155	-0.985840	0.696417	-0.717261	0.023231	-0.710175	-0.684157	0.166075
48998		-0.103213	-0.131821	-0.985886	0.696714	-0.716982	0.022927	-0.709885	-0.684514	0.165843
48999		-0.103258	-0.131500	-0.985924	0.696907	-0.716805	0.022617	-0.709689	-0.684762	0.165659
49000		-0.103310	-0.131067	-0.985976	0.697019	-0.716708	0.022240	-0.709572	-0.684946	0.165400
49001		-0.103449	-0.130682	-0.986012	0.696997	-0.716741	0.021867	-0.709573	-0.684985	0.165231
49002		-0.103508	-0.130297	-0.986057	0.697032	-0.716716	0.021538	-0.709530	-0.685084	0.165007
49003		-0.103608	-0.129863	-0.986104	0.697133	-0.716631	0.021129	-0.709416	-0.685256	0.164780
49004		-0.103744	-0.129457	-0.986143	0.697505	-0.716283	0.020652	-0.709031	-0.685697	0.164607
49005		-0.103821	-0.129083	-0.986184	0.697876	-0.715933	0.020240	-0.708654	-0.686132	0.164413
49006		-0.103832	-0.128754	-0.986226	0.698357	-0.715473	0.019882	-0.708178	-0.686673	0.164206
49007		-0.103941	-0.128480	-0.986250	0.698889	-0.714965	0.019484	-0.707638	-0.687254	0.164107
49008		-0.103908	-0.128173	-0.986294	0.699513	-0.714363	0.019139	-0.707025	-0.687937	0.163886
49009		-0.103880	-0.127872	-0.986336	0.700161	-0.713737	0.018791	-0.706387	-0.688642	0.163674
49010		-0.103911	-0.127633	-0.986363	0.700885	-0.713036	0.018429	-0.705665	-0.689412	0.163548
49011		-0.103993	-0.127440	-0.986379	0.701469	-0.712470	0.018096	-0.705072	-0.690033	0.163487
49012		-0.104088	-0.127195	-0.986401	0.702003	-0.711954	0.017728	-0.704527	-0.690611	0.163397
49013		-0.104177	-0.126940	-0.986425	0.702329	-0.711640	0.017406	-0.704189	-0.690981	0.163290
49014		-0.104175	-0.126756	-0.986448	0.702528	-0.711448	0.017227	-0.703990	-0.691213	0.163165
49015		-0.104165	-0.126490	-0.986484	0.702592	-0.711389	0.017028	-0.703927	-0.691322	0.162973
49016		-0.104007	-0.126200	-0.986537	0.702683	-0.711302	0.016910	-0.703860	-0.691464	0.162659
49017		-0.103746	-0.125882	-0.986606	0.702627	-0.711358	0.016879	-0.703955	-0.691465	0.162248
49018		-0.103429	-0.125669	-0.986666	0.702539	-0.711443	0.016970	-0.704089	-0.691416	0.161871
49019		-0.103204	-0.125477	-0.986714	0.702353	-0.711625	0.017033	-0.704308	-0.691263	0.161571
49020		-0.102928	-0.125442	-0.986747	0.702038	-0.711930	0.017275	-0.704662	-0.690956	0.161343
49021		-0.102751	-0.125424	-0.986768	0.701470	-0.712484	0.017518	-0.705253	-0.690388	0.161189
49022		-0.102528	-0.125548	-0.986775	0.700589	-0.713339	0.017966	-0.706161	-0.689482	0.161094
49023		-0.102211	-0.125470	-0.986818	0.699790	-0.714113	0.018315	-0.706998	-0.688694	0.160793
49024		-0.101852	-0.125490	-0.986853	0.699094	-0.714784	0.018740	-0.707739	-0.687994	0.160532
49025		-0.101638	-0.125666	-0.986852	0.698264	-0.715582	0.019207	-0.708588	-0.687132	0.160478
49026		-0.101267	-0.125933	-0.986857	0.697503	-0.716307	0.019834	-0.709390	-0.686327	0.160377
49027		-0.101347	-0.126715	-0.986748	0.696702	-0.717067	0.020527	-0.710166	-0.685389	0.160955
49028		-0.101296	-0.127527	-0.986649	0.696053	-0.717674	0.021300	-0.710809	-0.684603	0.161462
49029		-0.101071	-0.128284	-0.986574	0.695767	-0.717929	0.022073	-0.711121	-0.684194	0.161817
49030		-0.101334	-0.129704	-0.986361	0.695835	-0.717837	0.022907	-0.711017	-0.684023	0.162994
49031		-0.101750	-0.131374	-0.986097	0.695620	-0.718013	0.023881	-0.711168	-0.683519	0.164444
49032		-0.101692	-0.132805	-0.985912	0.695759	-0.717842	0.024931	-0.711040	-0.683422	0.165399
49033		-0.101918	-0.134463	-0.985663	0.695981	-0.717592	0.025928	-0.710790	-0.683361	0.166720
49034		-0.101709	-0.135944	-0.985482	0.695738	-0.717780	0.027210	-0.711058	-0.682870	0.167587
49035		-0.101193	-0.136961	-0.985394	0.696050	-0.717438	0.028238	-0.710827	-0.683026	0.167931
49036		-0.100660	-0.137935	-0.985313	0.696664	-0.716804	0.029175	-0.710301	-0.683495	0.168248
49037		-0.100048	-0.139006	-0.985225	0.697394	-0.716051	0.030209	-0.709671	-0.684067	0.168581
49038		-0.098814	-0.139796	-0.985237	0.698547	-0.714876	0.031374	-0.708709	-0.685134	0.168294
49039		-0.097632	-0.140502	-0.985255	0.699722	-0.713679	0.032436	-0.707713	-0.686237	0.167991
49040		-0.096634	-0.141393	-0.985226	0.701056	-0.712321	0.033466	-0.706528	-0.687465	0.167958
49041		-0.095391	-0.141662	-0.985308	0.702821	-0.710548	0.034116	-0.704942	-0.689241	0.167343
49042		-0.094081	-0.141743	-0.985423	0.704574	-0.708783	0.034684	-0.703367	-0.691040	0.166551
49043		-0.093081	-0.141826	-0.985506	0.705870	-0.707469	0.035144	-0.702199	-0.692367	0.165962
49044		-0.091562	-0.141564	-0.985686	0.707527	-0.705787	0.035641	-0.700729	-0.694136	0.164784
49045		-0.089936	-0.140954	-0.985923	0.709049	-0.704240	0.036003	-0.699401	-0.695829	0.163280
49046		-0.088511	-0.140742	-0.986082	0.709974	-0.703274	0.036650	-0.698644	-0.696848	0.162171
49047		-0.087005	-0.140209	-0.986292	0.710835	-0.702378	0.037142	-0.697957	-0.697859	0.160776
49048		-0.085337	-0.139473	-0.986542	0.711611	-0.701566	0.037629	-0.697372	-0.698823	0.159120
49049		-0.083794	-0.138519	-0.986808	0.711686	-0.701467	0.038034	-0.697482	-0.699111	0.157361
49050		-0.082300	-0.137402	-0.987090	0.711417	-0.701722	0.038363	-0.697934	-0.699076	0.155502
49051		-0.080976	-0.135890	-0.987409	0.710772	-0.702375	0.038373	-0.698746	-0.698716	0.153463
49052		-0.079458	-0.133957	-0.987797	0.709597	-0.703564	0.038332	-0.700113	-0.697892	0.150959
49053		-0.078247	-0.131733	-0.988192	0.707912	-0.705280	0.037965	-0.701953	-0.696582	0.148441
49054		-0.077262	-0.129615	-0.988550	0.705067	-0.708135	0.037742	-0.704919	-0.694078	0.146099
49055		-0.076391	-0.127047	-0.988951	0.701641	-0.711559	0.037214	-0.708424	-0.691045	0.143498
49056		-0.075657	-0.124476	-0.989334	0.697780	-0.715374	0.036646	-0.712305	-0.687565	0.140980
49057		-0.075167	-0.121705	-0.989716	0.693109	-0.719939	0.035891	-0.716903	-0.683283	0.138470
49058		-0.074478	-0.118639	-0.990140	0.688354	-0.724528	0.035035	-0.721541	-0.678958	0.135627
49059		-0.073890	-0.115405	-0.990566	0.683285	-0.729360	0.034004	-0.726404	-0.674326	0.132747
49060		-0.073312	-0.112357	-0.990960	0.677947	-0.734364	0.033109	-0.731446	-0.669391	0.130010
49061		-0.072685	-0.109149	-0.991364	0.672892	-0.739047	0.032034	-0.736161	-0.664753	0.127163
49062		-0.072039	-0.106052	-0.991748	0.668207	-0.743332	0.030950	-0.740480	-0.660463	0.124413
49063		-0.071353	-0.103073	-0.992111	0.663943	-0.747187	0.029877	-0.744372	-0.656573	0.121749
49064		-0.070683	-0.100377	-0.992436	0.660371	-0.750385	0.028863	-0.747606	-0.653335	0.119325
49065		-0.070022	-0.097698	-0.992750	0.657216	-0.753191	0.027767	-0.750443	-0.650507	0.116949
49066		-0.069505	-0.095307	-0.993018	0.654811	-0.755322	0.026661	-0.752590	-0.648386	0.114907
49067		-0.069007	-0.092832	-0.993288	0.653066	-0.756876	0.025366	-0.754150	-0.646932	0.112855
49068		-0.068711	-0.090686	-0.993506	0.651891	-0.757930	0.024098	-0.755193	-0.646002	0.111196
49069		-0.068708	-0.088595	-0.993695	0.651105	-0.758650	0.022619	-0.755871	-0.645446	0.109810
49070		-0.068793	-0.086659	-0.993860	0.650759	-0.758990	0.021135	-0.756162	-0.645309	0.108608
49071		-0.069060	-0.084721	-0.994009	0.650546	-0.759216	0.019512	-0.756320	-0.645301	0.107546
49072		-0.069289	-0.082796	-0.994155	0.650626	-0.759187	0.017881	-0.756230	-0.645584	0.106472
49073		-0.069523	-0.080650	-0.994315	0.650632	-0.759223	0.016088	-0.756204	-0.645815	0.105257
49074		-0.069902	-0.078656	-0.994448	0.650458	-0.759407	0.014343	-0.756319	-0.645844	0.104247
49075		-0.070458	-0.076584	-0.994571	0.649865	-0.759947	0.012479	-0.756777	-0.645457	0.103314
49076		-0.071047	-0.074582	-0.994681	0.649116	-0.760615	0.010668	-0.757365	-0.644905	0.102452
49077		-0.071668	-0.072478	-0.994792	0.647979	-0.761607	0.008806	-0.758279	-0.643973	0.101547
49078		-0.072548	-0.070579	-0.994865	0.646540	-0.762848	0.006972	-0.759422	-0.642714	0.100975
49079		-0.073356	-0.068619	-0.994942	0.644404	-0.764668	0.005226	-0.761159	-0.640761	0.100311
49080		-0.074091	-0.066754	-0.995015	0.642444	-0.766324	0.003574	-0.762743	-0.638977	0.099663
49081		-0.074825	-0.064782	-0.995090	0.640323	-0.768104	0.001856	-0.764453	-0.637040	0.098955
49082		-0.075527	-0.062865	-0.995160	0.638161	-0.769903	0.000202	-0.766190	-0.635057	0.098266
49083		-0.076271	-0.060918	-0.995224	0.636088	-0.771615	-0.001517	-0.767838	-0.633166	0.097601
49084		-0.077090	-0.059132	-0.995269	0.633994	-0.773332	-0.003161	-0.769486	-0.631238	0.097106
49085		-0.077651	-0.057192	-0.995339	0.631782	-0.775131	-0.004749	-0.771247	-0.629206	0.096322
49086		-0.077915	-0.055200	-0.995431	0.629781	-0.776748	-0.006222	-0.772855	-0.627388	0.095285
49087		-0.078168	-0.053136	-0.995523	0.627663	-0.778447	-0.007734	-0.774551	-0.625457	0.094201
49088		-0.078289	-0.051097	-0.995620	0.625842	-0.779896	-0.009187	-0.776011	-0.623820	0.093036
49089		-0.078344	-0.048915	-0.995726	0.623798	-0.781512	-0.010688	-0.777649	-0.621969	0.091740
49090		-0.078300	-0.046784	-0.995831	0.622085	-0.782856	-0.012135	-0.779025	-0.620442	0.090401
49091		-0.078426	-0.044763	-0.995914	0.620183	-0.784339	-0.013584	-0.780527	-0.618715	0.089274
49092		-0.078721	-0.042841	-0.995976	0.618099	-0.785956	-0.015047	-0.782148	-0.616796	0.088352
49093		-0.078783	-0.040725	-0.996060	0.616134	-0.787468	-0.016536	-0.783691	-0.615009	0.087131
49094		-0.079329	-0.039024	-0.996084	0.614229	-0.788922	-0.018010	-0.785130	-0.613252	0.086554
49095		-0.080058	-0.037315	-0.996092	0.612038	-0.790586	-0.019575	-0.786766	-0.611213	0.086131
49096		-0.081014	-0.035883	-0.996067	0.609857	-0.792232	-0.021062	-0.788360	-0.609164	0.086065
49097		-0.082149	-0.034391	-0.996027	0.607456	-0.794029	-0.022685	-0.790094	-0.606906	0.086119
49098		-0.083484	-0.033125	-0.995958	0.605141	-0.795749	-0.024259	-0.791729	-0.604720	0.086478
49099		-0.084871	-0.031704	-0.995887	0.602267	-0.797873	-0.025926	-0.793770	-0.601991	0.086810
49100		-0.086410	-0.030387	-0.995796	0.599528	-0.799877	-0.027615	-0.795676	-0.599394	0.087335
49101		-0.087906	-0.029045	-0.995705	0.596540	-0.802049	-0.029270	-0.797755	-0.596551	0.087831
49102		-0.089840	-0.028008	-0.995562	0.593713	-0.804081	-0.030956	-0.799646	-0.593859	0.088867
49103		-0.091608	-0.026842	-0.995433	0.590690	-0.806239	-0.032620	-0.801681	-0.590981	0.089713
49104		-0.093496	-0.026033	-0.995279	0.587847	-0.808254	-0.034081	-0.803551	-0.588259	0.090872
49105		-0.095266	-0.025118	-0.995135	0.585124	-0.810164	-0.035566	-0.805329	-0.585665	0.091879
49106		-0.097012	-0.024468	-0.994982	0.582381	-0.812082	-0.036813	-0.807106	-0.583030	0.093031
49107		-0.097824	-0.023498	-0.994926	0.579486	-0.814107	-0.037749	-0.809090	-0.580239	0.093256
49108		-0.098381	-0.022725	-0.994889	0.577014	-0.815830	-0.038424	-0.810787	-0.577845	0.093375
49109		-0.098220	-0.021916	-0.994923	0.574123	-0.817856	-0.038663	-0.812857	-0.575006	0.092912
49110		-0.097881	-0.021535	-0.994965	0.571174	-0.819928	-0.038444	-0.814972	-0.572061	0.092555
49111		-0.096508	-0.020844	-0.995114	0.568300	-0.821948	-0.037898	-0.817142	-0.569181	0.091170
49112		-0.094756	-0.020368	-0.995292	0.565946	-0.823610	-0.037026	-0.818979	-0.566790	0.089569
49113		-0.092398	-0.019829	-0.995525	0.564487	-0.824658	-0.035966	-0.820255	-0.565283	0.087390
49114		-0.090100	-0.019764	-0.995737	0.564475	-0.824720	-0.034708	-0.820518	-0.565196	0.085464
49115		-0.088486	-0.020066	-0.995875	0.565886	-0.823795	-0.033681	-0.819721	-0.566533	0.084250
49116		-0.087489	-0.021138	-0.995941	0.569256	-0.821515	-0.032571	-0.817492	-0.569795	0.083907
49117		-0.086760	-0.022548	-0.995974	0.574042	-0.818220	-0.031481	-0.814216	-0.574463	0.083932
49118		-0.086050	-0.024665	-0.995985	0.579899	-0.814138	-0.029940	-0.810132	-0.580147	0.084359
49119		-0.085381	-0.027073	-0.995980	0.586042	-0.809789	-0.028227	-0.805769	-0.586097	0.085006
49120		-0.084648	-0.030193	-0.995953	0.592341	-0.805270	-0.025932	-0.801228	-0.592140	0.086049
49121		-0.083637	-0.033561	-0.995931	0.598299	-0.800935	-0.023255	-0.796896	-0.597809	0.087067
49122		-0.082007	-0.037185	-0.995938	0.604200	-0.796581	-0.020009	-0.792601	-0.603387	0.087792
49123		-0.080223	-0.040934	-0.995936	0.609317	-0.792755	-0.016497	-0.788858	-0.608164	0.088539
49124		-0.078192	-0.045003	-0.995922	0.613321	-0.789735	-0.012467	-0.785954	-0.611795	0.089353
49125		-0.075930	-0.048836	-0.995917	0.616327	-0.787446	-0.008376	-0.783821	-0.614446	0.089889
49126		-0.073394	-0.052526	-0.995919	0.618502	-0.785773	-0.004138	-0.782349	-0.616281	0.090158
49127		-0.070748	-0.056070	-0.995917	0.620179	-0.784460	0.000108	-0.781263	-0.617640	0.090273
49128		-0.067832	-0.059867	-0.995899	0.621470	-0.783424	0.004765	-0.780496	-0.618598	0.090346
49129		-0.064672	-0.063913	-0.995858	0.622428	-0.782615	0.009807	-0.780000	-0.619216	0.090395
49130		-0.061975	-0.068753	-0.995707	0.623500	-0.781676	0.015166	-0.779363	-0.619883	0.091312
49131		-0.060089	-0.073878	-0.995455	0.624651	-0.780642	0.020230	-0.778589	-0.620596	0.093056
49132		-0.059456	-0.079720	-0.995043	0.625920	-0.779485	0.025050	-0.777617	-0.621328	0.096244
49133		-0.059874	-0.085760	-0.994515	0.627209	-0.778297	0.029355	-0.776546	-0.622011	0.100389
49134		-0.061338	-0.092288	-0.993841	0.628629	-0.776990	0.033353	-0.775283	-0.622711	0.105674
49135		-0.062869	-0.098416	-0.993158	0.630432	-0.775365	0.036926	-0.773694	-0.623797	0.110791
49136		-0.063898	-0.104154	-0.992506	0.633722	-0.772512	0.040268	-0.770918	-0.626400	0.115366
49137		-0.065388	-0.110126	-0.991764	0.637478	-0.769246	0.043388	-0.767689	-0.629391	0.120503
49138		-0.067364	-0.116706	-0.990879	0.640741	-0.766335	0.046698	-0.764796	-0.631751	0.126402
49139		-0.069333	-0.123066	-0.989974	0.644184	-0.763250	0.049766	-0.761722	-0.634275	0.132195
49140		-0.070967	-0.129228	-0.989072	0.647866	-0.759922	0.052803	-0.758441	-0.637039	0.137652
49141		-0.072409	-0.135006	-0.988195	0.651290	-0.756784	0.055669	-0.755366	-0.639571	0.142726
49142		-0.073885	-0.140813	-0.987275	0.654431	-0.753852	0.058545	-0.752503	-0.641778	0.147850
49143		-0.075041	-0.146073	-0.986424	0.657761	-0.750742	0.061134	-0.749480	-0.644243	0.152418
49144		-0.075856	-0.151001	-0.985619	0.661293	-0.747426	0.063613	-0.746283	-0.646957	0.156553
49145		-0.076601	-0.155515	-0.984859	0.665036	-0.743912	0.065742	-0.742873	-0.649930	0.160407
49146		-0.077715	-0.160078	-0.984040	0.669022	-0.740165	0.067569	-0.739169	-0.653093	0.164617
49148		-0.081567	-0.169036	-0.982229	0.678882	-0.730959	0.069418	-0.729703	-0.661155	0.174377
49149		-0.083313	-0.173012	-0.981390	0.684405	-0.725749	0.069844	-0.724326	-0.665849	0.178874
49150		-0.085365	-0.176726	-0.980551	0.689987	-0.720451	0.069779	-0.718771	-0.670611	0.183440
49151		-0.087338	-0.180354	-0.979717	0.695017	-0.715600	0.069775	-0.713670	-0.674825	0.187848
49152		-0.089126	-0.183225	-0.979022	0.700260	-0.710524	0.069227	-0.708303	-0.679400	0.191631
49153		-0.090620	-0.185681	-0.978423	0.705157	-0.705723	0.068619	-0.703237	-0.683723	0.194886
49154		-0.091917	-0.187565	-0.977942	0.709673	-0.701262	0.067796	-0.698510	-0.687787	0.197567
49155		-0.093107	-0.189196	-0.977515	0.713642	-0.697300	0.066987	-0.694295	-0.691359	0.199942
49156		-0.094178	-0.190123	-0.977233	0.717218	-0.693731	0.065847	-0.690456	-0.694688	0.201694
49157		-0.095077	-0.190698	-0.977034	0.719896	-0.691048	0.064825	-0.687539	-0.697200	0.202986
49158		-0.095486	-0.190285	-0.977074	0.721996	-0.688967	0.063618	-0.685277	-0.699369	0.203172
49159		-0.095885	-0.189602	-0.977168	0.723276	-0.687728	0.062470	-0.683870	-0.700772	0.203077
49160		-0.096191	-0.188337	-0.977382	0.724002	-0.687082	0.061144	-0.683058	-0.701746	0.202448
49161		-0.096389	-0.186608	-0.977695	0.724167	-0.687033	0.059737	-0.682855	-0.702256	0.201358
49162		-0.096598	-0.184461	-0.978081	0.723989	-0.687358	0.058129	-0.683014	-0.702505	0.199945
49163		-0.096865	-0.182321	-0.978456	0.723858	-0.687634	0.056470	-0.683115	-0.702793	0.198582
49164		-0.097540	-0.180133	-0.978794	0.724566	-0.687068	0.054240	-0.682268	-0.703911	0.197535
49166		-0.097285	-0.174068	-0.979916	0.727889	-0.683925	0.049225	-0.678758	-0.708482	0.193238
49167		-0.097199	-0.171353	-0.980403	0.729663	-0.682198	0.046893	-0.676864	-0.710806	0.191339
49168		-0.097121	-0.169099	-0.980802	0.731085	-0.680801	0.044982	-0.675338	-0.712682	0.189746
49169		-0.096687	-0.166595	-0.981274	0.732976	-0.678892	0.043036	-0.673348	-0.715089	0.187750
49170		-0.095965	-0.164347	-0.981723	0.735389	-0.676383	0.041346	-0.670816	-0.717981	0.185768
49171		-0.095192	-0.162204	-0.982155	0.737822	-0.673822	0.039772	-0.668249	-0.720870	0.183820
49172		-0.094611	-0.160756	-0.982449	0.740792	-0.670636	0.038395	-0.665038	-0.724158	0.182536
49173		-0.094107	-0.159359	-0.982725	0.743825	-0.667350	0.036988	-0.661716	-0.727495	0.181337
49174		-0.094006	-0.158904	-0.982808	0.746730	-0.664154	0.035958	-0.658450	-0.730513	0.181093
49175		-0.094413	-0.158990	-0.982755	0.749669	-0.660892	0.034898	-0.655044	-0.733446	0.181587
49176		-0.095039	-0.159577	-0.982600	0.752735	-0.657447	0.033965	-0.651428	-0.736409	0.182602
49177		-0.095760	-0.160111	-0.982443	0.755592	-0.654212	0.032971	-0.648005	-0.739169	0.183626
49178		-0.096300	-0.160951	-0.982253	0.758194	-0.651225	0.032376	-0.644879	-0.741620	0.184745
49180		-0.095574	-0.161265	-0.982273	0.764004	-0.644444	0.031465	-0.638094	-0.747453	0.184799
49181		-0.094537	-0.161030	-0.982411	0.767769	-0.639975	0.031018	-0.633714	-0.751333	0.184135
49182		-0.093201	-0.159969	-0.982712	0.771402	-0.635626	0.030309	-0.629486	-0.755242	0.182642
49183		-0.091757	-0.158936	-0.983016	0.776229	-0.629767	0.029367	-0.623738	-0.760351	0.181156
49184		-0.089885	-0.157278	-0.983455	0.780967	-0.623926	0.028402	-0.618070	-0.765494	0.178911
49185		-0.087872	-0.155891	-0.983858	0.785621	-0.618084	0.027768	-0.612436	-0.770500	0.176784
49186		-0.085593	-0.153823	-0.984384	0.790363	-0.612047	0.026918	-0.606630	-0.775717	0.173963
49187		-0.083238	-0.151699	-0.984916	0.795227	-0.605750	0.026092	-0.600571	-0.781060	0.171057
49188		-0.081966	-0.150291	-0.985238	0.799687	-0.599897	0.024981	-0.594796	-0.785835	0.169357
49189		-0.081738	-0.150343	-0.985249	0.803792	-0.594425	0.024021	-0.589269	-0.789972	0.169432
49190		-0.081568	-0.149916	-0.985328	0.808364	-0.588249	0.022582	-0.583004	-0.794662	0.169169
49191		-0.081449	-0.149809	-0.985354	0.812741	-0.582235	0.021339	-0.576904	-0.799100	0.169178
49192		-0.082615	-0.151026	-0.985072	0.815517	-0.578378	0.020278	-0.572806	-0.801667	0.170947
49193		-0.084418	-0.153735	-0.984499	0.817262	-0.575923	0.019856	-0.570049	-0.802918	0.174261
49194		-0.085979	-0.156315	-0.983958	0.818899	-0.573604	0.019569	-0.567461	-0.804079	0.177324
49195		-0.088269	-0.160761	-0.983038	0.820022	-0.571985	0.019908	-0.565484	-0.804356	0.182316
49196		-0.091234	-0.166821	-0.981757	0.818790	-0.573694	0.021393	-0.566797	-0.801901	0.188932
49197		-0.093534	-0.172900	-0.980488	0.817285	-0.575751	0.023563	-0.568591	-0.799134	0.195161
49198		-0.095123	-0.177854	-0.979449	0.816373	-0.576962	0.025483	-0.569637	-0.797171	0.200078
49199		-0.096417	-0.182505	-0.978466	0.814640	-0.579302	0.027778	-0.571897	-0.794419	0.204530
49200		-0.096695	-0.185099	-0.977951	0.813143	-0.581309	0.029627	-0.573976	-0.792349	0.206722
49201		-0.095499	-0.185610	-0.977972	0.812959	-0.581496	0.030977	-0.574436	-0.792093	0.206426
49202		-0.093365	-0.184473	-0.978393	0.813439	-0.580776	0.031879	-0.574108	-0.792887	0.204281
49203		-0.091061	-0.183835	-0.978730	0.813539	-0.580552	0.033353	-0.574336	-0.793198	0.202423
49204		-0.089749	-0.184572	-0.978713	0.813421	-0.580628	0.034907	-0.574711	-0.792972	0.202245
49206		-0.088412	-0.189519	-0.977889	0.811361	-0.583197	0.039670	-0.577820	-0.789914	0.205330
49208		-0.085532	-0.193066	-0.977451	0.806119	-0.589963	0.045990	-0.585539	-0.784008	0.206095
49209		-0.083984	-0.194320	-0.977336	0.802825	-0.594185	0.049152	-0.590270	-0.780502	0.205907
49210		-0.082232	-0.194124	-0.977524	0.798679	-0.599518	0.051870	-0.596112	-0.776463	0.204343
49211		-0.080122	-0.193200	-0.977882	0.794066	-0.605380	0.054544	-0.602528	-0.772133	0.201918
49212		-0.077693	-0.191259	-0.978460	0.788677	-0.612157	0.057035	-0.609879	-0.767258	0.198402
49213		-0.075148	-0.188888	-0.979119	0.782472	-0.619834	0.059521	-0.618135	-0.761660	0.194379
49214		-0.073011	-0.186107	-0.979813	0.775717	-0.628077	0.061495	-0.626843	-0.755568	0.190223
49215		-0.071183	-0.183469	-0.980445	0.768149	-0.637119	0.063453	-0.636301	-0.748611	0.186284
49216		-0.069620	-0.180286	-0.981147	0.760130	-0.646526	0.064862	-0.646031	-0.741283	0.182052
49217		-0.068141	-0.177094	-0.981832	0.751185	-0.656751	0.066325	-0.656565	-0.733019	0.177782
49218		-0.066858	-0.173925	-0.982487	0.742660	-0.666267	0.067408	-0.666323	-0.725147	0.173713
49219		-0.066705	-0.171521	-0.982920	0.734038	-0.675685	0.068093	-0.675824	-0.716959	0.170975
49220		-0.067364	-0.169519	-0.983222	0.725351	-0.684972	0.068401	-0.685075	-0.708573	0.169103
49221		-0.068277	-0.167492	-0.983506	0.717144	-0.693567	0.068330	-0.693572	-0.700650	0.167471
49222		-0.068998	-0.164867	-0.983899	0.708952	-0.701979	0.067911	-0.701873	-0.692852	0.165318
49223		-0.069975	-0.162276	-0.984261	0.701047	-0.709941	0.067208	-0.709674	-0.685310	0.163442
49224		-0.071253	-0.159595	-0.984608	0.693492	-0.717425	0.066102	-0.716932	-0.678108	0.161797
49227		-0.074456	-0.150876	-0.985745	0.670819	-0.738988	0.062440	-0.737875	-0.656607	0.156233
49229		-0.076360	-0.144850	-0.986503	0.656144	-0.752273	0.059669	-0.750762	-0.642732	0.152486
49230		-0.077202	-0.142056	-0.986843	0.648717	-0.758780	0.058476	-0.757104	-0.635668	0.150734
49231		-0.078056	-0.139167	-0.987188	0.641896	-0.764667	0.057043	-0.762809	-0.629219	0.149017
49232		-0.078405	-0.136345	-0.987554	0.635641	-0.769962	0.055838	-0.767993	-0.623352	0.147035
49233		-0.078271	-0.133283	-0.987982	0.630228	-0.774491	0.054554	-0.772455	-0.618384	0.144619
49234		-0.078910	-0.130940	-0.988245	0.625957	-0.778047	0.053108	-0.775855	-0.614408	0.143359
49235		-0.079887	-0.128917	-0.988432	0.623125	-0.780430	0.051427	-0.778032	-0.611809	0.142678
49236		-0.081135	-0.127438	-0.988522	0.621372	-0.781931	0.049804	-0.779303	-0.610200	0.142628
49237		-0.082629	-0.126014	-0.988581	0.620211	-0.782967	0.047965	-0.780071	-0.609166	0.142851
49238		-0.084433	-0.125034	-0.988553	0.620058	-0.783200	0.046101	-0.779999	-0.609068	0.143656
49239		-0.086042	-0.123816	-0.988568	0.620394	-0.783051	0.044078	-0.779557	-0.609509	0.144190
49240		-0.087661	-0.122764	-0.988557	0.621617	-0.782193	0.042014	-0.778400	-0.610821	0.144881
49241		-0.089167	-0.121572	-0.988569	0.623201	-0.781047	0.039839	-0.776962	-0.612525	0.145407
49242		-0.090789	-0.120738	-0.988524	0.625024	-0.779689	0.037827	-0.775308	-0.614417	0.146251
49243		-0.092125	-0.119302	-0.988575	0.627072	-0.778154	0.035471	-0.773495	-0.616639	0.146498
49244		-0.092456	-0.117846	-0.988718	0.630108	-0.775783	0.033544	-0.770983	-0.619898	0.145982
49245		-0.093687	-0.116703	-0.988738	0.632795	-0.773684	0.031359	-0.768631	-0.622730	0.146333
49246		-0.094607	-0.116203	-0.988709	0.636268	-0.770896	0.029721	-0.765645	-0.626272	0.146869
49247		-0.095586	-0.115055	-0.988750	0.640281	-0.767651	0.027428	-0.762170	-0.630456	0.147044
49248		-0.095555	-0.113315	-0.988953	0.644619	-0.764086	0.025265	-0.758509	-0.635084	0.146058
49249		-0.095413	-0.111097	-0.989219	0.648400	-0.760955	0.022921	-0.755297	-0.639223	0.144640
49250		-0.095409	-0.108816	-0.989473	0.651095	-0.758715	0.020657	-0.752976	-0.642270	0.143237
49251		-0.095634	-0.106049	-0.989751	0.652902	-0.757227	0.018048	-0.751380	-0.644485	0.141656
49252		-0.095277	-0.103222	-0.990085	0.654059	-0.756276	0.015905	-0.750419	-0.646058	0.139569
49253		-0.094528	-0.099940	-0.990493	0.654083	-0.756295	0.013887	-0.750493	-0.646552	0.136860
49254		-0.093412	-0.096394	-0.990950	0.653252	-0.757044	0.012062	-0.751356	-0.646214	0.133687
49255		-0.092033	-0.092332	-0.991466	0.651370	-0.758692	0.010191	-0.753158	-0.644873	0.129967
49256		-0.090806	-0.088480	-0.991930	0.648569	-0.761108	0.008518	-0.755720	-0.642562	0.126498
49257		-0.089617	-0.084477	-0.992387	0.645076	-0.764089	0.006790	-0.758845	-0.639556	0.122970
49258		-0.088500	-0.080794	-0.992794	0.640777	-0.767708	0.005357	-0.762609	-0.635685	0.119713
49259		-0.087283	-0.077210	-0.993187	0.635257	-0.772289	0.004210	-0.767353	-0.630562	0.116456
49260		-0.086181	-0.074100	-0.993520	0.629154	-0.777273	0.003397	-0.772488	-0.624784	0.113606
49261		-0.085473	-0.071396	-0.993779	0.622558	-0.782569	0.002678	-0.777892	-0.618456	0.111337
49262		-0.084936	-0.069247	-0.993977	0.615604	-0.788053	0.002297	-0.783465	-0.611701	0.109563
49263		-0.084495	-0.067309	-0.994148	0.608001	-0.793933	0.002077	-0.789427	-0.604268	0.108007
49264		-0.084287	-0.066031	-0.994251	0.600358	-0.799728	0.002217	-0.795277	-0.596720	0.107049
49265		-0.083623	-0.064808	-0.994388	0.592803	-0.805343	0.002636	-0.800994	-0.589255	0.105763
49267		-0.081020	-0.063023	-0.994718	0.579098	-0.815246	0.004484	-0.811222	-0.575676	0.102547
49268		-0.077971	-0.062011	-0.995025	0.573187	-0.819401	0.006150	-0.815706	-0.569856	0.099434
49269		-0.073565	-0.061531	-0.995390	0.568500	-0.822635	0.008836	-0.819387	-0.565230	0.095498
49270		-0.068070	-0.061740	-0.995768	0.564445	-0.825375	0.012590	-0.822659	-0.561199	0.091032
49271		-0.061306	-0.062627	-0.996152	0.564309	-0.825385	0.017162	-0.823284	-0.561085	0.085942
49272		-0.054678	-0.064257	-0.996434	0.567282	-0.823231	0.021959	-0.821706	-0.564059	0.081464
49273		-0.049323	-0.067473	-0.996501	0.572994	-0.819111	0.027101	-0.818074	-0.569653	0.079063
49274		-0.044881	-0.071113	-0.996458	0.580275	-0.813794	0.031942	-0.813183	-0.576786	0.077789
49275		-0.040699	-0.075266	-0.996333	0.588593	-0.807584	0.036964	-0.807405	-0.584930	0.077168
49276		-0.036420	-0.079098	-0.996201	0.596864	-0.801253	0.041798	-0.801515	-0.593075	0.076392
49277		-0.031735	-0.083154	-0.996031	0.604636	-0.795107	0.047115	-0.795870	-0.600741	0.075511
49278		-0.027184	-0.086998	-0.995838	0.611257	-0.789702	0.052304	-0.790965	-0.607291	0.074645
49279		-0.023852	-0.092073	-0.995467	0.616577	-0.785167	0.057849	-0.786933	-0.612402	0.075498
49280		-0.021946	-0.098095	-0.994935	0.619651	-0.782307	0.063463	-0.784570	-0.615120	0.077953
49281		-0.022884	-0.105923	-0.994111	0.620951	-0.780815	0.068903	-0.783515	-0.615718	0.083641
49284		-0.034996	-0.128309	-0.991117	0.622783	-0.778418	0.078782	-0.781611	-0.614494	0.107150
49285		-0.037857	-0.133385	-0.990341	0.626433	-0.775309	0.080477	-0.778555	-0.617336	0.112908
49286		-0.039978	-0.137798	-0.989653	0.630698	-0.771687	0.081970	-0.774998	-0.620895	0.117759
49287		-0.042094	-0.143010	-0.988826	0.635617	-0.767429	0.083932	-0.770856	-0.624981	0.123204
49288		-0.044305	-0.148517	-0.987917	0.640638	-0.763015	0.085976	-0.766564	-0.629088	0.128951
49289		-0.046104	-0.154273	-0.986952	0.646569	-0.757735	0.088240	-0.761461	-0.634064	0.134683
49290		-0.047553	-0.159433	-0.986063	0.653161	-0.751844	0.090065	-0.755725	-0.639775	0.139888
49291		-0.048512	-0.164361	-0.985207	0.659988	-0.745635	0.091896	-0.749709	-0.645766	0.144649
49292		-0.049618	-0.169010	-0.984365	0.666583	-0.739559	0.093378	-0.743778	-0.651527	0.149354
49293		-0.050682	-0.173790	-0.983478	0.672698	-0.733793	0.095002	-0.738179	-0.656769	0.154098
49295		-0.052360	-0.182331	-0.981842	0.683740	-0.723139	0.097827	-0.727845	-0.666202	0.162530
49296		-0.052733	-0.186616	-0.981017	0.688803	-0.718078	0.099572	-0.723028	-0.670477	0.166407
49297		-0.053161	-0.190868	-0.980175	0.693580	-0.713226	0.101268	-0.718415	-0.674447	0.170298
49298		-0.053701	-0.195336	-0.979265	0.698146	-0.708501	0.103041	-0.713938	-0.678137	0.174420
49299		-0.053869	-0.199100	-0.978498	0.703086	-0.703397	0.104417	-0.709062	-0.682343	0.177876
49300		-0.053657	-0.202565	-0.977798	0.708300	-0.697950	0.105722	-0.703869	-0.686901	0.180926
49301		-0.053463	-0.205416	-0.977213	0.713364	-0.692643	0.106570	-0.698751	-0.691411	0.183568
49302		-0.052836	-0.207984	-0.976704	0.718378	-0.687298	0.107495	-0.693644	-0.695963	0.185725
49303		-0.052384	-0.209765	-0.976348	0.723282	-0.682096	0.107740	-0.688563	-0.700531	0.187450
49304		-0.051640	-0.211125	-0.976094	0.727986	-0.677043	0.107928	-0.683644	-0.705010	0.188658
49305		-0.051609	-0.211955	-0.975916	0.732716	-0.672037	0.107208	-0.678575	-0.709536	0.189986
49306		-0.051912	-0.212581	-0.975764	0.736752	-0.667758	0.106283	-0.674168	-0.713378	0.191284
49307		-0.052584	-0.212226	-0.975805	0.740320	-0.664078	0.104535	-0.670195	-0.716911	0.192035
49308		-0.053053	-0.211227	-0.975996	0.742432	-0.661971	0.102908	-0.667818	-0.719151	0.191941
49309		-0.053578	-0.209407	-0.976360	0.743687	-0.660865	0.100931	-0.666377	-0.720699	0.191141
49310		-0.054162	-0.207209	-0.976796	0.744181	-0.660620	0.098874	-0.665779	-0.721558	0.189981
49311		-0.054748	-0.204341	-0.977368	0.744075	-0.661085	0.096535	-0.665850	-0.721949	0.188238
49312		-0.055365	-0.201401	-0.977943	0.743918	-0.661607	0.094138	-0.665973	-0.722298	0.186455
49313		-0.055962	-0.197906	-0.978622	0.743977	-0.661936	0.091319	-0.665858	-0.722962	0.184281
49314		-0.056379	-0.194123	-0.979356	0.744540	-0.661712	0.088300	-0.665193	-0.724191	0.181839
49315		-0.057061	-0.189992	-0.980126	0.745589	-0.660999	0.084724	-0.663959	-0.725936	0.179373
49316		-0.058354	-0.186557	-0.980710	0.747324	-0.659505	0.080989	-0.661892	-0.728182	0.177904
49317		-0.059358	-0.182994	-0.981321	0.749047	-0.657981	0.077390	-0.659852	-0.730462	0.176127
49318		-0.058580	-0.179348	-0.982040	0.750789	-0.656263	0.075066	-0.657940	-0.732907	0.173096
49319		-0.056850	-0.176324	-0.982689	0.752027	-0.654963	0.074014	-0.656676	-0.734801	0.169835
49320		-0.055093	-0.174734	-0.983073	0.752589	-0.654305	0.074122	-0.656182	-0.735767	0.167551
49321		-0.053365	-0.173218	-0.983437	0.753577	-0.653163	0.074153	-0.655190	-0.737138	0.165390
49322		-0.051537	-0.171764	-0.983789	0.755752	-0.650663	0.074011	-0.652827	-0.739686	0.163344
49323		-0.050520	-0.170564	-0.984051	0.758342	-0.647718	0.073336	-0.649896	-0.742542	0.162069
49324		-0.050316	-0.170316	-0.984104	0.761199	-0.644441	0.072612	-0.646564	-0.745445	0.162070
49326		-0.051510	-0.169985	-0.984099	0.767929	-0.636722	0.069787	-0.638460	-0.752124	0.163334
49327		-0.052132	-0.169774	-0.984103	0.772350	-0.631543	0.068037	-0.633055	-0.756525	0.164048
49328		-0.053071	-0.169465	-0.984106	0.777192	-0.625808	0.065853	-0.627022	-0.761344	0.164919
49329		-0.054367	-0.169792	-0.983979	0.782427	-0.619479	0.063664	-0.620364	-0.766431	0.166529
49330		-0.055551	-0.169789	-0.983914	0.787229	-0.613592	0.061438	-0.614153	-0.771152	0.167748
49332		-0.056473	-0.168921	-0.984010	0.798466	-0.599330	0.057060	-0.599385	-0.782477	0.168723
49335		-0.055194	-0.167856	-0.984265	0.812954	-0.579882	0.053306	-0.579706	-0.797221	0.168465
49336		-0.054868	-0.168700	-0.984139	0.816607	-0.574756	0.052997	-0.574580	-0.800747	0.169297
49337		-0.055316	-0.170415	-0.983819	0.819704	-0.570356	0.052708	-0.570109	-0.803525	0.171240
49338		-0.055902	-0.172718	-0.983384	0.824060	-0.564089	0.052230	-0.563737	-0.807448	0.173864
49339		-0.057040	-0.175606	-0.982807	0.828092	-0.558206	0.051678	-0.557683	-0.810906	0.177258
49340		-0.059119	-0.179953	-0.981897	0.830278	-0.554945	0.051715	-0.554205	-0.812190	0.182219
49341		-0.062496	-0.185346	-0.980684	0.830490	-0.554611	0.051895	-0.553516	-0.811205	0.188589
49342		-0.065760	-0.190870	-0.979410	0.830064	-0.555194	0.052465	-0.553777	-0.809523	0.194944
49343		-0.068319	-0.195536	-0.978314	0.828323	-0.557679	0.053619	-0.556070	-0.806697	0.200067
49344		-0.070173	-0.200041	-0.977271	0.825539	-0.561592	0.055676	-0.559965	-0.802869	0.204550
49345		-0.071023	-0.203260	-0.976546	0.821706	-0.566928	0.058240	-0.565469	-0.798297	0.207284
49346		-0.071047	-0.205771	-0.976018	0.818713	-0.570977	0.060781	-0.569791	-0.794760	0.209033
49347		-0.070588	-0.206830	-0.975827	0.815942	-0.574715	0.062790	-0.573809	-0.791786	0.209329
49348		-0.069355	-0.206299	-0.976028	0.813851	-0.577513	0.064235	-0.576920	-0.789886	0.207950
49349		-0.066987	-0.203276	-0.976827	0.812303	-0.579612	0.064911	-0.579375	-0.789132	0.203948
49350		-0.063802	-0.199384	-0.977842	0.811483	-0.580699	0.065458	-0.580883	-0.789326	0.198847
49351		-0.061757	-0.196659	-0.978525	0.811094	-0.581223	0.065621	-0.581646	-0.789624	0.195403
49352		-0.062000	-0.197008	-0.978440	0.810630	-0.581852	0.065788	-0.582267	-0.789073	0.195775
49353		-0.063915	-0.199554	-0.977800	0.808860	-0.584244	0.066363	-0.584517	-0.786662	0.198754
49354		-0.066003	-0.203045	-0.976942	0.805939	-0.588105	0.067780	-0.588307	-0.782883	0.202458
49356		-0.067792	-0.206238	-0.976151	0.798238	-0.598150	0.070939	-0.598515	-0.774391	0.205177
49357		-0.066846	-0.205791	-0.976310	0.793903	-0.603660	0.072885	-0.604359	-0.770223	0.203731
49358		-0.065427	-0.204603	-0.976656	0.789005	-0.609805	0.074894	-0.610894	-0.765686	0.201330
49359		-0.063585	-0.203043	-0.977103	0.784223	-0.615694	0.076909	-0.617212	-0.761377	0.198380
49360		-0.062006	-0.201022	-0.977622	0.778225	-0.623029	0.078750	-0.624917	-0.755927	0.195072
49361		-0.060052	-0.198159	-0.978329	0.771262	-0.631401	0.080547	-0.633679	-0.749710	0.190749
49362		-0.058323	-0.194697	-0.979128	0.763664	-0.640403	0.081854	-0.642974	-0.742951	0.186033
49363		-0.056812	-0.191439	-0.979859	0.755982	-0.649306	0.083026	-0.652122	-0.736039	0.181613
49364		-0.056241	-0.188454	-0.980470	0.747443	-0.659020	0.083794	-0.661941	-0.728133	0.177923
49365		-0.055454	-0.185279	-0.981120	0.738904	-0.668495	0.084477	-0.671525	-0.720269	0.173974
49366		-0.055769	-0.182263	-0.981667	0.730873	-0.677296	0.084230	-0.680231	-0.712777	0.170984
49367		-0.056603	-0.179542	-0.982120	0.723194	-0.685561	0.083648	-0.688322	-0.705529	0.168649
49368		-0.058217	-0.176894	-0.982507	0.715840	-0.693382	0.082423	-0.695833	-0.698519	0.166995
49369		-0.059466	-0.173605	-0.983018	0.708734	-0.700823	0.080895	-0.702966	-0.691888	0.164715
49370		-0.060409	-0.169704	-0.983642	0.701403	-0.708358	0.079135	-0.710200	-0.685149	0.161823
49371		-0.061590	-0.166016	-0.984198	0.694286	-0.715541	0.077250	-0.717059	-0.678557	0.159333
49372		-0.063382	-0.162944	-0.984597	0.686540	-0.723163	0.075484	-0.724324	-0.671181	0.157703
49373		-0.065213	-0.160439	-0.984889	0.678886	-0.730500	0.074047	-0.731342	-0.663799	0.156557
49374		-0.067498	-0.157896	-0.985146	0.671270	-0.737684	0.072241	-0.738133	-0.656423	0.155783
49375		-0.069608	-0.155250	-0.985420	0.665070	-0.743479	0.070154	-0.743530	-0.650489	0.155005
49376		-0.071190	-0.152444	-0.985745	0.658127	-0.749791	0.068424	-0.749534	-0.643874	0.153705
49377		-0.072492	-0.149551	-0.986093	0.651252	-0.755918	0.066766	-0.755391	-0.637356	0.152193
49378		-0.073818	-0.146493	-0.986454	0.645146	-0.761308	0.064780	-0.760485	-0.631625	0.150708
49379		-0.074459	-0.143316	-0.986872	0.639759	-0.765991	0.062970	-0.764960	-0.626672	0.148723
49380		-0.075663	-0.140381	-0.987202	0.634122	-0.770822	0.061010	-0.769522	-0.621390	0.147341
49381		-0.077189	-0.137801	-0.987448	0.629617	-0.774670	0.058890	-0.773061	-0.617169	0.146558
49382		-0.079022	-0.135646	-0.987601	0.625922	-0.777818	0.056750	-0.775872	-0.613677	0.146369
49383		-0.081062	-0.133683	-0.987703	0.622996	-0.780325	0.054485	-0.778014	-0.610918	0.146539
49384		-0.083230	-0.131924	-0.987760	0.621206	-0.781914	0.052088	-0.779215	-0.609267	0.147030
49385		-0.085754	-0.130316	-0.987757	0.621198	-0.782104	0.049254	-0.778947	-0.609370	0.148021
49386		-0.088274	-0.128702	-0.987747	0.622001	-0.781649	0.046260	-0.778025	-0.610296	0.149052
49387		-0.091449	-0.127390	-0.987628	0.623229	-0.780856	0.043012	-0.776674	-0.611585	0.150802
49388		-0.093813	-0.125820	-0.987608	0.625093	-0.779528	0.039933	-0.774892	-0.613601	0.151779
49389		-0.096181	-0.124058	-0.987603	0.627655	-0.777633	0.036556	-0.772527	-0.616358	0.152659
49391		-0.099913	-0.120384	-0.987687	0.632289	-0.774136	0.030394	-0.768263	-0.621466	0.153464
49392		-0.101572	-0.118480	-0.987748	0.635036	-0.772000	0.027299	-0.765776	-0.624482	0.153653
49393		-0.102874	-0.116568	-0.987840	0.636942	-0.770519	0.024592	-0.764017	-0.626667	0.153514
49394		-0.104630	-0.114583	-0.987888	0.638045	-0.769693	0.021698	-0.762857	-0.628047	0.153642
49395		-0.105303	-0.112030	-0.988110	0.639453	-0.768596	0.018996	-0.761585	-0.629849	0.152574
49396		-0.106232	-0.109358	-0.988310	0.640537	-0.767758	0.016103	-0.760544	-0.631339	0.151608
49397		-0.106270	-0.106550	-0.988612	0.640601	-0.767748	0.013885	-0.760485	-0.631830	0.149845
49398		-0.106846	-0.103984	-0.988823	0.639787	-0.768464	0.011679	-0.761089	-0.631388	0.148635
49399		-0.106570	-0.101250	-0.989137	0.637756	-0.770172	0.010124	-0.762830	-0.629749	0.146650
49400		-0.106609	-0.098692	-0.989391	0.635182	-0.772315	0.008596	-0.764970	-0.627527	0.145023
49401		-0.106568	-0.096042	-0.989656	0.631600	-0.775261	0.007224	-0.767935	-0.624297	0.143278
49402		-0.106468	-0.093762	-0.989885	0.627988	-0.778199	0.006167	-0.770906	-0.620980	0.141735
49403		-0.107246	-0.091801	-0.989985	0.623595	-0.781732	0.004935	-0.774356	-0.616821	0.141084
49404		-0.107617	-0.089777	-0.990131	0.618957	-0.785415	0.003941	-0.778017	-0.612424	0.140092
49405		-0.107656	-0.087334	-0.990345	0.613783	-0.789469	0.002898	-0.782100	-0.607545	0.138595
49406		-0.107470	-0.084920	-0.990575	0.609280	-0.792953	0.001876	-0.785639	-0.603336	0.136959
49407		-0.108306	-0.083000	-0.990647	0.603177	-0.797607	0.000882	-0.790220	-0.597440	0.136449
49408		-0.109568	-0.081438	-0.990638	0.596469	-0.802636	0.000011	-0.795122	-0.590884	0.136518
49409		-0.110913	-0.079460	-0.990648	0.589627	-0.807674	-0.001231	-0.800024	-0.584250	0.136434
49410		-0.111437	-0.077136	-0.990773	0.582839	-0.812584	-0.002291	-0.804910	-0.577717	0.135510
49411		-0.111693	-0.074769	-0.990926	0.575760	-0.817613	-0.003205	-0.809954	-0.570893	0.134371
49412		-0.111500	-0.072692	-0.991102	0.568663	-0.822563	-0.003644	-0.814979	-0.564009	0.133054
49413		-0.110852	-0.070874	-0.991307	0.560840	-0.827916	-0.003523	-0.820469	-0.556355	0.131525
49414		-0.109534	-0.069568	-0.991546	0.552469	-0.833529	-0.002548	-0.826305	-0.548078	0.129734
49415		-0.107577	-0.068463	-0.991837	0.543691	-0.839285	-0.001037	-0.832363	-0.539364	0.127510
49417		-0.099646	-0.066333	-0.992810	0.529590	-0.848246	0.003520	-0.842380	-0.525432	0.119653
49418		-0.094068	-0.065753	-0.993392	0.525055	-0.851043	0.006612	-0.845854	-0.520963	0.114580
49420		-0.083437	-0.066935	-0.994263	0.525832	-0.850487	0.013129	-0.846486	-0.521720	0.106158
49421		-0.079401	-0.068788	-0.994467	0.531008	-0.847212	0.016205	-0.843639	-0.526783	0.103797
49422		-0.075907	-0.071310	-0.994562	0.538455	-0.842433	0.019307	-0.839229	-0.534061	0.102344
49423		-0.072815	-0.073855	-0.994607	0.546827	-0.836953	0.022115	-0.834073	-0.542268	0.101328
49424		-0.069608	-0.076685	-0.994623	0.554760	-0.831626	0.025294	-0.829094	-0.550016	0.100429
49425		-0.066305	-0.079685	-0.994612	0.560467	-0.827671	0.028948	-0.825518	-0.555528	0.099540
49426		-0.063021	-0.083576	-0.994507	0.563470	-0.825450	0.033663	-0.823729	-0.558254	0.099113
49427		-0.059970	-0.088067	-0.994308	0.564768	-0.824330	0.038949	-0.823068	-0.559218	0.099173
49430		-0.053330	-0.104669	-0.993076	0.565121	-0.823078	0.056404	-0.823283	-0.558200	0.103045
49431		-0.052538	-0.110677	-0.992467	0.564633	-0.823018	0.061891	-0.823668	-0.557128	0.105732
49434		-0.055167	-0.127891	-0.990253	0.567125	-0.820270	0.074343	-0.821782	-0.557496	0.117782
49437		-0.056441	-0.143436	-0.988049	0.579249	-0.810748	0.084608	-0.813195	-0.567551	0.128845
49438		-0.056697	-0.148860	-0.987232	0.586171	-0.805418	0.087781	-0.808201	-0.573710	0.132922
49439		-0.057690	-0.154590	-0.986293	0.593189	-0.799940	0.090684	-0.802994	-0.579826	0.137850
49440		-0.059019	-0.160650	-0.985245	0.600787	-0.793927	0.093466	-0.797228	-0.586406	0.143373
49441		-0.059732	-0.165987	-0.984317	0.608719	-0.787572	0.095870	-0.791134	-0.593446	0.148083
49442		-0.059926	-0.170859	-0.983471	0.617059	-0.780785	0.098047	-0.784632	-0.600984	0.152220
49443		-0.060445	-0.175552	-0.982613	0.624706	-0.774439	0.099931	-0.778517	-0.607804	0.156479
49444		-0.061073	-0.180246	-0.981724	0.631480	-0.768675	0.101846	-0.772983	-0.613719	0.160767
49446		-0.061485	-0.188237	-0.980197	0.643651	-0.758054	0.105202	-0.762845	-0.624437	0.167768
49447		-0.060781	-0.191319	-0.979644	0.650094	-0.752340	0.106593	-0.757419	-0.630382	0.170103
49448		-0.059807	-0.193779	-0.979220	0.656388	-0.746700	0.107675	-0.752049	-0.636309	0.171853
49449		-0.058858	-0.196359	-0.978764	0.662843	-0.740817	0.108762	-0.746442	-0.642365	0.173758
49450		-0.057795	-0.198721	-0.978350	0.668944	-0.735158	0.109807	-0.741063	-0.648115	0.175422
49451		-0.056602	-0.201084	-0.977937	0.675562	-0.728933	0.110783	-0.735128	-0.654386	0.177104
49452		-0.055212	-0.203290	-0.977561	0.681939	-0.722814	0.111798	-0.729322	-0.660464	0.178539
49453		-0.053530	-0.205385	-0.977216	0.688354	-0.716536	0.112890	-0.723397	-0.666628	0.179734
49454		-0.051988	-0.207281	-0.976899	0.694805	-0.710153	0.113707	-0.717317	-0.672843	0.180940
49455		-0.049750	-0.208823	-0.976687	0.701258	-0.703617	0.114718	-0.711170	-0.679202	0.181444
49456		-0.047815	-0.210125	-0.976505	0.707361	-0.697365	0.115423	-0.705233	-0.685223	0.181979
49457		-0.045372	-0.211118	-0.976407	0.713096	-0.691345	0.116346	-0.699596	-0.690993	0.181916
49458		-0.042701	-0.211784	-0.976383	0.718440	-0.685627	0.117297	-0.694277	-0.696465	0.181431
49459		-0.039953	-0.212417	-0.976362	0.723248	-0.680359	0.118423	-0.689431	-0.701421	0.180813
49460		-0.036893	-0.212602	-0.976442	0.727308	-0.675798	0.119662	-0.685319	-0.705760	0.179559
49461		-0.033213	-0.212395	-0.976619	0.731385	-0.671129	0.121084	-0.681155	-0.710264	0.177632
49462		-0.029739	-0.212472	-0.976715	0.735809	-0.666021	0.122480	-0.676536	-0.715033	0.176146
49463		-0.026490	-0.213001	-0.976693	0.740719	-0.660289	0.123908	-0.671292	-0.720173	0.175265
49465		-0.019310	-0.213787	-0.976689	0.750840	-0.648154	0.127030	-0.660202	-0.730884	0.173036
49466		-0.015342	-0.214205	-0.976668	0.756342	-0.641374	0.128787	-0.653996	-0.736719	0.171852
49467		-0.011803	-0.214695	-0.976610	0.761863	-0.634502	0.130279	-0.647631	-0.742505	0.171057
49468		-0.008533	-0.215069	-0.976562	0.767486	-0.627439	0.131475	-0.641009	-0.748375	0.170416
49469		-0.005234	-0.214682	-0.976670	0.774032	-0.619240	0.131967	-0.633124	-0.755283	0.169412
49470		-0.002584	-0.214790	-0.976657	0.781977	-0.609190	0.131907	-0.623301	-0.763383	0.169535
49471		-0.001002	-0.215655	-0.976469	0.789183	-0.599877	0.131675	-0.614158	-0.770481	0.170792
49472		0.000961	-0.216192	-0.976350	0.796220	-0.590534	0.131545	-0.605007	-0.777516	0.171569
49473		0.003626	-0.216085	-0.976368	0.803817	-0.580185	0.131389	-0.594865	-0.785298	0.171589
49474		0.005965	-0.216387	-0.976289	0.810947	-0.570191	0.131333	-0.585090	-0.792502	0.172077
49475		0.008257	-0.216686	-0.976206	0.817278	-0.561050	0.131448	-0.576184	-0.798918	0.172460
49476		0.010829	-0.216566	-0.976208	0.824004	-0.551135	0.131406	-0.566480	-0.805822	0.172483
49477		0.013607	-0.216154	-0.976265	0.830996	-0.540568	0.131269	-0.556112	-0.813058	0.172267
49478		0.016534	-0.216017	-0.976250	0.837669	-0.530115	0.131487	-0.545928	-0.819948	0.172186
49479		0.019960	-0.215217	-0.976362	0.844889	-0.518511	0.131566	-0.534570	-0.827543	0.171485
49480		0.023396	-0.214874	-0.976361	0.853772	-0.503809	0.131335	-0.520121	-0.836663	0.171667
49481		0.027168	-0.214462	-0.976354	0.862618	-0.488516	0.131309	-0.505126	-0.845788	0.171726
49483		0.035561	-0.214481	-0.976081	0.881841	-0.452805	0.131626	-0.470205	-0.865428	0.173036
49484		0.040430	-0.214306	-0.975930	0.891516	-0.433305	0.132083	-0.451181	-0.875397	0.173539
49485		0.045317	-0.214731	-0.975621	0.900798	-0.413422	0.132835	-0.431867	-0.884857	0.174694
49486		0.050384	-0.215522	-0.975198	0.909308	-0.393944	0.134043	-0.413062	-0.893509	0.176127
49488		0.061933	-0.216474	-0.974322	0.926037	-0.351691	0.137002	-0.372317	-0.910743	0.178682
49489		0.068833	-0.215806	-0.974007	0.933426	-0.330654	0.139227	-0.352105	-0.918747	0.178679
49490		0.076518	-0.214510	-0.973720	0.940678	-0.308238	0.141826	-0.330561	-0.926809	0.178199
49491		0.084767	-0.211725	-0.973646	0.947881	-0.284078	0.144298	-0.307143	-0.935132	0.176610
49492		0.093122	-0.207591	-0.973773	0.955012	-0.257960	0.146320	-0.281569	-0.943590	0.174230
49493		0.100854	-0.202936	-0.973984	0.961422	-0.231946	0.147880	-0.255922	-0.951324	0.171714
49494		0.107877	-0.199994	-0.973840	0.967279	-0.205149	0.149281	-0.229638	-0.958079	0.171319
49495		0.114705	-0.196661	-0.973739	0.972480	-0.177873	0.150480	-0.202795	-0.964202	0.170846
49496		0.120890	-0.193406	-0.973643	0.977041	-0.150159	0.151139	-0.175433	-0.969560	0.170812
49497		0.126181	-0.190840	-0.973478	0.980814	-0.122997	0.151244	-0.148598	-0.973885	0.171658
49498		0.130279	-0.189963	-0.973109	0.984150	-0.094327	0.150171	-0.120318	-0.977249	0.174663
49499		0.133488	-0.190043	-0.972659	0.986581	-0.067623	0.148611	-0.094017	-0.979444	0.178466
49500		0.136287	-0.191136	-0.972056	0.988114	-0.044198	0.147229	-0.071104	-0.980568	0.182840
49501		0.139010	-0.191578	-0.971583	0.988937	-0.024438	0.146312	-0.051774	-0.981173	0.186061
49503		0.144563	-0.187670	-0.971536	0.989351	0.010613	0.145163	-0.016932	-0.982175	0.187205
49504		0.147061	-0.183774	-0.971905	0.989127	0.027939	0.144384	0.000620	-0.982571	0.185885
49506		0.150760	-0.172573	-0.973391	0.987954	0.061075	0.142187	0.034912	-0.983101	0.179702
49507		0.151520	-0.165956	-0.974423	0.987124	0.076532	0.140461	0.051265	-0.983159	0.175415
49508		0.151526	-0.158603	-0.975646	0.986219	0.090580	0.138444	0.066417	-0.983179	0.170143
49509		0.150994	-0.151696	-0.976826	0.985214	0.104015	0.136138	0.080953	-0.982939	0.165159
49510		0.150064	-0.145831	-0.977862	0.983960	0.118526	0.133324	0.096460	-0.982184	0.161278
49511		0.148969	-0.141734	-0.978632	0.982400	0.133995	0.130136	0.112687	-0.980794	0.159200
49512		0.148021	-0.139767	-0.979058	0.980711	0.148523	0.127068	0.127653	-0.978982	0.159055
49513		0.147211	-0.140743	-0.979041	0.979054	0.161486	0.123998	0.140650	-0.976787	0.161568
49514		0.146236	-0.143268	-0.978820	0.977297	0.174269	0.120501	0.153314	-0.974220	0.165500
49515		0.145032	-0.145265	-0.978705	0.975151	0.188414	0.116539	0.167472	-0.971287	0.168981
49516		0.143557	-0.145023	-0.978959	0.972474	0.204126	0.112367	0.183535	-0.968143	0.170335
49517		0.141900	-0.144085	-0.979338	0.969258	0.221123	0.107907	0.201006	-0.964544	0.171033
49518		0.140246	-0.142644	-0.979788	0.965698	0.238124	0.103561	0.218538	-0.960703	0.171147
49519		0.138536	-0.140852	-0.980290	0.961855	0.254897	0.099306	0.235886	-0.956655	0.170792
49520		0.136816	-0.138695	-0.980839	0.957783	0.271259	0.095243	0.252851	-0.952461	0.169953
49521		0.134895	-0.136285	-0.981443	0.953201	0.288323	0.090977	0.270574	-0.947785	0.168800
49522		0.132594	-0.133690	-0.982113	0.948363	0.305165	0.086497	0.288143	-0.942869	0.167250
49523		0.129969	-0.131498	-0.982760	0.942937	0.322843	0.081505	0.306559	-0.937273	0.165954
49525		0.125282	-0.128556	-0.983757	0.930148	0.360178	0.071388	0.345150	-0.923983	0.164700
49526		0.123479	-0.127628	-0.984106	0.923142	0.378625	0.066726	0.364091	-0.916708	0.164571
49527		0.121868	-0.126626	-0.984436	0.915911	0.396505	0.062384	0.382434	-0.909258	0.164299
49528		0.120281	-0.125113	-0.984824	0.908235	0.414381	0.058283	0.400801	-0.901463	0.163474
49529		0.118799	-0.123307	-0.985232	0.900064	0.432347	0.054419	0.419252	-0.893237	0.162346
49530		0.117523	-0.121377	-0.985625	0.891656	0.449840	0.050922	0.437193	-0.884823	0.161093
49531		0.116134	-0.118921	-0.986089	0.882930	0.467080	0.047655	0.454915	-0.876181	0.159242
49532		0.114786	-0.116311	-0.986558	0.873361	0.485043	0.044431	0.473355	-0.866721	0.157258
49533		0.113702	-0.113884	-0.986966	0.863352	0.502898	0.041433	0.491625	-0.856810	0.155502
49534		0.112513	-0.111096	-0.987420	0.852248	0.521726	0.038410	0.510896	-0.845848	0.153383
49535		0.111313	-0.108227	-0.987875	0.840440	0.540744	0.035459	0.530349	-0.834196	0.151150
49536		0.110453	-0.105768	-0.988237	0.828268	0.559377	0.032705	0.549339	-0.822137	0.149389
49537		0.109423	-0.103028	-0.988641	0.815606	0.577827	0.030055	0.568167	-0.809630	0.147258
49538		0.108394	-0.100250	-0.989040	0.802185	0.596444	0.027459	0.587155	-0.796369	0.145070
49539		0.107554	-0.097700	-0.989387	0.788443	0.614598	0.025020	0.605631	-0.782767	0.143134
49540		0.106908	-0.095344	-0.989687	0.774042	0.632729	0.022658	0.624044	-0.768481	0.141444
49541		0.106434	-0.093169	-0.989945	0.758828	0.650974	0.020319	0.642536	-0.753361	0.139985
49542		0.106016	-0.091206	-0.990173	0.742774	0.669304	0.017877	0.661096	-0.737370	0.138703
49543		0.105617	-0.089282	-0.990391	0.726237	0.687270	0.015490	0.679283	-0.720894	0.137427
49544		0.105240	-0.087583	-0.990583	0.709166	0.704922	0.013016	0.697143	-0.703857	0.136296
49545		0.104667	-0.085701	-0.990808	0.691984	0.721834	0.010664	0.714285	-0.686739	0.134856
49546		0.103830	-0.083763	-0.991062	0.674393	0.738327	0.008251	0.731036	-0.669221	0.133150
49547		0.102947	-0.081732	-0.991323	0.657202	0.753690	0.006109	0.746651	-0.652129	0.131305
49548		0.102128	-0.079657	-0.991577	0.639928	0.768424	0.004179	0.761618	-0.634964	0.129452
49549		0.101451	-0.077683	-0.991803	0.622549	0.782578	0.002385	0.775977	-0.617687	0.127754
49550		0.100896	-0.076055	-0.991986	0.604834	0.796351	0.000463	0.789934	-0.600033	0.126350
49551		0.100510	-0.074564	-0.992138	0.587262	0.809396	-0.001337	0.803132	-0.582511	0.125141
49552		0.100610	-0.073652	-0.992196	0.569377	0.822070	-0.003288	0.815897	-0.564603	0.124644
49553		0.100996	-0.072980	-0.992207	0.551754	0.833991	-0.005180	0.827869	-0.546931	0.124497
49554		0.101661	-0.072578	-0.992168	0.533546	0.845740	-0.007198	0.839639	-0.528636	0.124702
49555		0.102366	-0.072220	-0.992122	0.515667	0.856740	-0.009159	0.850652	-0.510667	0.124943
49556		0.103088	-0.071962	-0.992066	0.497175	0.867577	-0.011269	0.861504	-0.492069	0.125214
49557		0.104151	-0.071827	-0.991964	0.479141	0.877638	-0.013241	0.871537	-0.473912	0.125822
49558		0.105394	-0.071782	-0.991836	0.460571	0.887491	-0.015289	0.881343	-0.455200	0.126597
49559		0.106385	-0.071427	-0.991756	0.442137	0.896783	-0.017159	0.890616	-0.436667	0.126985
49560		0.107618	-0.071240	-0.991637	0.423746	0.905580	-0.019071	0.899365	-0.418150	0.127644
49561		0.109053	-0.071138	-0.991487	0.406471	0.913426	-0.020829	0.907132	-0.400740	0.128527
49562		0.110710	-0.071277	-0.991294	0.389707	0.920660	-0.022675	0.914260	-0.383804	0.129703
49563		0.112395	-0.071368	-0.991097	0.374206	0.927027	-0.024317	0.920509	-0.368141	0.130899
49564		0.114472	-0.071601	-0.990843	0.359345	0.932845	-0.025894	0.926157	-0.353090	0.132514
49565		0.116592	-0.071538	-0.990600	0.346011	0.937842	-0.027003	0.930958	-0.339611	0.134098
49566		0.119320	-0.071686	-0.990265	0.333769	0.942239	-0.027992	0.935073	-0.327179	0.136355
49567		0.121720	-0.071767	-0.989967	0.323225	0.945883	-0.028830	0.938461	-0.316473	0.138330
49568		0.124074	-0.071987	-0.989658	0.312950	0.949302	-0.029816	0.941631	-0.306014	0.140312
49569		0.126625	-0.072366	-0.989307	0.304385	0.952055	-0.030681	0.944095	-0.297246	0.142581
49570		0.129472	-0.072881	-0.988901	0.296480	0.954518	-0.031531	0.946222	-0.289107	0.145191
49571		0.132370	-0.073352	-0.988482	0.289704	0.956575	-0.032189	0.947919	-0.282106	0.147873
49572		0.134933	-0.073816	-0.988101	0.283569	0.958388	-0.032873	0.949411	-0.275759	0.150250
49573		0.137095	-0.074244	-0.987772	0.278077	0.959972	-0.033559	0.950725	-0.270076	0.152253
49574		0.139178	-0.074768	-0.987441	0.273130	0.961366	-0.034296	0.951856	-0.264926	0.154222
49575		0.140975	-0.075091	-0.987161	0.268865	0.962548	-0.034823	0.952805	-0.260504	0.155885
49576		0.142110	-0.075334	-0.986980	0.263222	0.964075	-0.035685	0.954211	-0.254723	0.156834
49577		0.143258	-0.075511	-0.986800	0.258054	0.965444	-0.036414	0.955450	-0.249431	0.157794
49578		0.144617	-0.075806	-0.986580	0.252523	0.966873	-0.037276	0.956723	-0.243743	0.158969
49579		0.145826	-0.075905	-0.986394	0.246930	0.968288	-0.038006	0.957998	-0.238028	0.159945
49580		0.147429	-0.076022	-0.986147	0.241250	0.969692	-0.038686	0.959199	-0.232204	0.161301
49581		0.148928	-0.075877	-0.985933	0.236186	0.970923	-0.039045	0.960227	-0.227049	0.162519
49582		0.150706	-0.075666	-0.985679	0.230275	0.972326	-0.039433	0.961385	-0.221034	0.163959
49583		0.152398	-0.075187	-0.985455	0.224766	0.973611	-0.039523	0.962421	-0.215474	0.165276
49584		0.154564	-0.074567	-0.985165	0.219190	0.974886	-0.039400	0.963362	-0.209849	0.167027
49585		0.156833	-0.073808	-0.984863	0.213820	0.976090	-0.039101	0.964201	-0.204451	0.168865
49586		0.159263	-0.072805	-0.984548	0.207877	0.977391	-0.038649	0.965102	-0.198509	0.170797
49587		0.162013	-0.071630	-0.984185	0.201569	0.978735	-0.038052	0.965982	-0.192217	0.173006
49588		0.165057	-0.070355	-0.983771	0.194257	0.980233	-0.037509	0.966964	-0.184913	0.175461
49589		0.168457	-0.068889	-0.983299	0.186323	0.981797	-0.036863	0.967939	-0.177001	0.178226
49590		0.171888	-0.067235	-0.982819	0.176737	0.983586	-0.036378	0.969133	-0.167448	0.180949
49591		0.175310	-0.065304	-0.982345	0.166823	0.985339	-0.035731	0.970277	-0.157614	0.183634
49592		0.178301	-0.063089	-0.981951	0.155306	0.987238	-0.035229	0.971642	-0.146222	0.185824
49593		0.180596	-0.060422	-0.981700	0.143025	0.989115	-0.034567	0.973103	-0.134165	0.187272
49594		0.182790	-0.057450	-0.981472	0.130029	0.990934	-0.033787	0.974515	-0.121444	0.188603
49595		0.184318	-0.053846	-0.981391	0.117228	0.992575	-0.032442	0.975851	-0.109067	0.189262
49597		0.185643	-0.044877	-0.981592	0.090469	0.995494	-0.028403	0.978444	-0.083531	0.188866
49598		0.185396	-0.039035	-0.981888	0.077650	0.996668	-0.024961	0.979591	-0.071616	0.187809
49599		0.184989	-0.032343	-0.982208	0.063964	0.997735	-0.020807	0.980657	-0.058977	0.186639
49600		0.184849	-0.024854	-0.982453	0.049898	0.998628	-0.015875	0.981499	-0.046088	0.185836
49601		0.185703	-0.016956	-0.982460	0.034177	0.999358	-0.010787	0.982011	-0.031575	0.186163
49603		0.188832	0.000400	-0.982009	0.000362	1.000000	0.000477	0.982009	-0.000446	0.188832
49604		0.190325	0.009704	-0.981673	-0.018755	0.999805	0.006247	0.981542	0.017222	0.190470
49605		0.191671	0.019049	-0.981274	-0.038456	0.999190	0.011885	0.980705	0.035458	0.192249
49606		0.193145	0.028183	-0.980765	-0.059239	0.998099	0.017015	0.979380	0.054814	0.194447
49607		0.193947	0.037018	-0.980313	-0.080450	0.996522	0.021714	0.977708	0.074655	0.196250
49608		0.193791	0.045330	-0.979995	-0.103004	0.994351	0.025625	0.975620	0.095978	0.197365
49609		0.192752	0.053373	-0.979795	-0.126230	0.991572	0.029182	0.973094	0.118055	0.197864
49610		0.191130	0.061028	-0.979666	-0.150541	0.988080	0.032182	0.969952	0.141328	0.198039
49611		0.189692	0.068583	-0.979445	-0.174720	0.983994	0.035063	0.966173	0.164478	0.198639
49612		0.188478	0.076074	-0.979126	-0.198831	0.979304	0.037813	0.961739	0.187554	0.199703
49613		0.187004	0.083623	-0.978793	-0.222294	0.974128	0.040754	0.956878	0.209958	0.200755
49614		0.185208	0.091120	-0.978466	-0.245544	0.968400	0.043705	0.951528	0.232162	0.201729
49615		0.183527	0.098792	-0.978038	-0.267926	0.962296	0.046926	0.945798	0.253429	0.203076
49616		0.181959	0.106345	-0.977538	-0.290617	0.955540	0.049856	0.939379	0.275018	0.204775
49617		0.180406	0.113823	-0.976984	-0.312664	0.948397	0.052757	0.932574	0.295950	0.206685
49618		0.179016	0.121147	-0.976359	-0.334187	0.940873	0.055471	0.925350	0.316356	0.208917
49619		0.177472	0.128368	-0.975718	-0.354713	0.933159	0.058251	0.917977	0.335762	0.211144
49620		0.176052	0.135269	-0.975043	-0.375178	0.924971	0.060581	0.910081	0.355149	0.213593
49621		0.174415	0.141831	-0.974404	-0.394491	0.916749	0.062826	0.902195	0.373436	0.215846
49622		0.172792	0.148024	-0.973772	-0.413307	0.908288	0.064730	0.894047	0.391281	0.218125
49623		0.171573	0.154190	-0.973030	-0.430773	0.899995	0.066659	0.886001	0.407719	0.220835
49624		0.170621	0.160106	-0.972242	-0.447465	0.891688	0.068314	0.877874	0.423389	0.223783
49626		0.168447	0.171554	-0.970667	-0.478122	0.875359	0.071737	0.861989	0.452013	0.229475
49627		0.167428	0.176923	-0.969879	-0.492137	0.867428	0.073278	0.854265	0.465045	0.232302
49628		0.166619	0.182128	-0.969055	-0.504849	0.859959	0.074821	0.846974	0.476760	0.235233
49631		0.166228	0.196344	-0.966342	-0.538600	0.838961	0.077814	0.826001	0.507537	0.245210
49632		0.166093	0.200423	-0.965528	-0.547747	0.832937	0.078675	0.819992	0.515797	0.248127
49633		0.165553	0.203960	-0.964880	-0.556718	0.826910	0.079275	0.814038	0.524041	0.250446
49634		0.164811	0.207102	-0.964337	-0.564812	0.821346	0.079863	0.808594	0.531507	0.252341
49635		0.164462	0.210063	-0.963756	-0.572300	0.816111	0.080220	0.803384	0.538364	0.254438
49636		0.163949	0.212338	-0.963345	-0.579100	0.811296	0.080268	0.798602	0.544713	0.255976
49637		0.162760	0.213690	-0.963248	-0.584974	0.807077	0.080201	0.794553	0.550422	0.256362
49638		0.161327	0.214319	-0.963349	-0.590220	0.803281	0.079867	0.790957	0.555703	0.256086
49640		0.158695	0.214261	-0.963799	-0.599119	0.796804	0.078488	0.784776	0.564974	0.254816
49641		0.156692	0.213685	-0.964254	-0.603285	0.793716	0.077859	0.781982	0.569520	0.253281
49642		0.154661	0.213026	-0.964728	-0.606793	0.791082	0.077404	0.779668	0.573418	0.251612
49643		0.152398	0.212396	-0.965227	-0.609516	0.788989	0.077380	0.777988	0.576528	0.249699
49644		0.149942	0.211635	-0.965778	-0.612250	0.786869	0.077375	0.776316	0.579696	0.247558
49645		0.146962	0.210969	-0.966382	-0.613699	0.785659	0.078187	0.775742	0.581578	0.244934
49646		0.143644	0.210203	-0.967047	-0.615596	0.784093	0.078995	0.774860	0.583963	0.242031
49647		0.140102	0.209580	-0.967702	-0.617438	0.782532	0.080085	0.774042	0.586276	0.239037
49648		0.136537	0.208818	-0.968376	-0.620129	0.780325	0.080832	0.772527	0.589482	0.236037
49649		0.132979	0.207896	-0.969070	-0.623408	0.777660	0.081286	0.770506	0.593316	0.233017
49650		0.129840	0.206792	-0.969731	-0.627089	0.774699	0.081239	0.768050	0.597560	0.230264
49651		0.127258	0.205792	-0.970286	-0.630737	0.771761	0.080962	0.765491	0.601693	0.228013
49652		0.125361	0.204939	-0.970714	-0.635224	0.768159	0.080140	0.762086	0.606574	0.226479
49653		0.123611	0.204336	-0.971065	-0.639389	0.764759	0.079533	0.758882	0.611057	0.225182
49654		0.121759	0.203835	-0.971404	-0.643754	0.761141	0.079024	0.755484	0.615724	0.223895
49655		0.120089	0.203500	-0.971682	-0.648207	0.757406	0.078513	0.751935	0.620423	0.222866
49656		0.118929	0.203231	-0.971881	-0.652814	0.753524	0.077685	0.748124	0.625219	0.222288
49657		0.117747	0.202619	-0.972153	-0.657715	0.749370	0.076523	0.744007	0.630389	0.221501
49658		0.116408	0.201617	-0.972522	-0.663096	0.744765	0.075029	0.739428	0.636141	0.220388
49659		0.115054	0.200678	-0.972878	-0.668913	0.739700	0.073473	0.734383	0.642317	0.219341
49660		0.113527	0.199494	-0.973300	-0.675551	0.733827	0.071613	0.728521	0.649384	0.218078
49661		0.111652	0.198334	-0.973754	-0.682334	0.727684	0.069976	0.722464	0.656613	0.216577
49662		0.109292	0.196986	-0.974295	-0.688993	0.721515	0.068590	0.716480	0.663786	0.214578
49663		0.106821	0.195904	-0.974788	-0.695018	0.715798	0.067692	0.711013	0.670264	0.212619
49664		0.105003	0.195081	-0.975150	-0.701350	0.709712	0.066459	0.705041	0.676943	0.211342
49665		0.104387	0.195056	-0.975221	-0.708482	0.702754	0.064724	0.697966	0.684171	0.211552
49666		0.105356	0.195862	-0.974956	-0.716684	0.694628	0.062099	0.689394	0.692192	0.213554
49667		0.107592	0.197718	-0.974336	-0.724589	0.686624	0.059320	0.680731	0.699611	0.217140
49668		0.110736	0.200404	-0.973435	-0.731223	0.679772	0.056765	0.673090	0.705513	0.221815
49669		0.115157	0.204833	-0.971999	-0.735428	0.675352	0.055190	0.667746	0.708480	0.228411
49670		0.119134	0.209410	-0.970544	-0.738131	0.672453	0.054487	0.664055	0.709897	0.234684
49671		0.122569	0.214224	-0.969064	-0.740009	0.670378	0.054598	0.661335	0.710424	0.240695
49672		0.126798	0.219985	-0.967227	-0.740518	0.669761	0.055252	0.659966	0.709244	0.247827
49673		0.130425	0.225407	-0.965495	-0.740649	0.669532	0.056260	0.659111	0.707756	0.254271
49674		0.133008	0.229648	-0.964142	-0.741307	0.668740	0.057020	0.657855	0.707141	0.259188
49675		0.134146	0.232412	-0.963322	-0.741702	0.668224	0.057932	0.657178	0.706726	0.262020
49676		0.134336	0.233892	-0.962937	-0.741923	0.667908	0.058728	0.656889	0.706536	0.263254
49677		0.133284	0.234048	-0.963046	-0.741945	0.667806	0.059612	0.657079	0.706581	0.262658
49678		0.131773	0.233765	-0.963322	-0.742835	0.666764	0.060188	0.656378	0.707658	0.261510
49679		0.130789	0.234327	-0.963320	-0.743639	0.665794	0.060991	0.655664	0.708385	0.261333
49680		0.130751	0.235954	-0.962928	-0.744759	0.664475	0.061694	0.654399	0.709083	0.262610
49681		0.131089	0.238190	-0.962331	-0.745469	0.663585	0.062698	0.653523	0.709169	0.264552
49682		0.131294	0.240423	-0.961748	-0.745762	0.663135	0.063965	0.653147	0.708837	0.266364
49683		0.131206	0.242385	-0.961267	-0.745486	0.663296	0.065497	0.653480	0.708017	0.267723
49684		0.130782	0.243693	-0.960994	-0.744588	0.664145	0.067086	0.654588	0.706771	0.268309
49685		0.129549	0.243995	-0.961085	-0.742604	0.666164	0.069023	0.657081	0.704764	0.267492
49686		0.127519	0.243144	-0.961572	-0.739719	0.669148	0.071103	0.660722	0.702226	0.265187
49687		0.124764	0.241428	-0.962365	-0.735658	0.673348	0.073549	0.665764	0.698796	0.261618
49688		0.121674	0.239012	-0.963363	-0.730560	0.678596	0.076090	0.671920	0.694537	0.257180
49689		0.118600	0.236164	-0.964448	-0.724326	0.684957	0.078653	0.679181	0.689246	0.252296
49690		0.115425	0.233029	-0.965595	-0.717278	0.692032	0.081268	0.687161	0.683220	0.247025
49691		0.112625	0.229891	-0.966678	-0.709962	0.699263	0.083580	0.695176	0.676891	0.241969
49692		0.110391	0.226608	-0.967710	-0.702467	0.706583	0.085327	0.703103	0.670365	0.237185
49693		0.108617	0.223143	-0.968716	-0.694719	0.714051	0.086586	0.711033	0.663580	0.232579
49694		0.107647	0.219674	-0.969616	-0.686086	0.722244	0.087460	0.719512	0.655825	0.228463
49695		0.107294	0.216296	-0.970414	-0.677581	0.730184	0.087834	0.727580	0.648110	0.224903
49696		0.107733	0.213062	-0.971081	-0.669646	0.737505	0.087522	0.734825	0.640851	0.222130
49697		0.108475	0.209974	-0.971671	-0.661971	0.744466	0.086975	0.741638	0.633784	0.219752
49698		0.109732	0.207023	-0.972163	-0.654742	0.750943	0.086011	0.747845	0.627077	0.217949
49699		0.110760	0.203898	-0.972706	-0.647634	0.757198	0.084979	0.753858	0.620546	0.215918
49700		0.111792	0.200610	-0.973272	-0.640172	0.763640	0.083869	0.760055	0.613685	0.213793
49701		0.112700	0.197214	-0.973861	-0.632659	0.770000	0.082716	0.766186	0.606800	0.211548
49702		0.113966	0.193877	-0.974384	-0.625124	0.776275	0.081342	0.772160	0.599840	0.209666
49703		0.114838	0.190500	-0.974947	-0.617028	0.782836	0.080283	0.778517	0.592350	0.207443
49704		0.115711	0.187067	-0.975509	-0.608903	0.789288	0.079131	0.784760	0.584834	0.205235
49706		0.117923	0.180832	-0.976419	-0.592692	0.801749	0.076903	0.796750	0.569647	0.201722
49707		0.119245	0.177952	-0.976787	-0.584845	0.807602	0.075733	0.802332	0.562238	0.200377
49708		0.119939	0.175149	-0.977209	-0.577466	0.812978	0.074837	0.807557	0.555329	0.198651
49709		0.121413	0.172482	-0.977501	-0.570319	0.818127	0.073522	0.812401	0.548561	0.197701
49710		0.122825	0.170070	-0.977747	-0.563886	0.822685	0.072263	0.816668	0.542462	0.196946
49711		0.124458	0.167877	-0.977920	-0.557773	0.826954	0.070974	0.820609	0.536624	0.196559
49712		0.125820	0.165808	-0.978099	-0.552096	0.830851	0.069827	0.824232	0.531219	0.196080
49713		0.127547	0.163882	-0.978200	-0.547119	0.834253	0.068428	0.827280	0.526464	0.196069
49714		0.129353	0.162028	-0.978271	-0.542422	0.837432	0.066979	0.830088	0.521972	0.196212
49715		0.131150	0.159973	-0.978370	-0.538077	0.840364	0.065279	0.832630	0.517877	0.196291
49716		0.132519	0.157737	-0.978549	-0.534141	0.843003	0.063552	0.834944	0.514261	0.195968
49717		0.134404	0.155290	-0.978683	-0.529981	0.845782	0.061419	0.837291	0.510429	0.195977
49718		0.135327	0.152650	-0.978971	-0.526357	0.848179	0.059495	0.839425	0.507237	0.195130
49719		0.136623	0.149731	-0.979242	-0.522459	0.850744	0.057190	0.841648	0.503800	0.194459
49720		0.137011	0.146364	-0.979697	-0.518654	0.853218	0.054934	0.843935	0.500597	0.192812
49721		0.137189	0.142644	-0.980220	-0.515471	0.855308	0.052323	0.845854	0.498097	0.190867
49722		0.136940	0.138683	-0.980823	-0.512223	0.857412	0.049718	0.847865	0.495591	0.188450
49723		0.136680	0.134567	-0.981433	-0.507820	0.860168	0.047218	0.850551	0.491938	0.185904
49724		0.135247	0.129910	-0.982259	-0.503089	0.863069	0.044876	0.853586	0.488094	0.182083
49725		0.132927	0.124945	-0.983219	-0.499285	0.865396	0.042471	0.856181	0.485260	0.177418
49726		0.130371	0.120731	-0.984087	-0.496482	0.867097	0.040605	0.858201	0.483288	0.172985
49727		0.128898	0.117437	-0.984680	-0.493541	0.868847	0.039016	0.860118	0.480951	0.169953
49728		0.127452	0.115099	-0.985144	-0.491146	0.870242	0.038133	0.861703	0.478989	0.167445
49729		0.127438	0.113346	-0.985349	-0.489077	0.871456	0.036991	0.862881	0.477197	0.166491
49730		0.127380	0.111683	-0.985546	-0.486779	0.872783	0.035989	0.864188	0.475159	0.165540
49731		0.127331	0.109878	-0.985755	-0.484592	0.874047	0.034831	0.865423	0.473254	0.164539
49732		0.127089	0.107667	-0.986031	-0.482730	0.875134	0.033339	0.866499	0.471750	0.163194
49733		0.126908	0.105220	-0.986318	-0.480606	0.876365	0.031652	0.867705	0.470013	0.161787
49734		0.126283	0.102638	-0.986670	-0.478419	0.877617	0.030062	0.869004	0.468245	0.159932
49735		0.125303	0.099902	-0.987076	-0.475701	0.879142	0.028591	0.870637	0.465970	0.157683
49736		0.124092	0.096739	-0.987544	-0.472786	0.880768	0.026871	0.872396	0.463562	0.155033
49737		0.122595	0.093921	-0.988003	-0.470384	0.882094	0.025486	0.873905	0.461616	0.152319
49738		0.121668	0.091477	-0.988346	-0.467599	0.883609	0.024221	0.875527	0.459203	0.150282
49739		0.121333	0.089608	-0.988559	-0.464789	0.885118	0.023185	0.877069	0.456658	0.149043
49740		0.121298	0.088163	-0.988693	-0.461979	0.886608	0.022382	0.878557	0.454041	0.148273
49741		0.122181	0.087177	-0.988672	-0.458658	0.888349	0.021649	0.880173	0.450817	0.148524
49742		0.122815	0.086206	-0.988678	-0.454771	0.890357	0.021141	0.882099	0.447026	0.148554
49743		0.123155	0.085011	-0.988740	-0.451105	0.892235	0.020526	0.883933	0.443497	0.148232
49744		0.123389	0.083764	-0.988817	-0.446972	0.894325	0.019985	0.885997	0.439507	0.147790
49745		0.123069	0.082452	-0.988967	-0.442297	0.896652	0.019715	0.888385	0.434990	0.146818
49746		0.122340	0.081047	-0.989174	-0.438039	0.898745	0.019461	0.890592	0.430916	0.145454
49747		0.120572	0.079483	-0.989518	-0.434164	0.900624	0.019440	0.892729	0.427269	0.143098
49748		0.118138	0.078375	-0.989899	-0.429327	0.902922	0.020251	0.895389	0.422598	0.140318
49749		0.115163	0.077608	-0.990310	-0.424796	0.905033	0.021525	0.897934	0.418201	0.137193
49750		0.111046	0.077166	-0.990815	-0.421563	0.906498	0.023353	0.899974	0.415098	0.133193
49751		0.106250	0.077184	-0.991339	-0.420370	0.906992	0.025562	0.901110	0.414014	0.128814
49753		0.096764	0.079742	-0.992108	-0.425032	0.904639	0.031256	0.899991	0.418653	0.121430
49754		0.093447	0.082450	-0.992204	-0.429296	0.902502	0.034564	0.898316	0.422720	0.119731
49755		0.089960	0.085597	-0.992260	-0.434426	0.899895	0.038243	0.896204	0.427624	0.118140
49756		0.087108	0.089065	-0.992209	-0.440235	0.896906	0.041861	0.893647	0.433159	0.117338
49757		0.084897	0.093000	-0.992040	-0.445369	0.894180	0.045712	0.891313	0.437943	0.117332
49758		0.083193	0.097106	-0.991791	-0.450076	0.891615	0.049545	0.889107	0.442259	0.117881
49759		0.080686	0.101187	-0.991590	-0.454481	0.889133	0.053750	0.887095	0.446322	0.117728
49760		0.077657	0.105480	-0.991385	-0.458499	0.886772	0.058434	0.885296	0.450011	0.117227
49761		0.074575	0.110577	-0.991066	-0.461802	0.884674	0.063957	0.883843	0.452906	0.117039
49762		0.072621	0.116406	-0.990543	-0.464643	0.882753	0.069674	0.882515	0.455189	0.118194
49763		0.071322	0.122538	-0.989898	-0.467554	0.880748	0.075339	0.881083	0.457457	0.120110
49764		0.071605	0.128831	-0.989078	-0.471190	0.878369	0.080298	0.879120	0.460294	0.123599
49765		0.072965	0.134978	-0.988158	-0.475183	0.875816	0.084545	0.876857	0.463387	0.128044
49766		0.074800	0.140648	-0.987230	-0.480221	0.872727	0.087950	0.873953	0.467509	0.132822
49767		0.076678	0.145749	-0.986346	-0.486082	0.869199	0.090651	0.870543	0.472494	0.137495
49768		0.078027	0.150239	-0.985566	-0.493180	0.864963	0.092810	0.866421	0.478819	0.141585
49769		0.078832	0.154663	-0.984817	-0.501661	0.859845	0.094880	0.861465	0.486565	0.145372
49770		0.080272	0.159539	-0.983923	-0.510648	0.854316	0.096864	0.856035	0.494662	0.150046
49771		0.082242	0.164998	-0.982859	-0.519552	0.848684	0.098999	0.850471	0.502505	0.155523
49772		0.084970	0.170630	-0.981665	-0.528605	0.842868	0.100751	0.844605	0.510352	0.161814
49773		0.087708	0.176215	-0.980436	-0.537582	0.836978	0.102340	0.838637	0.518089	0.168140
49774		0.090534	0.181694	-0.979179	-0.545687	0.831530	0.103843	0.833084	0.524924	0.174430
49776		0.094934	0.191617	-0.976868	-0.561971	0.820299	0.106292	0.821691	0.538881	0.185558
49777		0.097064	0.196268	-0.975734	-0.569863	0.814718	0.107191	0.815987	0.545631	0.190926
49778		0.099149	0.200771	-0.974608	-0.577361	0.809317	0.107984	0.810447	0.551994	0.196160
49779		0.101175	0.204994	-0.973520	-0.585118	0.803668	0.108419	0.804612	0.558654	0.201257
49780		0.102824	0.209122	-0.972469	-0.593023	0.797794	0.108856	0.798593	0.565503	0.206046
49781		0.104571	0.213300	-0.971374	-0.600956	0.791791	0.109172	0.792412	0.572337	0.210982
49782		0.106004	0.217601	-0.970264	-0.608906	0.785625	0.109667	0.786128	0.579175	0.215778
49783		0.107106	0.221936	-0.969161	-0.617771	0.778622	0.110030	0.779029	0.586935	0.220501
49784		0.107772	0.226309	-0.968075	-0.626845	0.771266	0.110517	0.771655	0.594922	0.224981
49785		0.108609	0.230849	-0.966909	-0.635760	0.763869	0.110961	0.764207	0.602671	0.229727
49786		0.109587	0.235420	-0.965696	-0.644177	0.756725	0.111375	0.756986	0.609873	0.234579
49787		0.110369	0.239273	-0.964659	-0.652995	0.749167	0.111112	0.749277	0.617654	0.238929
49788		0.110811	0.242450	-0.963815	-0.661697	0.741588	0.110472	0.741537	0.625512	0.242605
49789		0.110302	0.244465	-0.963364	-0.668713	0.735334	0.110034	0.735294	0.632077	0.244586
49790		0.109875	0.246063	-0.963006	-0.674744	0.729882	0.109510	0.729827	0.637750	0.246226
49791		0.109493	0.246996	-0.962811	-0.678796	0.726177	0.109097	0.726118	0.641607	0.247171
49792		0.107984	0.246491	-0.963110	-0.682280	0.722989	0.108539	0.723072	0.645390	0.246247
49793		0.106565	0.245246	-0.963586	-0.685823	0.719807	0.107354	0.719924	0.649409	0.244902
49794		0.105350	0.243794	-0.964088	-0.688174	0.717717	0.106293	0.717856	0.652263	0.243384
49795		0.104339	0.241925	-0.964669	-0.690654	0.715559	0.104750	0.715619	0.655323	0.241747
49796		0.102742	0.239367	-0.965478	-0.693455	0.713099	0.103001	0.713137	0.658933	0.239255
49797		0.101207	0.236559	-0.966332	-0.696258	0.710643	0.101045	0.710620	0.662590	0.236629
49798		0.100114	0.233983	-0.967072	-0.699290	0.707963	0.098899	0.707792	0.666363	0.234499
49799		0.100113	0.231822	-0.967593	-0.702655	0.704996	0.096206	0.704452	0.670253	0.233470
49800		0.099538	0.229120	-0.968296	-0.706070	0.701941	0.093512	0.701111	0.674376	0.231645
49801		0.098685	0.226304	-0.969045	-0.709428	0.698883	0.090966	0.697835	0.678490	0.229515
49802		0.097278	0.223626	-0.969808	-0.712296	0.696202	0.089088	0.695105	0.682125	0.227013
49803		0.095765	0.220976	-0.970566	-0.714818	0.693823	0.087437	0.692723	0.685405	0.224401
49804		0.093710	0.217927	-0.971456	-0.717563	0.691184	0.085835	0.690161	0.689037	0.221147
49805		0.092064	0.214868	-0.972294	-0.721090	0.687765	0.083712	0.686697	0.693405	0.218257
49806		0.090878	0.212192	-0.972993	-0.725068	0.683848	0.081413	0.682655	0.698087	0.216000
49807		0.090169	0.209747	-0.973589	-0.729266	0.679668	0.078885	0.678263	0.702892	0.214246
49808		0.089382	0.207176	-0.974212	-0.733668	0.675214	0.076278	0.673604	0.707930	0.212350
49809		0.089376	0.204801	-0.974715	-0.738148	0.670653	0.073229	0.668692	0.712939	0.211113
49810		0.090184	0.202856	-0.975047	-0.742297	0.666406	0.069988	0.663975	0.717462	0.210678
49811		0.091299	0.200889	-0.975350	-0.746627	0.661917	0.066443	0.658948	0.722156	0.210421
49812		0.091867	0.198786	-0.975728	-0.750828	0.657462	0.063253	0.654077	0.726793	0.209653
49815		0.091959	0.193583	-0.976765	-0.763656	0.643226	0.055584	0.639040	0.740801	0.206981
49816		0.090396	0.191714	-0.977279	-0.767540	0.638697	0.054299	0.634595	0.745193	0.204884
49817		0.088351	0.189676	-0.977864	-0.771213	0.634337	0.053362	0.630417	0.749426	0.202324
49818		0.086027	0.187925	-0.978409	-0.774603	0.630228	0.052942	0.626569	0.753324	0.199784
49819		0.083372	0.186165	-0.978975	-0.778584	0.625332	0.052609	0.621978	0.757828	0.197080
49820		0.080460	0.184748	-0.979487	-0.783254	0.619481	0.052504	0.616474	0.762962	0.194548
49821		0.078114	0.184087	-0.979801	-0.787458	0.614120	0.052603	0.611399	0.767443	0.192932
49822		0.076259	0.184149	-0.979935	-0.791508	0.608872	0.052824	0.606383	0.771598	0.192188
49823		0.075029	0.184268	-0.980008	-0.796326	0.602599	0.052338	0.600197	0.776479	0.191949
49824		0.074796	0.185316	-0.979828	-0.801136	0.596252	0.051614	0.593790	0.781115	0.193061
49825		0.075851	0.187597	-0.979313	-0.805535	0.590375	0.050701	0.587673	0.785026	0.195896
49826		0.078479	0.191916	-0.978268	-0.808873	0.585851	0.050042	0.582723	0.787367	0.201213
49827		0.082458	0.197803	-0.976767	-0.810046	0.584236	0.049929	0.580539	0.787110	0.208405
49828		0.086304	0.203998	-0.975160	-0.810524	0.583538	0.050339	0.579311	0.786046	0.215707
49829		0.090831	0.211138	-0.973227	-0.809735	0.584554	0.051244	0.579723	0.783401	0.224061
49830		0.094786	0.218087	-0.971315	-0.807569	0.587380	0.053076	0.582106	0.779373	0.231796
49831		0.098481	0.224477	-0.969490	-0.806689	0.588475	0.054313	0.582713	0.776729	0.239037
49832		0.100184	0.228436	-0.968390	-0.806711	0.588351	0.055330	0.582393	0.775668	0.243225
49833		0.100766	0.230581	-0.967822	-0.807169	0.587661	0.055969	0.581656	0.775556	0.245334
49834		0.100142	0.231051	-0.967774	-0.807605	0.587004	0.056576	0.581159	0.775914	0.245382
49835		0.099042	0.230589	-0.967998	-0.808489	0.585762	0.056814	0.580117	0.776989	0.244443
49836		0.097498	0.229760	-0.968351	-0.809644	0.584139	0.057080	0.578767	0.778455	0.242976
49837		0.096187	0.229158	-0.968625	-0.810621	0.582754	0.057372	0.577618	0.779669	0.241814
49838		0.095214	0.229277	-0.968693	-0.810957	0.582215	0.058093	0.577307	0.780037	0.241369
49839		0.095214	0.230081	-0.968502	-0.809843	0.583668	0.059043	0.578869	0.778713	0.241903
49840		0.096373	0.231610	-0.968023	-0.807333	0.587030	0.060079	0.582174	0.775727	0.243560
49841		0.097652	0.232089	-0.967780	-0.804253	0.591187	0.060624	0.586209	0.772420	0.244389
49842		0.097381	0.230040	-0.968297	-0.800749	0.595883	0.061034	0.591032	0.769419	0.242232
49843		0.096622	0.226882	-0.969117	-0.796624	0.601353	0.061360	0.596703	0.766093	0.238844
49844		0.095812	0.223966	-0.969876	-0.791763	0.607663	0.062106	0.603267	0.761961	0.235549
49845		0.094888	0.221289	-0.970581	-0.785681	0.615366	0.063490	0.611312	0.756542	0.232253
49846		0.093311	0.218158	-0.971442	-0.779037	0.623578	0.065208	0.619995	0.750705	0.228140
49847		0.091926	0.214620	-0.972362	-0.772421	0.631631	0.066390	0.628423	0.744970	0.223840
49848		0.090892	0.210883	-0.973276	-0.765335	0.640112	0.067222	0.637182	0.738773	0.219577
49849		0.090605	0.207568	-0.974016	-0.757501	0.649293	0.067903	0.646516	0.731665	0.216062
49850		0.090521	0.204517	-0.974669	-0.749495	0.658451	0.068555	0.655792	0.724303	0.212888
49851		0.091018	0.201741	-0.975201	-0.741691	0.667204	0.068801	0.664538	0.717036	0.210356
49852		0.091358	0.198944	-0.975743	-0.733674	0.675975	0.069132	0.673332	0.709562	0.207716
49853		0.091977	0.196422	-0.976196	-0.725232	0.684988	0.069496	0.682333	0.701577	0.205455
49854		0.092979	0.194308	-0.976524	-0.717257	0.693318	0.069663	0.690578	0.693941	0.203833
49855		0.094207	0.192540	-0.976756	-0.709566	0.701175	0.069780	0.698313	0.686500	0.202676
49856		0.095269	0.190626	-0.977029	-0.702417	0.708343	0.069711	0.705361	0.679641	0.201382
49857		0.096220	0.188566	-0.977335	-0.695676	0.714990	0.069459	0.711883	0.673225	0.199977
49858		0.096923	0.186153	-0.977728	-0.689517	0.720983	0.068918	0.717755	0.667481	0.198235
49859		0.097565	0.183658	-0.978136	-0.683599	0.726659	0.068254	0.723307	0.661994	0.196446
49860		0.098394	0.181206	-0.978511	-0.677806	0.732142	0.067425	0.728627	0.656606	0.194861
49861		0.099372	0.179032	-0.978812	-0.672023	0.737523	0.066672	0.733832	0.651159	0.193603
49862		0.100244	0.176834	-0.979123	-0.666344	0.742725	0.065918	0.738875	0.645825	0.192286
49863		0.101262	0.174885	-0.979368	-0.660723	0.747792	0.065217	0.743769	0.640487	0.191273
49864		0.101783	0.172839	-0.979677	-0.655481	0.752440	0.064648	0.748322	0.635579	0.189878
49865		0.102460	0.171021	-0.979925	-0.650426	0.756862	0.064083	0.752628	0.630803	0.188785
49866		0.102600	0.169324	-0.980205	-0.646010	0.760660	0.063779	0.756402	0.626679	0.187428
49867		0.103058	0.167705	-0.980436	-0.642340	0.763815	0.063132	0.759459	0.623267	0.186441
49868		0.102926	0.165914	-0.980754	-0.639715	0.766070	0.062461	0.761690	0.620974	0.184986
49869		0.102961	0.164297	-0.981023	-0.637464	0.768004	0.061718	0.763570	0.619012	0.183807
49870		0.102792	0.162680	-0.981310	-0.635868	0.769388	0.060941	0.764922	0.617719	0.182530
49871		0.103287	0.161193	-0.981503	-0.634691	0.770453	0.059741	0.765832	0.616781	0.181886
49872		0.103892	0.159850	-0.981659	-0.633929	0.771177	0.058485	0.766382	0.616226	0.181452
49873		0.104745	0.158372	-0.981808	-0.633722	0.771470	0.056834	0.766436	0.616240	0.181171
49874		0.105119	0.156569	-0.982057	-0.634518	0.770949	0.054993	0.765726	0.617352	0.180387
49875		0.106547	0.155449	-0.982081	-0.635372	0.770385	0.053008	0.764820	0.618339	0.180849
49876		0.108124	0.154585	-0.982045	-0.636074	0.769930	0.051163	0.764015	0.619122	0.181575
49877		0.109419	0.153874	-0.982013	-0.637634	0.768753	0.049411	0.762529	0.620759	0.182232
49878		0.110311	0.152666	-0.982102	-0.640201	0.766751	0.047282	0.760246	0.623527	0.182317
49879		0.111297	0.151817	-0.982122	-0.643012	0.764515	0.045311	0.757726	0.626474	0.182708
49880		0.112464	0.150896	-0.982131	-0.646028	0.762095	0.043112	0.754983	0.629636	0.183191
49881		0.113238	0.149868	-0.982200	-0.649489	0.759266	0.040972	0.751892	0.633289	0.183316
49882		0.114358	0.148731	-0.982243	-0.653058	0.756329	0.038491	0.748624	0.637060	0.183622
49883		0.114839	0.147557	-0.982364	-0.656859	0.753137	0.036339	0.745217	0.641102	0.183414
49884		0.115385	0.146220	-0.982500	-0.659736	0.750717	0.034245	0.742586	0.644239	0.183088
49885		0.114508	0.144441	-0.982866	-0.662823	0.748062	0.032713	0.739969	0.647720	0.181397
49886		0.114010	0.142659	-0.983184	-0.664823	0.746349	0.031201	0.738250	0.650086	0.179934
49887		0.113061	0.141228	-0.983500	-0.665906	0.745412	0.030488	0.737419	0.651471	0.178322
49888		0.112337	0.139991	-0.983760	-0.665821	0.745506	0.030056	0.737606	0.651631	0.176957
49889		0.111520	0.138744	-0.984029	-0.665163	0.746103	0.029814	0.738323	0.651215	0.175492
49890		0.109573	0.137266	-0.984455	-0.664596	0.746596	0.030128	0.739125	0.650963	0.173033
49891		0.108791	0.136329	-0.984672	-0.662929	0.748068	0.030327	0.740736	0.649468	0.171760
49892		0.107538	0.135314	-0.984950	-0.660835	0.749896	0.030872	0.742787	0.647569	0.170063
49893		0.106934	0.134430	-0.985136	-0.658071	0.752308	0.031227	0.745324	0.644951	0.168912
49894		0.106167	0.133232	-0.985382	-0.654772	0.755167	0.031559	0.748333	0.641850	0.167410
49895		0.105516	0.132000	-0.985618	-0.651321	0.758136	0.031806	0.751430	0.638597	0.165970
49896		0.105020	0.130550	-0.985864	-0.648016	0.760965	0.031738	0.754351	0.635523	0.164515
49897		0.104623	0.129133	-0.986093	-0.644415	0.764020	0.031680	0.757485	0.632138	0.163149
49898		0.104269	0.127556	-0.986335	-0.641186	0.766744	0.031376	0.760269	0.629153	0.161734
49899		0.103926	0.126192	-0.986547	-0.637734	0.769622	0.031263	0.763213	0.625906	0.160461
49900		0.103367	0.124653	-0.986801	-0.633798	0.772868	0.031239	0.766561	0.622203	0.158894
49901		0.102780	0.123111	-0.987056	-0.629391	0.776458	0.031307	0.770262	0.618027	0.157289
49902		0.101203	0.121541	-0.987414	-0.624675	0.780229	0.032013	0.774299	0.613572	0.154885
49903		0.100439	0.120293	-0.987644	-0.619163	0.784586	0.032595	0.778812	0.608239	0.153284
49904		0.098665	0.118926	-0.987989	-0.613928	0.788646	0.033621	0.783172	0.603236	0.150824
49905		0.096799	0.117718	-0.988318	-0.609038	0.792381	0.034729	0.787212	0.598561	0.148397
49906		0.093990	0.116652	-0.988715	-0.604540	0.795742	0.036416	0.791011	0.594295	0.145313
49907		0.090774	0.116146	-0.989075	-0.600361	0.798792	0.038702	0.794561	0.590289	0.142239
49908		0.086878	0.115910	-0.989453	-0.597082	0.801110	0.041421	0.797462	0.587186	0.138806
49909		0.083148	0.116281	-0.989730	-0.595374	0.802230	0.044234	0.799135	0.585581	0.135935
49910		0.079215	0.117017	-0.989966	-0.595848	0.801716	0.047087	0.799181	0.586139	0.133233
49911		0.076163	0.118500	-0.990029	-0.598558	0.799539	0.049653	0.797451	0.588808	0.131825
49912		0.074029	0.120931	-0.989897	-0.602188	0.796641	0.052287	0.794915	0.592233	0.131797
49913		0.072740	0.124031	-0.989609	-0.606492	0.793196	0.054835	0.791755	0.596202	0.132921
49914		0.071617	0.127209	-0.989287	-0.611529	0.789151	0.057205	0.787974	0.600881	0.134308
49915		0.071239	0.130579	-0.988875	-0.615527	0.785872	0.059430	0.784889	0.604446	0.136359
49916		0.071196	0.134040	-0.988415	-0.618293	0.783521	0.061718	0.782716	0.606736	0.138660
49917		0.071079	0.137456	-0.987954	-0.618997	0.782751	0.064372	0.782170	0.606966	0.140722
49918		0.070408	0.140878	-0.987520	-0.617927	0.783316	0.067690	0.783076	0.605450	0.142204
49919		0.069511	0.144417	-0.987072	-0.616320	0.784258	0.071342	0.784422	0.603393	0.143522
49920		0.068373	0.148218	-0.986588	-0.614207	0.785530	0.075446	0.786178	0.600811	0.144745
49921		0.067078	0.152280	-0.986058	-0.611256	0.787377	0.080016	0.788585	0.597367	0.145898
49922		0.065790	0.156452	-0.985492	-0.608207	0.789247	0.084694	0.791047	0.593811	0.147080
49923		0.064674	0.160719	-0.984879	-0.604888	0.791276	0.089405	0.793680	0.589959	0.148392
49924		0.063731	0.164895	-0.984250	-0.602057	0.792917	0.093857	0.795905	0.586593	0.149810
49925		0.063577	0.169409	-0.983493	-0.599959	0.794007	0.097986	0.797500	0.583826	0.152119
49926		0.063551	0.174068	-0.982681	-0.598952	0.794268	0.101958	0.798259	0.582099	0.154735
49927		0.063927	0.179095	-0.981753	-0.599341	0.793481	0.105724	0.797937	0.581646	0.158064
49928		0.064252	0.184239	-0.980779	-0.601186	0.791597	0.109317	0.796522	0.582607	0.161624
49929		0.064214	0.189384	-0.979801	-0.604616	0.788492	0.112781	0.793925	0.585161	0.165137
49930		0.063919	0.194763	-0.978765	-0.609385	0.784303	0.116271	0.790294	0.589013	0.168817
49931		0.064019	0.200571	-0.977585	-0.614476	0.779794	0.119750	0.786334	0.593036	0.173168
49932		0.063541	0.206008	-0.976485	-0.620610	0.774413	0.122994	0.781541	0.598201	0.177057
49933		0.062505	0.210872	-0.975513	-0.627509	0.768365	0.125886	0.776096	0.604275	0.180351
49934		0.060956	0.215181	-0.974670	-0.634879	0.761852	0.128491	0.770203	0.610965	0.183054
49935		0.059842	0.219579	-0.973758	-0.641846	0.755573	0.130935	0.764495	0.617167	0.186150
49936		0.058956	0.223759	-0.972860	-0.648865	0.749191	0.132994	0.758616	0.623414	0.189359
49937		0.057719	0.227391	-0.972091	-0.656003	0.742629	0.134765	0.752548	0.629917	0.192033
49938		0.056108	0.230571	-0.971437	-0.663426	0.735722	0.136306	0.746136	0.636828	0.194246
49939		0.054574	0.233525	-0.970818	-0.670864	0.728707	0.137575	0.739570	0.643779	0.196432
49940		0.052647	0.236017	-0.970322	-0.678546	0.721356	0.138644	0.732669	0.651108	0.198126
49941		0.050712	0.238183	-0.969896	-0.686556	0.713599	0.139345	0.725306	0.658821	0.199714
49942		0.048088	0.239810	-0.969628	-0.694747	0.705491	0.140028	0.717645	0.666913	0.200533
49943		0.045249	0.241285	-0.969399	-0.703064	0.697072	0.140685	0.709686	0.675184	0.201180
49944		0.042432	0.242431	-0.969240	-0.711269	0.688613	0.141100	0.701638	0.683403	0.201653
49945		0.039302	0.243369	-0.969137	-0.719491	0.679921	0.141563	0.693389	0.691721	0.201824
49946		0.035864	0.244017	-0.969108	-0.727896	0.670828	0.141975	0.684749	0.700318	0.201677
49947		0.033141	0.245032	-0.968948	-0.735744	0.662146	0.142282	0.676448	0.708183	0.202225
49948		0.029720	0.245651	-0.968903	-0.743561	0.653240	0.142811	0.668007	0.716194	0.202071
49949		0.026380	0.246292	-0.968837	-0.751473	0.644022	0.143258	0.659236	0.724276	0.202071
49950		0.023256	0.246941	-0.968751	-0.758800	0.635270	0.143718	0.650908	0.731746	0.202153
49951		0.019705	0.247197	-0.968765	-0.765863	0.626601	0.144310	0.642702	0.739097	0.201666
49952		0.015981	0.247440	-0.968771	-0.773269	0.617297	0.144912	0.633877	0.746805	0.201203
49953		0.012558	0.247952	-0.968691	-0.779980	0.608613	0.145673	0.625678	0.753731	0.201041
49954		0.008992	0.248546	-0.968578	-0.786554	0.599861	0.146628	0.617456	0.760521	0.200888
49955		0.005309	0.249152	-0.968450	-0.793370	0.590578	0.147587	0.608717	0.767555	0.200805
49956		0.000891	0.249284	-0.968430	-0.800334	0.580804	0.148769	0.599554	0.774935	0.200028
49957		-0.003381	0.249561	-0.968353	-0.806929	0.571273	0.150044	0.590639	0.781900	0.199447
49958		-0.007555	0.249954	-0.968228	-0.813493	0.561545	0.151314	0.581526	0.788790	0.199093
49959		-0.011655	0.250253	-0.968110	-0.820966	0.550334	0.152143	0.570858	0.796559	0.199035
49960		-0.015857	0.250495	-0.967988	-0.829223	0.537649	0.152716	0.558693	0.805100	0.199191
49961		-0.019127	0.252018	-0.967533	-0.837478	0.524560	0.153190	0.546136	0.813218	0.201027
49962		-0.022445	0.253555	-0.967061	-0.846467	0.509884	0.153333	0.531968	0.822027	0.203182
49963		-0.025091	0.255880	-0.966383	-0.855451	0.494706	0.153199	0.517275	0.830537	0.206480
49964		-0.028843	0.257068	-0.965963	-0.863581	0.480247	0.153592	0.503385	0.838617	0.208147
49965		-0.032557	0.258167	-0.965551	-0.871507	0.465614	0.153881	0.489302	0.846495	0.209835
49966		-0.036216	0.259683	-0.965015	-0.878968	0.451193	0.154401	0.475503	0.853809	0.211913
49967		-0.040496	0.260356	-0.964663	-0.886354	0.436305	0.154965	0.461233	0.861309	0.213099
49968		-0.045121	0.260898	-0.964311	-0.893477	0.421228	0.155771	0.446836	0.868619	0.214100
49969		-0.049485	0.262032	-0.963790	-0.900282	0.406146	0.156646	0.432485	0.875434	0.215805
49970		-0.054031	0.263299	-0.963200	-0.906820	0.390897	0.157723	0.418041	0.881971	0.217644
49971		-0.058894	0.263751	-0.962791	-0.912970	0.375853	0.158809	0.403754	0.888353	0.218661
49972		-0.063940	0.263613	-0.962507	-0.919053	0.360313	0.159736	0.388913	0.894809	0.219236
49973		-0.068398	0.263871	-0.962130	-0.924670	0.345318	0.160441	0.374576	0.900627	0.220374
49974		-0.072998	0.263457	-0.961905	-0.930038	0.330294	0.161044	0.360140	0.906364	0.220915
49975		-0.077349	0.262513	-0.961823	-0.935773	0.313759	0.160889	0.344016	0.912492	0.221384
49976		-0.081718	0.260984	-0.961878	-0.941242	0.297114	0.160580	0.327696	0.918483	0.221370
49977		-0.085867	0.259076	-0.962033	-0.946416	0.280519	0.160016	0.311324	0.924224	0.221106
49978		-0.090255	0.256122	-0.962422	-0.951429	0.263432	0.159329	0.294341	0.930056	0.219906
49979		-0.094573	0.251979	-0.963101	-0.956419	0.245467	0.158139	0.276257	0.936084	0.217783
49980		-0.099048	0.246666	-0.964026	-0.961209	0.226905	0.156817	0.257424	0.942162	0.214623
49981		-0.103551	0.240067	-0.965218	-0.965457	0.209025	0.155565	0.239101	0.947985	0.210130
49982		-0.108396	0.232096	-0.966634	-0.969073	0.192173	0.154812	0.221693	0.953520	0.204087
49983		-0.113045	0.223198	-0.968196	-0.972259	0.175980	0.154088	0.204776	0.958756	0.197112
49984		-0.117756	0.213453	-0.969831	-0.975000	0.160472	0.153703	0.188438	0.963684	0.189220
49985		-0.122137	0.203520	-0.971423	-0.977432	0.145307	0.153336	0.172362	0.968228	0.181179
49986		-0.126330	0.194291	-0.972775	-0.979621	0.129931	0.153170	0.156153	0.972301	0.173918
49987		-0.129976	0.186268	-0.973864	-0.981668	0.113922	0.152807	0.139408	0.975872	0.168046
49988		-0.133458	0.179638	-0.974638	-0.983541	0.096856	0.152529	0.121800	0.978953	0.163756
49989		-0.136825	0.173145	-0.975346	-0.985128	0.079524	0.152314	0.103936	0.981681	0.159689
49990		-0.140108	0.167321	-0.975896	-0.986415	0.061780	0.152210	0.085759	0.983965	0.156392
49991		-0.142903	0.162293	-0.976340	-0.987471	0.043326	0.151734	0.066927	0.985791	0.154069
49992		-0.145416	0.158317	-0.976622	-0.988223	0.024291	0.151081	0.047642	0.987089	0.152921
49993		-0.147217	0.156488	-0.976647	-0.988678	0.005695	0.149943	0.029026	0.987663	0.153878
49994		-0.148776	0.155340	-0.976594	-0.988809	-0.012321	0.148677	0.011063	0.987784	0.155435
49995		-0.150036	0.153817	-0.976642	-0.988659	-0.029889	0.147174	-0.006553	0.987647	0.156557
49996		-0.151269	0.152855	-0.976603	-0.988201	-0.047376	0.145651	-0.024004	0.987112	0.158218
49997		-0.152159	0.152385	-0.976538	-0.987534	-0.063722	0.143929	-0.040294	0.986265	0.160181
49998		-0.152988	0.151742	-0.976509	-0.986588	-0.080349	0.142082	-0.056902	0.985149	0.161999
49999		-0.153260	0.149622	-0.976793	-0.985395	-0.097380	0.139694	-0.074219	0.983936	0.162361
50000		-0.153407	0.147412	-0.977106	-0.984004	-0.113417	0.137379	-0.090569	0.982551	0.162453
50001		-0.153145	0.145535	-0.977428	-0.982600	-0.127607	0.134955	-0.105086	0.981089	0.162545
50002		-0.152911	0.144125	-0.977674	-0.981014	-0.141556	0.132566	-0.119289	0.979382	0.163034
50003		-0.152419	0.143556	-0.977834	-0.979400	-0.154538	0.129975	-0.132453	0.977502	0.164153
50004		-0.151852	0.143046	-0.977997	-0.977322	-0.169482	0.126958	-0.147592	0.975097	0.165538
50005		-0.151259	0.144733	-0.977841	-0.974971	-0.184912	0.123446	-0.162947	0.972039	0.169080
50006		-0.150910	0.147992	-0.977407	-0.972788	-0.198075	0.120205	-0.175810	0.968950	0.173857
50007		-0.150113	0.153120	-0.976740	-0.970519	-0.211250	0.116040	-0.188568	0.965364	0.180318
50008		-0.148557	0.156838	-0.976388	-0.968202	-0.224034	0.111325	-0.201284	0.961879	0.185133
50009		-0.146500	0.159337	-0.976294	-0.965839	-0.236309	0.106364	-0.213759	0.958525	0.188513
50010		-0.144729	0.160293	-0.976401	-0.962665	-0.250948	0.101495	-0.228757	0.954637	0.190628
50011		-0.143363	0.161485	-0.976406	-0.959094	-0.266016	0.096825	-0.244104	0.950346	0.193016
50012		-0.142330	0.162304	-0.976422	-0.955333	-0.280649	0.092606	-0.259002	0.945988	0.194999
50013		-0.140994	0.162740	-0.976543	-0.950879	-0.296844	0.087820	-0.275589	0.940957	0.196599
50014		-0.139697	0.162792	-0.976721	-0.945720	-0.314235	0.082889	-0.293426	0.935283	0.197853
50015		-0.138158	0.162266	-0.977027	-0.940173	-0.331681	0.077861	-0.311428	0.929332	0.198382
50016		-0.136678	0.160590	-0.977512	-0.933940	-0.349873	0.073107	-0.330265	0.922930	0.197801
50017		-0.135121	0.158762	-0.978027	-0.927204	-0.368273	0.068318	-0.349335	0.916062	0.196966
50018		-0.133853	0.156787	-0.978520	-0.919951	-0.386796	0.063865	-0.368474	0.908739	0.196010
50019		-0.132890	0.155699	-0.978825	-0.912379	-0.405007	0.059446	-0.387176	0.900959	0.195878
50020		-0.131997	0.154041	-0.979208	-0.904482	-0.422899	0.055397	-0.405573	0.892988	0.195149
50021		-0.131052	0.152583	-0.979563	-0.895924	-0.441255	0.051129	-0.424435	0.884315	0.194530
50022		-0.130397	0.151154	-0.979872	-0.887063	-0.459228	0.047206	-0.442849	0.875364	0.193965
50023		-0.129704	0.150070	-0.980131	-0.878141	-0.476442	0.043258	-0.460483	0.866304	0.193579
50024		-0.129092	0.148689	-0.980422	-0.868510	-0.494102	0.039422	-0.478567	0.856595	0.192922
50025		-0.128121	0.146959	-0.980810	-0.858380	-0.511788	0.035445	-0.496758	0.846449	0.191717
50026		-0.127182	0.145227	-0.981190	-0.847974	-0.529095	0.031603	-0.514554	0.836043	0.190440
50027		-0.126256	0.144075	-0.981479	-0.837337	-0.545991	0.027566	-0.531908	0.825310	0.189574
50028		-0.125203	0.142320	-0.981870	-0.826174	-0.562913	0.023757	-0.549327	0.814170	0.188060
50029		-0.124265	0.140900	-0.982194	-0.814558	-0.579741	0.019890	-0.566616	0.802526	0.186813
50030		-0.123480	0.139286	-0.982523	-0.802452	-0.596494	0.016288	-0.583800	0.790439	0.185426
50031		-0.122764	0.137857	-0.982814	-0.790077	-0.612876	0.012722	-0.600590	0.778061	0.184157
50032		-0.122258	0.136140	-0.983117	-0.777357	-0.628987	0.009570	-0.617065	0.765403	0.182729
50033		-0.122077	0.134853	-0.983317	-0.764120	-0.645042	0.006402	-0.633418	0.752154	0.181789
50034		-0.122287	0.133392	-0.983490	-0.750018	-0.661408	0.003549	-0.650015	0.738069	0.180928
50035		-0.122260	0.131776	-0.983711	-0.735207	-0.677843	0.000572	-0.666726	0.723301	0.179756
50036		-0.122598	0.130116	-0.983890	-0.719367	-0.694627	-0.002225	-0.683726	0.707505	0.178761
50037		-0.122973	0.128628	-0.984039	-0.702653	-0.711514	-0.005197	-0.700826	0.690799	0.177878
50038		-0.123422	0.126878	-0.984210	-0.684759	-0.728725	-0.008072	-0.718242	0.672951	0.176821
50039		-0.123951	0.125358	-0.984338	-0.665973	-0.745893	-0.011130	-0.735606	0.654163	0.175939
50040		-0.124589	0.123485	-0.984494	-0.645962	-0.763242	-0.013986	-0.753134	0.634203	0.174859
50041		-0.125192	0.121937	-0.984611	-0.624902	-0.780514	-0.017206	-0.770600	0.613131	0.173913
50042		-0.125727	0.120096	-0.984769	-0.603098	-0.797410	-0.020249	-0.787696	0.591367	0.172685
50043		-0.126133	0.118442	-0.984917	-0.581532	-0.813189	-0.023317	-0.803686	0.569820	0.171448
50044		-0.126634	0.116554	-0.985078	-0.560009	-0.828079	-0.025988	-0.818751	0.548362	0.170134
50045		-0.127053	0.114861	-0.985223	-0.538990	-0.841825	-0.028636	-0.832675	0.527387	0.168866
50046		-0.127257	0.112794	-0.985436	-0.517889	-0.854887	-0.030972	-0.845929	0.506405	0.167205
50047		-0.127316	0.110932	-0.985639	-0.496987	-0.867115	-0.033395	-0.858367	0.485599	0.165529
50048		-0.127450	0.109030	-0.985834	-0.476595	-0.878404	-0.035534	-0.869835	0.465315	0.163916
50049		-0.127742	0.107614	-0.985952	-0.456485	-0.888924	-0.037880	-0.880513	0.445233	0.162677
50050		-0.128156	0.106052	-0.986068	-0.436791	-0.898678	-0.039885	-0.890388	0.425594	0.161493
50051		-0.128724	0.104779	-0.986130	-0.417703	-0.907616	-0.041912	-0.899419	0.406514	0.160599
50052		-0.129373	0.103246	-0.986206	-0.398943	-0.915941	-0.043556	-0.907803	0.387805	0.159688
50053		-0.130595	0.102278	-0.986146	-0.380900	-0.923504	-0.045339	-0.915347	0.369702	0.159562
50054		-0.132073	0.101094	-0.986071	-0.363474	-0.930433	-0.046707	-0.922195	0.352243	0.159630
50055		-0.133621	0.100148	-0.985959	-0.346128	-0.936945	-0.048261	-0.928623	0.334819	0.159860
50056		-0.135390	0.098930	-0.985841	-0.328727	-0.943127	-0.049499	-0.934670	0.317370	0.160211
50057		-0.137483	0.098166	-0.985628	-0.312082	-0.948688	-0.050956	-0.940055	0.300591	0.161065
50058		-0.139852	0.097329	-0.985377	-0.295511	-0.953908	-0.052280	-0.945047	0.283878	0.162168
50059		-0.142201	0.096786	-0.985095	-0.279094	-0.958749	-0.053910	-0.949676	0.267268	0.163348
50060		-0.144837	0.096107	-0.984777	-0.262675	-0.963294	-0.055377	-0.953952	0.250656	0.164765
50061		-0.147764	0.095552	-0.984396	-0.246417	-0.967491	-0.056922	-0.957833	0.234161	0.166506
50062		-0.150373	0.094518	-0.984101	-0.229959	-0.971460	-0.058165	-0.961513	0.217557	0.167817
50063		-0.152782	0.093638	-0.983814	-0.213589	-0.975101	-0.059639	-0.964903	0.201020	0.168978
50064		-0.155224	0.092576	-0.983532	-0.197173	-0.978470	-0.060981	-0.968002	0.184461	0.170136
50065		-0.157819	0.091894	-0.983183	-0.181475	-0.981401	-0.062598	-0.970649	0.168544	0.171561
50066		-0.160574	0.091083	-0.982812	-0.165758	-0.984080	-0.064119	-0.973006	0.152613	0.173115
50067		-0.163604	0.090552	-0.982361	-0.150854	-0.986364	-0.065798	-0.974924	0.137428	0.175034
50068		-0.166949	0.089859	-0.981862	-0.136448	-0.988362	-0.067253	-0.976478	0.122745	0.177267
50069		-0.170579	0.089303	-0.981289	-0.122201	-0.990114	-0.068864	-0.977737	0.108168	0.179805
50070		-0.174568	0.088193	-0.980687	-0.108756	-0.991614	-0.069817	-0.978620	0.094468	0.182696
50071		-0.178959	0.087148	-0.979989	-0.096508	-0.992821	-0.070665	-0.979112	0.081930	0.186085
50072		-0.182756	0.085481	-0.979435	-0.085058	-0.993853	-0.070868	-0.979472	0.070357	0.188904
50073		-0.185770	0.083586	-0.979032	-0.074605	-0.994699	-0.070767	-0.979757	0.059894	0.191021
50074		-0.188122	0.081146	-0.978788	-0.065431	-0.995403	-0.069947	-0.979964	0.050884	0.192567
50075		-0.190196	0.078510	-0.978602	-0.057857	-0.995961	-0.068658	-0.980040	0.043560	0.193970
50076		-0.191981	0.075205	-0.978513	-0.051561	-0.996455	-0.066468	-0.980043	0.037692	0.195178
50077		-0.193770	0.071798	-0.978416	-0.045863	-0.996891	-0.064071	-0.979974	0.032458	0.196460
50078		-0.195783	0.068033	-0.978284	-0.040162	-0.997310	-0.061318	-0.979824	0.027285	0.197989
50079		-0.198052	0.064375	-0.978075	-0.033792	-0.997696	-0.058824	-0.979609	0.021401	0.199771
50080		-0.200078	0.060293	-0.977923	-0.025753	-0.998084	-0.056268	-0.979441	0.013926	0.201247
50081		-0.202563	0.056187	-0.977656	-0.016281	-0.998408	-0.054007	-0.979134	0.004977	0.203156
50082		-0.205534	0.051495	-0.977294	-0.006076	-0.998663	-0.051343	-0.978631	-0.004615	0.205572
50083		-0.208862	0.046756	-0.976827	0.004491	-0.998800	-0.048768	-0.977935	-0.014573	0.208402
50084		-0.212026	0.041473	-0.976384	0.016200	-0.998813	-0.045943	-0.977130	-0.025558	0.211102
50085		-0.215592	0.036075	-0.975817	0.027828	-0.998684	-0.043068	-0.976087	-0.036440	0.214305
50086		-0.219010	0.030132	-0.975257	0.039569	-0.998427	-0.039734	-0.974920	-0.047292	0.217473
50087		-0.222143	0.024124	-0.974716	0.051727	-0.997994	-0.036489	-0.973641	-0.058525	0.220449
50088		-0.224822	0.017540	-0.974242	0.063815	-0.997426	-0.032684	-0.972308	-0.069520	0.223124
50089		-0.227087	0.010928	-0.973813	0.075555	-0.996726	-0.028804	-0.970939	-0.080117	0.225518
50090		-0.228465	0.003720	-0.973545	0.087758	-0.995843	-0.024400	-0.969589	-0.091011	0.227189
50091		-0.229076	-0.003671	-0.973402	0.100011	-0.994790	-0.019785	-0.968257	-0.101884	0.228249
50092		-0.229079	-0.011556	-0.973339	0.113584	-0.993416	-0.014938	-0.966758	-0.113978	0.228884
50093		-0.228758	-0.019431	-0.973289	0.128583	-0.991644	-0.010424	-0.964954	-0.127533	0.229345
50094		-0.228599	-0.027703	-0.973127	0.144156	-0.989539	-0.005694	-0.962789	-0.141583	0.230201
50095		-0.228952	-0.036001	-0.972772	0.159849	-0.987141	-0.001089	-0.960224	-0.155746	0.231762
50096		-0.228808	-0.044827	-0.972439	0.176259	-0.984336	0.003902	-0.957382	-0.170508	0.233125
50097		-0.228932	-0.053620	-0.971964	0.192933	-0.981173	0.008685	-0.954131	-0.185536	0.234967
50098		-0.229225	-0.062654	-0.971355	0.210146	-0.977577	0.013464	-0.950418	-0.201041	0.237252
50099		-0.229354	-0.071365	-0.970723	0.227934	-0.973515	0.017716	-0.946278	-0.217197	0.239546
50100		-0.228729	-0.080248	-0.970177	0.246678	-0.968848	0.021981	-0.941718	-0.234294	0.241399
50101		-0.227766	-0.088913	-0.969648	0.265917	-0.963648	0.025900	-0.936702	-0.251946	0.243130
50102		-0.226248	-0.097884	-0.969139	0.285947	-0.957776	0.029981	-0.931153	-0.270339	0.244685
50103		-0.224315	-0.106509	-0.968679	0.306828	-0.951174	0.033533	-0.924954	-0.289695	0.246043
50104		-0.221787	-0.115169	-0.968270	0.328475	-0.943787	0.037018	-0.918104	-0.309843	0.247150
50105		-0.219123	-0.123353	-0.967868	0.350604	-0.935675	0.039874	-0.910528	-0.330601	0.248276
50106		-0.215988	-0.131546	-0.967494	0.373505	-0.926649	0.042609	-0.902133	-0.352160	0.249278
50107		-0.212477	-0.139290	-0.967188	0.397336	-0.916583	0.044713	-0.892736	-0.374798	0.250098
50108		-0.208276	-0.147013	-0.966958	0.421873	-0.905446	0.046792	-0.882408	-0.398188	0.250604
50109		-0.203748	-0.154316	-0.966785	0.446609	-0.893415	0.048483	-0.871222	-0.421897	0.250950
50110		-0.198594	-0.161670	-0.966656	0.471570	-0.880389	0.050361	-0.859175	-0.445845	0.251079
50111		-0.192892	-0.168529	-0.966639	0.497058	-0.866168	0.051825	-0.846006	-0.470479	0.250846
50112		-0.186517	-0.175329	-0.966680	0.523180	-0.850552	0.053322	-0.831561	-0.495803	0.250371
50113		-0.179739	-0.181651	-0.966797	0.549447	-0.833749	0.054504	-0.815967	-0.521407	0.249664
50114		-0.172384	-0.188012	-0.966920	0.576083	-0.815480	0.055860	-0.799007	-0.547397	0.248886
50115		-0.164760	-0.193882	-0.967090	0.602904	-0.795788	0.056825	-0.780616	-0.573700	0.248006
50116		-0.156466	-0.199685	-0.967287	0.629781	-0.774601	0.058035	-0.760851	-0.600099	0.246957
50117		-0.147911	-0.204974	-0.967527	0.656551	-0.751976	0.058938	-0.739637	-0.626513	0.245802
50118		-0.138970	-0.210196	-0.967732	0.683072	-0.727881	0.060007	-0.717007	-0.652692	0.244733
50119		-0.130010	-0.215010	-0.967919	0.708834	-0.702742	0.060895	-0.693291	-0.678177	0.243770
50120		-0.120552	-0.219581	-0.968117	0.733808	-0.676516	0.062067	-0.668576	-0.702930	0.242686
50121		-0.110753	-0.223241	-0.968451	0.758110	-0.649084	0.062924	-0.642653	-0.727223	0.241129
50122		-0.100376	-0.226453	-0.968836	0.781729	-0.620326	0.064002	-0.615488	-0.750943	0.239291
50123		-0.089937	-0.228885	-0.969290	0.804300	-0.590674	0.064852	-0.587378	-0.773768	0.237216
50124		-0.079171	-0.230912	-0.969748	0.825810	-0.560080	0.065944	-0.558364	-0.795607	0.235031
50125		-0.068506	-0.232058	-0.970287	0.846187	-0.528695	0.066701	-0.528464	-0.816475	0.232583
50126		-0.057691	-0.232843	-0.970802	0.865508	-0.496311	0.067605	-0.497561	-0.836337	0.230160
50127		-0.047159	-0.232855	-0.971367	0.883672	-0.463124	0.068118	-0.465725	-0.855158	0.227608
50128		-0.036455	-0.232630	-0.971882	0.900719	-0.428906	0.068878	-0.432869	-0.872882	0.225170
50129		-0.026120	-0.231838	-0.972404	0.916611	-0.393736	0.069252	-0.398926	-0.889507	0.222790
50130		-0.015512	-0.230626	-0.972919	0.931249	-0.357611	0.069923	-0.364052	-0.904945	0.220317
50131		-0.005138	-0.228766	-0.973468	0.944576	-0.320663	0.070370	-0.328253	-0.919153	0.217735
50132		0.005038	-0.227236	-0.973827	0.956636	-0.282533	0.070876	-0.291244	-0.931954	0.215959
50133		0.014684	-0.225445	-0.974145	0.967043	-0.244467	0.071154	-0.254188	-0.943086	0.214426
50134		0.024532	-0.223096	-0.974488	0.975641	-0.207222	0.072001	-0.217999	-0.952516	0.212578
50135		0.034128	-0.219681	-0.974975	0.982706	-0.170275	0.072765	-0.181999	-0.960597	0.210071
50136		0.043612	-0.216117	-0.975393	0.988358	-0.133110	0.073685	-0.145759	-0.967252	0.207795
50137		0.052367	-0.212402	-0.975778	0.992706	-0.095181	0.073994	-0.108592	-0.972536	0.205869
50138		0.060748	-0.208473	-0.976140	0.995745	-0.055239	0.073765	-0.069299	-0.976467	0.204230
50139		0.068294	-0.204707	-0.976438	0.997283	-0.013072	0.072492	-0.027604	-0.978736	0.203258
50140		0.075762	-0.200898	-0.976678	0.997034	0.028540	0.071470	0.013516	-0.979196	0.202465
50141		0.082806	-0.196094	-0.977083	0.995129	0.068904	0.070507	0.053499	-0.978161	0.200844
50142		0.089805	-0.191040	-0.977465	0.991553	0.109368	0.069724	0.093583	-0.975470	0.199248
50143		0.096325	-0.186580	-0.977706	0.986379	0.149478	0.068654	0.133336	-0.971002	0.198437
50144		0.103023	-0.181754	-0.977932	0.979746	0.188264	0.068225	0.171709	-0.965154	0.197469
50145		0.109406	-0.176410	-0.978218	0.971668	0.226401	0.067845	0.209501	-0.957926	0.196182
50146		0.116086	-0.171202	-0.978373	0.962319	0.263252	0.068116	0.245897	-0.949415	0.195311
50147		0.122381	-0.165561	-0.978577	0.952217	0.297588	0.068736	0.279833	-0.940229	0.194069
50148		0.128600	-0.159603	-0.978769	0.940755	0.331891	0.069486	0.313754	-0.929718	0.192829
50149		0.134419	-0.153428	-0.978975	0.928021	0.365875	0.070082	0.347430	-0.917930	0.191565
50150		0.140014	-0.145849	-0.979349	0.914000	0.399419	0.071188	0.380788	-0.905092	0.189230
50151		0.145337	-0.138265	-0.979673	0.898348	0.433325	0.072115	0.414546	-0.890569	0.187188
50152		0.150922	-0.130421	-0.979905	0.881699	0.466009	0.073773	0.447022	-0.875115	0.185323
50153		0.155868	-0.121568	-0.980269	0.864008	0.497762	0.075652	0.478743	-0.858752	0.182621
50154		0.160169	-0.111583	-0.980763	0.844423	0.530027	0.077601	0.511171	-0.840608	0.179117
50155		0.163763	-0.101317	-0.981283	0.823044	0.562417	0.079286	0.543857	-0.820623	0.175492
50156		0.167052	-0.090694	-0.981768	0.800523	0.593754	0.081362	0.575550	-0.799519	0.171790
50157		0.169809	-0.080647	-0.982172	0.776205	0.625010	0.082879	0.607183	-0.776439	0.168731
50158		0.172698	-0.071132	-0.982403	0.750143	0.655870	0.084379	0.638326	-0.751515	0.166627
50159		0.175223	-0.062110	-0.982568	0.723190	0.685318	0.085647	0.668052	-0.725590	0.165001
50160		0.177428	-0.052970	-0.982707	0.694944	0.713782	0.086998	0.696831	-0.698362	0.163456
50161		0.178750	-0.043661	-0.982925	0.664708	0.741911	0.087926	0.725404	-0.669075	0.161638
50162		0.180182	-0.034809	-0.983017	0.633037	0.769011	0.088802	0.752860	-0.638287	0.160597
50163		0.180424	-0.025798	-0.983250	0.600093	0.794935	0.089259	0.779318	-0.606146	0.158907
50164		0.180064	-0.016814	-0.983511	0.564912	0.820294	0.089402	0.805265	-0.571695	0.157204
50165		0.178533	-0.008093	-0.983901	0.527886	0.844656	0.088840	0.830339	-0.535248	0.155072
50166		0.176247	0.000550	-0.984346	0.488362	0.868200	0.087927	0.854658	-0.496214	0.152749
50167		0.172537	0.008896	-0.984963	0.446728	0.890498	0.086297	0.877875	-0.454900	0.149670
50168		0.167837	0.016932	-0.985669	0.403344	0.911154	0.084332	0.899524	-0.411718	0.146096
50169		0.162694	0.024124	-0.986382	0.359900	0.929372	0.082091	0.918696	-0.368355	0.142521
50170		0.157874	0.030480	-0.986989	0.317610	0.944842	0.079982	0.934987	-0.326104	0.139485
50171		0.151783	0.036279	-0.987748	0.275688	0.958113	0.077554	0.949188	-0.284082	0.135424
50172		0.144810	0.041785	-0.988577	0.233524	0.969440	0.075183	0.961507	-0.241744	0.130626
50173		0.137132	0.046473	-0.989462	0.193334	0.978432	0.072750	0.971502	-0.201273	0.125189
50174		0.128305	0.051046	-0.990420	0.155763	0.985243	0.070958	0.979426	-0.163375	0.118460
50175		0.118484	0.055070	-0.991428	0.120318	0.990308	0.069387	0.985639	-0.127508	0.110710
50176		0.107373	0.058928	-0.992471	0.086116	0.993939	0.068332	0.990482	-0.092805	0.101648
50177		0.096118	0.061766	-0.993452	0.054444	0.996252	0.067208	0.993880	-0.060548	0.092395
50178		0.082287	0.064852	-0.994496	0.021445	0.997534	0.066824	0.996378	-0.026826	0.080694
50179		0.069254	0.066116	-0.995406	-0.010975	0.997792	0.065511	0.997539	0.006388	0.069827
50180		0.060299	0.066465	-0.995965	-0.043636	0.997002	0.063892	0.997226	0.039607	0.063019
50181		0.057358	0.066359	-0.996146	-0.076516	0.995146	0.061886	0.995417	0.072671	0.062157
50182		0.058851	0.066763	-0.996032	-0.109158	0.992208	0.060057	0.992281	0.105190	0.065680
50183		0.063103	0.067799	-0.995701	-0.142212	0.988120	0.058270	0.987823	0.137923	0.071995
50184		0.068257	0.069430	-0.995249	-0.174905	0.982958	0.056578	0.982217	0.170212	0.079237
50185		0.073405	0.071330	-0.994748	-0.205763	0.977062	0.054878	0.975845	0.200654	0.086398
50186		0.078224	0.073382	-0.994231	-0.235494	0.970424	0.053096	0.968723	0.229982	0.093192
50187		0.079992	0.074561	-0.994003	-0.264610	0.963009	0.050942	0.961032	0.258948	0.096762
50188		0.078475	0.074414	-0.994135	-0.295095	0.954255	0.048135	0.952240	0.289587	0.096844
50189		0.074175	0.072612	-0.994598	-0.324968	0.944667	0.044731	0.942812	0.319894	0.093667
50190		0.070096	0.070500	-0.995046	-0.354464	0.934161	0.041216	0.932439	0.349819	0.090471
50191		0.066518	0.068391	-0.995439	-0.384069	0.922534	0.037718	0.920905	0.379808	0.087632
50192		0.062112	0.066018	-0.995883	-0.414574	0.909364	0.034426	0.907893	0.410729	0.083852
50193		0.057498	0.063587	-0.996319	-0.446455	0.894258	0.031308	0.892957	0.443011	0.079807
50194		0.052232	0.061093	-0.996764	-0.478246	0.877755	0.028738	0.876671	0.475198	0.075065
50195		0.048017	0.058927	-0.997107	-0.509360	0.860151	0.026304	0.859213	0.506624	0.071316
50196		0.047521	0.058781	-0.997139	-0.539416	0.841700	0.023911	0.840697	0.536737	0.071706
50197		0.050904	0.061281	-0.996822	-0.566056	0.824080	0.021755	0.822794	0.563149	0.076638
50198		0.053191	0.063687	-0.996551	-0.591181	0.806292	0.019974	0.804783	0.588079	0.080538
50199		0.053488	0.064729	-0.996468	-0.618393	0.785666	0.017842	0.784046	0.615255	0.082052
50200		0.053794	0.066027	-0.996367	-0.644264	0.764638	0.015887	0.762909	0.641069	0.083671
50201		0.055396	0.068403	-0.996119	-0.669914	0.742312	0.013719	0.740369	0.666554	0.086945
50202		0.057354	0.071154	-0.995815	-0.696200	0.717761	0.011189	0.715553	0.692644	0.090704
50203		0.060196	0.074805	-0.995380	-0.722987	0.690813	0.008193	0.688234	0.719154	0.095667
50204		0.062453	0.078687	-0.994941	-0.748069	0.663598	0.005526	0.660676	0.743940	0.100307
50205		0.063136	0.081621	-0.994662	-0.771835	0.635815	0.003182	0.632681	0.767514	0.103140
50206		0.063258	0.084802	-0.994388	-0.795283	0.606238	0.001108	0.602929	0.790749	0.105791
50207		0.063773	0.089087	-0.993980	-0.816900	0.576779	-0.000717	0.573243	0.812028	0.109558
50208		0.063817	0.093915	-0.993533	-0.836998	0.547202	-0.002038	0.543472	0.831715	0.113527
50209		0.062538	0.097394	-0.993279	-0.856323	0.516431	-0.003278	0.512641	0.850772	0.115697
50210		0.060620	0.100305	-0.993108	-0.874445	0.485104	-0.004381	0.481322	0.868685	0.117118
50211		0.058504	0.102812	-0.992979	-0.891132	0.453711	-0.005527	0.449957	0.885198	0.118164
50212		0.055713	0.104531	-0.992960	-0.906945	0.421199	-0.006547	0.417550	0.900924	0.118270
50213		0.052726	0.106011	-0.992966	-0.921633	0.387989	-0.007516	0.384463	0.915547	0.118160
50214		0.049520	0.108061	-0.992910	-0.935071	0.354369	-0.008068	0.350985	0.928841	0.118593
50215		0.046132	0.110116	-0.992848	-0.946920	0.321361	-0.008356	0.318142	0.940533	0.119096
50216		0.042271	0.112011	-0.992807	-0.957354	0.288803	-0.008178	0.285810	0.950814	0.119442
50217		0.038459	0.114179	-0.992715	-0.966587	0.256216	-0.007978	0.253439	0.959852	0.120218
50218		0.034430	0.116645	-0.992577	-0.974451	0.224476	-0.007421	0.221944	0.967473	0.121393
50219		0.030441	0.119122	-0.992413	-0.981125	0.193252	-0.006898	0.190964	0.973891	0.122756
50220		0.026171	0.121122	-0.992293	-0.986717	0.162328	-0.006210	0.160324	0.979275	0.123762
50221		0.021893	0.123001	-0.992165	-0.991289	0.131589	-0.005560	0.129874	0.983644	0.124810
50222		0.017297	0.124084	-0.992121	-0.994883	0.100920	-0.004723	0.099538	0.987126	0.125195
50223		0.012889	0.124987	-0.992075	-0.997566	0.069609	-0.004191	0.068534	0.989714	0.125580
50224		0.008433	0.126306	-0.991955	-0.999256	0.038388	-0.003607	0.037624	0.991248	0.126536
50225		0.004130	0.128038	-0.991761	-0.999965	0.007687	-0.003172	0.007217	0.991740	0.128065
50226		-0.000383	0.130059	-0.991506	-0.999712	-0.023846	-0.002742	-0.024000	0.991220	0.130030
50227		-0.004661	0.131989	-0.991240	-0.998458	-0.055456	-0.002690	-0.055325	0.989699	0.132044
50228		-0.009084	0.133047	-0.991068	-0.996159	-0.087524	-0.002619	-0.087090	0.987238	0.133331
50229		-0.013299	0.134386	-0.990840	-0.992830	-0.119500	-0.002882	-0.118793	0.983697	0.135011
50230		-0.017508	0.135804	-0.990581	-0.988548	-0.150875	-0.003212	-0.149890	0.979180	0.136891
50231		-0.021468	0.137289	-0.990298	-0.983222	-0.182369	-0.003968	-0.181144	0.973598	0.138900
50232		-0.025608	0.138754	-0.989996	-0.976792	-0.214136	-0.004746	-0.212652	0.966899	0.141018
50233		-0.029778	0.140707	-0.989603	-0.969399	-0.245422	-0.005726	-0.243676	0.959150	0.143709
50234		-0.034004	0.141977	-0.989286	-0.961047	-0.276307	-0.006620	-0.274286	0.950525	0.145842
50235		-0.038091	0.143240	-0.988955	-0.951936	-0.306200	-0.007685	-0.303919	0.941129	0.148019
50236		-0.042450	0.144228	-0.988634	-0.942330	-0.334582	-0.008349	-0.331983	0.931264	0.150113
50237		-0.046594	0.144505	-0.988406	-0.932091	-0.362113	-0.009002	-0.359216	0.920865	0.151564
50238		-0.050658	0.143750	-0.988317	-0.921372	-0.388572	-0.009290	-0.385367	0.910136	0.152131
50239		-0.054615	0.142886	-0.988231	-0.910605	-0.413170	-0.009414	-0.409653	0.899374	0.152678
50240		-0.058531	0.141378	-0.988224	-0.899965	-0.435869	-0.009053	-0.432016	0.888836	0.152747
50241		-0.062233	0.139795	-0.988223	-0.889510	-0.456834	-0.008608	-0.452657	0.878499	0.152779
50242		-0.065996	0.138178	-0.988206	-0.879578	-0.475691	-0.007773	-0.471155	0.868691	0.152932
50243		-0.069337	0.136517	-0.988208	-0.870108	-0.492811	-0.007029	-0.487960	0.859360	0.152955
50244		-0.072463	0.134724	-0.988230	-0.861148	-0.508317	-0.006154	-0.503163	0.850567	0.152852
50245		-0.075165	0.133152	-0.988241	-0.852985	-0.521907	-0.005442	-0.516495	0.842546	0.152806
50246		-0.077630	0.131526	-0.988268	-0.845604	-0.533791	-0.004617	-0.528136	0.835325	0.152657
50247		-0.079607	0.130129	-0.988296	-0.838698	-0.544581	-0.004148	-0.538747	0.828552	0.152492
50248		-0.081031	0.128408	-0.988405	-0.832354	-0.554232	-0.003766	-0.548290	0.822398	0.151791
50249		-0.082065	0.126955	-0.988508	-0.826732	-0.562584	-0.003619	-0.556578	0.816934	0.151126
50250		-0.083106	0.125535	-0.988602	-0.822048	-0.569408	-0.003200	-0.563320	0.812413	0.150517
50251		-0.084357	0.124486	-0.988629	-0.818180	-0.574956	-0.002584	-0.568740	0.808659	0.150354
50252		-0.085756	0.123426	-0.988641	-0.814935	-0.579550	-0.001664	-0.573173	0.805536	0.150284
50253		-0.087485	0.122786	-0.988570	-0.812307	-0.583230	-0.000554	-0.576631	0.802973	0.150764
50254		-0.089561	0.122018	-0.988479	-0.810266	-0.586062	0.001070	-0.579179	0.801026	0.151356
50255		-0.091767	0.121070	-0.988393	-0.808487	-0.588507	0.002976	-0.581316	0.799376	0.151889
50256		-0.094011	0.119232	-0.988406	-0.806385	-0.591366	0.005361	-0.583871	0.797540	0.151742
50257		-0.096641	0.116976	-0.988422	-0.804092	-0.594448	0.008268	-0.586598	0.795581	0.151507
50258		-0.099979	0.114547	-0.988374	-0.801553	-0.597807	0.011798	-0.589506	0.793414	0.151583
50259		-0.103740	0.112089	-0.988268	-0.798145	-0.602267	0.015474	-0.593467	0.790387	0.151942
50260		-0.107520	0.108893	-0.988222	-0.793638	-0.608082	0.019344	-0.598814	0.786370	0.151802
50261		-0.111627	0.105983	-0.988083	-0.788559	-0.614522	0.023172	-0.604743	0.781748	0.152171
50262		-0.116152	0.103201	-0.987855	-0.783225	-0.621143	0.027201	-0.610792	0.776872	0.152976
50263		-0.120804	0.100575	-0.987568	-0.777458	-0.628164	0.031130	-0.617224	0.771554	0.154078
50264		-0.125370	0.097611	-0.987297	-0.771575	-0.635164	0.035181	-0.623662	0.766184	0.154945
50265		-0.129969	0.095051	-0.986951	-0.765535	-0.642214	0.038961	-0.630131	0.760609	0.156233
50266		-0.134547	0.092524	-0.986578	-0.759646	-0.648930	0.042740	-0.636266	0.755201	0.157597
50267		-0.139018	0.090215	-0.986172	-0.753940	-0.655307	0.046333	-0.642066	0.749956	0.159116
50268		-0.143191	0.087468	-0.985822	-0.748491	-0.661254	0.050049	-0.647501	0.745045	0.160154
50269		-0.147342	0.085099	-0.985418	-0.742997	-0.667154	0.053480	-0.652874	0.740043	0.161528
50270		-0.151402	0.082660	-0.985010	-0.737548	-0.672893	0.056898	-0.658103	0.735107	0.162843
50271		-0.155233	0.080361	-0.984604	-0.732053	-0.678598	0.060030	-0.663326	0.730100	0.164169
50272		-0.158831	0.077727	-0.984241	-0.726556	-0.684193	0.063215	-0.668497	0.725147	0.165144
50273		-0.162323	0.075117	-0.983874	-0.721156	-0.689589	0.066331	-0.673487	0.720294	0.166107
