// Start Time: Unknown
// Update Rate: 100.0Hz
// Filter Profile: human (46.1)
// Option Flags: AHS Disabled ICC Disabled 
// Firmware Version: 4.0.2
PacketCounter	SampleTimeFine	Mat[1][1]	Mat[2][1]	Mat[3][1]	Mat[1][2]	Mat[2][2]	Mat[3][2]	Mat[1][3]	Mat[2][3]	Mat[3][3]
10104		0.058019	0.216213	-0.974621	0.519646	-0.840123	-0.155441	-0.852410	-0.497439	-0.161097
10105		0.058032	0.216128	-0.974639	0.519513	-0.840215	-0.155386	-0.852490	-0.497320	-0.161041
10106		0.058000	0.215979	-0.974674	0.519507	-0.840240	-0.155275	-0.852496	-0.497343	-0.160936
10107		0.058083	0.215902	-0.974686	0.519320	-0.840368	-0.155203	-0.852604	-0.497159	-0.160933
10108		0.058148	0.215795	-0.974706	0.518949	-0.840608	-0.155147	-0.852825	-0.496801	-0.160866
10109		0.058260	0.215746	-0.974710	0.518564	-0.840850	-0.155121	-0.853051	-0.496412	-0.160866
10110		0.058342	0.215695	-0.974716	0.518388	-0.840968	-0.155069	-0.853153	-0.496234	-0.160877
10111		0.058447	0.215735	-0.974701	0.518179	-0.841093	-0.155091	-0.853273	-0.496005	-0.160949
10112		0.058489	0.215726	-0.974701	0.518139	-0.841121	-0.155070	-0.853294	-0.495961	-0.160973
10113		0.058566	0.215782	-0.974684	0.517912	-0.841251	-0.155122	-0.853426	-0.495716	-0.161025
10114		0.058694	0.215891	-0.974652	0.517342	-0.841577	-0.155259	-0.853764	-0.495115	-0.161085
10115		0.058799	0.215966	-0.974629	0.516822	-0.841876	-0.155370	-0.854071	-0.494574	-0.161118
10116		0.058901	0.216038	-0.974607	0.516138	-0.842270	-0.155510	-0.854478	-0.493872	-0.161116
10117		0.058978	0.216098	-0.974589	0.515598	-0.842579	-0.155625	-0.854798	-0.493318	-0.161113
10118		0.059053	0.216216	-0.974558	0.514914	-0.842962	-0.155819	-0.855206	-0.492612	-0.161112
10119		0.059089	0.216292	-0.974539	0.514557	-0.843158	-0.155934	-0.855418	-0.492242	-0.161116
10120		0.059083	0.216308	-0.974536	0.514208	-0.843356	-0.156017	-0.855628	-0.491897	-0.161055
10121		0.059200	0.216437	-0.974500	0.513614	-0.843687	-0.156182	-0.855977	-0.491271	-0.161111
10122		0.059382	0.216540	-0.974466	0.513050	-0.844011	-0.156287	-0.856302	-0.490670	-0.161215
10123		0.059547	0.216613	-0.974440	0.512537	-0.844308	-0.156365	-0.856598	-0.490125	-0.161298
10124		0.059545	0.216503	-0.974464	0.512321	-0.844449	-0.156311	-0.856727	-0.489931	-0.161201
10125		0.059581	0.216397	-0.974486	0.512126	-0.844581	-0.156238	-0.856841	-0.489751	-0.161144
10126		0.059568	0.216233	-0.974523	0.512264	-0.844527	-0.156076	-0.856760	-0.489916	-0.161075
10127		0.059589	0.216130	-0.974544	0.512287	-0.844532	-0.155973	-0.856745	-0.489952	-0.161046
10128		0.059577	0.215987	-0.974577	0.512714	-0.844310	-0.155774	-0.856490	-0.490398	-0.161041
10129		0.059645	0.215944	-0.974582	0.512746	-0.844305	-0.155697	-0.856466	-0.490427	-0.161083
10130		0.059748	0.215900	-0.974586	0.512947	-0.844206	-0.155571	-0.856339	-0.490615	-0.161185
10131		0.059861	0.215871	-0.974585	0.512985	-0.844199	-0.155482	-0.856308	-0.490640	-0.161273
10132		0.059981	0.215768	-0.974601	0.513247	-0.844076	-0.155284	-0.856143	-0.490896	-0.161371
10133		0.060048	0.215686	-0.974615	0.513168	-0.844141	-0.155194	-0.856185	-0.490822	-0.161372
10134		0.060103	0.215572	-0.974637	0.513409	-0.844026	-0.155023	-0.856037	-0.491070	-0.161405
10135		0.060248	0.215575	-0.974627	0.513125	-0.844201	-0.155007	-0.856197	-0.490767	-0.161478
10136		0.060474	0.215587	-0.974610	0.512418	-0.844625	-0.155039	-0.856604	-0.490032	-0.161548
10137		0.060534	0.215543	-0.974616	0.512075	-0.844834	-0.155035	-0.856805	-0.489691	-0.161515
10138		0.060387	0.215328	-0.974673	0.512595	-0.844557	-0.154823	-0.856504	-0.490263	-0.161376
10139		0.060421	0.215202	-0.974699	0.512526	-0.844619	-0.154711	-0.856543	-0.490211	-0.161329
10140		0.060517	0.215094	-0.974717	0.513113	-0.844309	-0.154459	-0.856185	-0.490792	-0.161462
10141		0.060715	0.215087	-0.974706	0.513101	-0.844335	-0.154357	-0.856178	-0.490751	-0.161625
10142		0.060841	0.215047	-0.974707	0.513449	-0.844153	-0.154194	-0.855961	-0.491080	-0.161775
10143		0.060903	0.215007	-0.974712	0.513529	-0.844119	-0.154114	-0.855908	-0.491157	-0.161821
10144		0.060858	0.214845	-0.974750	0.514370	-0.843658	-0.153836	-0.855406	-0.492020	-0.161853
10145		0.060846	0.214809	-0.974759	0.514645	-0.843504	-0.153759	-0.855242	-0.492299	-0.161874
10146		0.060886	0.214849	-0.974748	0.514807	-0.843408	-0.153744	-0.855141	-0.492446	-0.161957
10147		0.060962	0.214940	-0.974723	0.515021	-0.843277	-0.153743	-0.855007	-0.492631	-0.162107
10148		0.060996	0.214996	-0.974708	0.515245	-0.843142	-0.153732	-0.854870	-0.492837	-0.162204
10149		0.060984	0.215024	-0.974703	0.515212	-0.843156	-0.153769	-0.854890	-0.492801	-0.162202
10150		0.060973	0.215015	-0.974706	0.515030	-0.843261	-0.153801	-0.855001	-0.492625	-0.162155
10151		0.060903	0.214976	-0.974719	0.515065	-0.843241	-0.153796	-0.854985	-0.492676	-0.162083
10152		0.060870	0.214939	-0.974729	0.515078	-0.843236	-0.153778	-0.854979	-0.492701	-0.162038
10153		0.060991	0.214994	-0.974709	0.514875	-0.843356	-0.153804	-0.855093	-0.492472	-0.162132
10154		0.061149	0.215032	-0.974691	0.515091	-0.843240	-0.153716	-0.854952	-0.492655	-0.162324
10155		0.061207	0.215031	-0.974687	0.515096	-0.843242	-0.153685	-0.854945	-0.492650	-0.162374
10156		0.061132	0.214999	-0.974699	0.515326	-0.843107	-0.153651	-0.854811	-0.492895	-0.162336
10157		0.061058	0.215004	-0.974703	0.515722	-0.842871	-0.153618	-0.854578	-0.493296	-0.162347
10158		0.061026	0.214970	-0.974712	0.516278	-0.842553	-0.153499	-0.854244	-0.493855	-0.162402
10159		0.061063	0.215028	-0.974697	0.516440	-0.842454	-0.153499	-0.854144	-0.493999	-0.162492
10160		0.061028	0.215018	-0.974701	0.517011	-0.842121	-0.153400	-0.853801	-0.494569	-0.162560
10161		0.061053	0.215036	-0.974696	0.517045	-0.842101	-0.153397	-0.853778	-0.494596	-0.162596
10162		0.061114	0.215000	-0.974700	0.516981	-0.842149	-0.153347	-0.853813	-0.494530	-0.162618
10163		0.061154	0.214974	-0.974703	0.517217	-0.842020	-0.153260	-0.853667	-0.494760	-0.162681
10164		0.061231	0.214988	-0.974695	0.517350	-0.841948	-0.153208	-0.853581	-0.494877	-0.162777
10165		0.061286	0.214962	-0.974698	0.517587	-0.841820	-0.153113	-0.853433	-0.495107	-0.162853
10166		0.061302	0.214881	-0.974714	0.518138	-0.841514	-0.152929	-0.853097	-0.495662	-0.162925
10167		0.061234	0.214785	-0.974740	0.518576	-0.841268	-0.152797	-0.852836	-0.496120	-0.162897
10168		0.061118	0.214648	-0.974777	0.519249	-0.840887	-0.152609	-0.852435	-0.496825	-0.162849
10169		0.061034	0.214555	-0.974803	0.519903	-0.840512	-0.152446	-0.852042	-0.497499	-0.162848
10170		0.061001	0.214554	-0.974805	0.520278	-0.840291	-0.152390	-0.851816	-0.497873	-0.162887
10171		0.060950	0.214518	-0.974816	0.520720	-0.840033	-0.152300	-0.851549	-0.498324	-0.162904
10172		0.060858	0.214396	-0.974849	0.521377	-0.839659	-0.152116	-0.851153	-0.499007	-0.162881
10173		0.060848	0.214355	-0.974859	0.521420	-0.839639	-0.152077	-0.851128	-0.499057	-0.162860
10174		0.060887	0.214261	-0.974877	0.521290	-0.839734	-0.152001	-0.851205	-0.498938	-0.162821
10175		0.060908	0.214204	-0.974888	0.521335	-0.839718	-0.151933	-0.851176	-0.498989	-0.162818
10176		0.060894	0.214120	-0.974907	0.522067	-0.839300	-0.151728	-0.850728	-0.499728	-0.162893
10177		0.060968	0.214070	-0.974914	0.522384	-0.839129	-0.151586	-0.850528	-0.500037	-0.162986
10178		0.061156	0.214126	-0.974890	0.522177	-0.839258	-0.151579	-0.850642	-0.499795	-0.163137
10179		0.061240	0.214218	-0.974864	0.522767	-0.838905	-0.151503	-0.850273	-0.500349	-0.163360
10180		0.061427	0.214436	-0.974804	0.523588	-0.838404	-0.151437	-0.849754	-0.501094	-0.163777
10181		0.061593	0.214706	-0.974735	0.524166	-0.838037	-0.151473	-0.849386	-0.501593	-0.164159
10182		0.061648	0.214876	-0.974694	0.524897	-0.837583	-0.151450	-0.848930	-0.502277	-0.164424
10183		0.061640	0.215027	-0.974661	0.525075	-0.837454	-0.151549	-0.848821	-0.502429	-0.164526
10184		0.061557	0.215093	-0.974652	0.525171	-0.837379	-0.151630	-0.848767	-0.502525	-0.164507
10185		0.061457	0.215125	-0.974651	0.524804	-0.837582	-0.151780	-0.849002	-0.502172	-0.164373
10186		0.061351	0.215179	-0.974646	0.524492	-0.837748	-0.151940	-0.849202	-0.501872	-0.164257
10187		0.061179	0.215134	-0.974666	0.524081	-0.837982	-0.152069	-0.849468	-0.501501	-0.164015
10188		0.060898	0.215069	-0.974698	0.524221	-0.837884	-0.152128	-0.849402	-0.501692	-0.163770
10189		0.060818	0.215110	-0.974694	0.524136	-0.837920	-0.152220	-0.849460	-0.501615	-0.163708
10190		0.060818	0.215247	-0.974664	0.524241	-0.837837	-0.152317	-0.849395	-0.501695	-0.163797
10191		0.060833	0.215361	-0.974638	0.524358	-0.837751	-0.152386	-0.849322	-0.501789	-0.163890
10192		0.060868	0.215462	-0.974613	0.524346	-0.837746	-0.152457	-0.849327	-0.501755	-0.163969
10193		0.060856	0.215567	-0.974591	0.524335	-0.837735	-0.152555	-0.849335	-0.501728	-0.164010
10194		0.060784	0.215556	-0.974598	0.524492	-0.837637	-0.152552	-0.849243	-0.501896	-0.163973
10195		0.060750	0.215547	-0.974602	0.524192	-0.837812	-0.152620	-0.849430	-0.501607	-0.163885
10196		0.060718	0.215566	-0.974600	0.523564	-0.838177	-0.152774	-0.849820	-0.500989	-0.163755
10197		0.060585	0.215458	-0.974632	0.523294	-0.838341	-0.152800	-0.849996	-0.500761	-0.163538
10198		0.060513	0.215397	-0.974650	0.522918	-0.838566	-0.152856	-0.850232	-0.500412	-0.163379
10199		0.060692	0.215657	-0.974581	0.522673	-0.838685	-0.153036	-0.850370	-0.500099	-0.163620
10200		0.060962	0.216068	-0.974473	0.522516	-0.838738	-0.153284	-0.850447	-0.499834	-0.164030
10201		0.060914	0.216526	-0.974375	0.522599	-0.838612	-0.153686	-0.850400	-0.499846	-0.164240
10202		0.060483	0.216882	-0.974322	0.523076	-0.838235	-0.154118	-0.850137	-0.500324	-0.164144
10203		0.059872	0.217316	-0.974263	0.523233	-0.838017	-0.154771	-0.850084	-0.500500	-0.163880
10204		0.059141	0.217781	-0.974204	0.522956	-0.838038	-0.155595	-0.850305	-0.500264	-0.163452
10205		0.058284	0.218075	-0.974190	0.521846	-0.838562	-0.156493	-0.851046	-0.499256	-0.162676
10206		0.057353	0.218266	-0.974202	0.520062	-0.839488	-0.157467	-0.852201	-0.497614	-0.161659
10207		0.056499	0.218254	-0.974255	0.517529	-0.840883	-0.158363	-0.853798	-0.495258	-0.160462
10208		0.055789	0.218094	-0.974332	0.514134	-0.842803	-0.159214	-0.855894	-0.492055	-0.159149
10209		0.055157	0.217639	-0.974470	0.510925	-0.844655	-0.159727	-0.857854	-0.489071	-0.157786
10210		0.054649	0.216908	-0.974661	0.508097	-0.846335	-0.159861	-0.859565	-0.486486	-0.156462
10211		0.054418	0.216052	-0.974864	0.505050	-0.848171	-0.159781	-0.861373	-0.483660	-0.155273
10212		0.054037	0.214652	-0.975195	0.502544	-0.849768	-0.159198	-0.862861	-0.481476	-0.153791
10213		0.053843	0.212474	-0.975682	0.499257	-0.851931	-0.157973	-0.864779	-0.478610	-0.151950
10214		0.054394	0.209729	-0.976245	0.494422	-0.855081	-0.156151	-0.867518	-0.474184	-0.150206
10215		0.055720	0.206249	-0.976912	0.488915	-0.858735	-0.153413	-0.870550	-0.469079	-0.148687
10216		0.057829	0.201846	-0.977709	0.483805	-0.862328	-0.149410	-0.873263	-0.464380	-0.147521
10217		0.060679	0.196505	-0.978624	0.479593	-0.865583	-0.144069	-0.875391	-0.460599	-0.146765
10218		0.064061	0.189987	-0.979694	0.476833	-0.868222	-0.137190	-0.876656	-0.458362	-0.146211
10219		0.068097	0.182141	-0.980912	0.476341	-0.869828	-0.128446	-0.876620	-0.458502	-0.145994
10220		0.072904	0.172922	-0.982234	0.478095	-0.870380	-0.117745	-0.875277	-0.461017	-0.146127
10221		0.078200	0.162168	-0.983660	0.483076	-0.869271	-0.104905	-0.872079	-0.466978	-0.146317
10222		0.083553	0.149306	-0.985255	0.491053	-0.866502	-0.089668	-0.867113	-0.476320	-0.145716
10223		0.088212	0.133831	-0.987070	0.501947	-0.861896	-0.072002	-0.860388	-0.489105	-0.143206
10224		0.092368	0.114948	-0.989068	0.512921	-0.856878	-0.051684	-0.853452	-0.502540	-0.138107
10225		0.096681	0.092706	-0.990989	0.522636	-0.852072	-0.028722	-0.847056	-0.515149	-0.130831
10226		0.102759	0.067290	-0.992428	0.528142	-0.849151	-0.002890	-0.842915	-0.523846	-0.122797
10227		0.109609	0.038493	-0.993229	0.529122	-0.848162	0.025521	-0.841437	-0.528337	-0.113334
10228		0.116781	0.006665	-0.993135	0.524008	-0.849876	0.055914	-0.843669	-0.526941	-0.102742
10229		0.124711	-0.025833	-0.991857	0.517251	-0.851379	0.087211	-0.846698	-0.523915	-0.092815
10230		0.134754	-0.058021	-0.989179	0.507759	-0.853210	0.119217	-0.850895	-0.518330	-0.085513
10231		0.147237	-0.088342	-0.985148	0.498021	-0.853916	0.151007	-0.854574	-0.512858	-0.081732
10232		0.161371	-0.117589	-0.979863	0.485793	-0.854791	0.182583	-0.859049	-0.505475	-0.080814
10233		0.176115	-0.143615	-0.973837	0.473704	-0.854852	0.211736	-0.862895	-0.498600	-0.082521
10234		0.189513	-0.166774	-0.967611	0.460334	-0.855363	0.237587	-0.867282	-0.490450	-0.085331
10235		0.201175	-0.186588	-0.961620	0.445881	-0.856651	0.259500	-0.872192	-0.480973	-0.089141
10236		0.212174	-0.203541	-0.955800	0.431421	-0.858087	0.278502	-0.876845	-0.471443	-0.094252
10237		0.219074	-0.218600	-0.950905	0.424253	-0.856286	0.294590	-0.878644	-0.467961	-0.094849
10238		0.221292	-0.231729	-0.947276	0.429167	-0.849099	0.307970	-0.875697	-0.474691	-0.088448
10239		0.225196	-0.240017	-0.944287	0.432018	-0.844099	0.317580	-0.873297	-0.479466	-0.086397
10240		0.225997	-0.246468	-0.942432	0.430580	-0.842546	0.323599	-0.873800	-0.478925	-0.084289
10241		0.223426	-0.250368	-0.942017	0.432167	-0.840818	0.325972	-0.873678	-0.479939	-0.079660
10242		0.218047	-0.251401	-0.943002	0.441143	-0.836515	0.325016	-0.870545	-0.486868	-0.071496
10243		0.210036	-0.249256	-0.945387	0.455444	-0.830688	0.320201	-0.865133	-0.497825	-0.060952
10244		0.201814	-0.242585	-0.948907	0.469107	-0.826542	0.311073	-0.859773	-0.507918	-0.053009
10245		0.193665	-0.231966	-0.953250	0.476929	-0.826846	0.298101	-0.857341	-0.512364	-0.049500
10246		0.186424	-0.217734	-0.958039	0.481518	-0.829736	0.282273	-0.856380	-0.513936	-0.049840
10247		0.180002	-0.200408	-0.963035	0.484879	-0.833742	0.264132	-0.855857	-0.514500	-0.052902
10248		0.174752	-0.180182	-0.967986	0.485378	-0.839593	0.243909	-0.856662	-0.512463	-0.059264
10249		0.170246	-0.157530	-0.972728	0.481650	-0.847881	0.221609	-0.859668	-0.506243	-0.068474
10250		0.166282	-0.132549	-0.977129	0.475413	-0.857375	0.197207	-0.863905	-0.497332	-0.079550
10251		0.163134	-0.105378	-0.980960	0.470117	-0.865843	0.171192	-0.867397	-0.489093	-0.091708
10252		0.158738	-0.077742	-0.984255	0.469950	-0.870773	0.144571	-0.868302	-0.485500	-0.101690
10253		0.151779	-0.050711	-0.987113	0.475488	-0.871786	0.117898	-0.866530	-0.487255	-0.108206
10254		0.142770	-0.024684	-0.989448	0.484585	-0.869933	0.091624	-0.863015	-0.492553	-0.112239
10255		0.131765	-0.000177	-0.991281	0.495362	-0.866176	0.066000	-0.858635	-0.499740	-0.114044
10256		0.120362	0.023218	-0.992459	0.505451	-0.861874	0.041136	-0.854420	-0.506590	-0.115472
10257		0.110183	0.046783	-0.992810	0.516611	-0.856052	0.016995	-0.849101	-0.514769	-0.118491
10258		0.102288	0.071404	-0.992189	0.526021	-0.850443	-0.006974	-0.844298	-0.521199	-0.124550
10259		0.100393	0.098850	-0.990025	0.529169	-0.847950	-0.031004	-0.842556	-0.520779	-0.137436
10260		0.103162	0.123320	-0.986990	0.532992	-0.844652	-0.049826	-0.839808	-0.520918	-0.152864
10261		0.105852	0.141359	-0.984283	0.544733	-0.836349	-0.061532	-0.831902	-0.529658	-0.165532
10262		0.111848	0.158741	-0.980964	0.554469	-0.829174	-0.070959	-0.824654	-0.535978	-0.180758
10263		0.117684	0.171848	-0.978069	0.545581	-0.834143	-0.080914	-0.829754	-0.524094	-0.191922
10264		0.122015	0.175641	-0.976864	0.538614	-0.838408	-0.083471	-0.833671	-0.515967	-0.196901
10265		0.131170	0.175869	-0.975636	0.537317	-0.839661	-0.079118	-0.833118	-0.513847	-0.204635
10266		0.138118	0.171534	-0.975448	0.527533	-0.846294	-0.074126	-0.838232	-0.504343	-0.207378
10267		0.133627	0.159358	-0.978135	0.521562	-0.850554	-0.067319	-0.842684	-0.501162	-0.196772
10268		0.131284	0.145876	-0.980553	0.525985	-0.848659	-0.055831	-0.840300	-0.508426	-0.188144
10269		0.130629	0.132880	-0.982486	0.540813	-0.840108	-0.041719	-0.830938	-0.525892	-0.181606
10270		0.132226	0.121580	-0.983735	0.551871	-0.833431	-0.028826	-0.823380	-0.539083	-0.177298
10271		0.136437	0.113223	-0.984157	0.548766	-0.835735	-0.020070	-0.824767	-0.537334	-0.176158
10272		0.139594	0.106323	-0.984484	0.532959	-0.845994	-0.015796	-0.834547	-0.522484	-0.174762
10273		0.139837	0.099166	-0.985196	0.516759	-0.856035	-0.012818	-0.844634	-0.507316	-0.170951
10274		0.135735	0.089474	-0.986697	0.506468	-0.862217	-0.008514	-0.851508	-0.498575	-0.162348
10275		0.131747	0.075859	-0.988377	0.499075	-0.866559	0.000016	-0.856485	-0.493276	-0.152026
10276		0.131157	0.057422	-0.989697	0.490417	-0.871368	0.014434	-0.861562	-0.487258	-0.142447
10277		0.134302	0.031667	-0.990434	0.480829	-0.876025	0.037191	-0.866468	-0.481224	-0.132878
10278		0.139224	-0.004509	-0.990251	0.473034	-0.878218	0.070505	-0.869974	-0.478238	-0.120137
10279		0.143816	-0.047698	-0.988454	0.468141	-0.876728	0.110419	-0.871872	-0.478616	-0.103758
10280		0.147333	-0.093824	-0.984627	0.466859	-0.871021	0.152857	-0.871972	-0.482203	-0.084528
10281		0.151065	-0.138134	-0.978825	0.461243	-0.865942	0.193389	-0.874319	-0.480691	-0.067100
10282		0.157253	-0.180062	-0.971004	0.448555	-0.862940	0.232666	-0.879812	-0.472136	-0.054932
10283		0.164504	-0.219788	-0.961578	0.432960	-0.859837	0.270603	-0.886276	-0.460840	-0.046287
10284		0.172196	-0.257367	-0.950847	0.412311	-0.857811	0.306854	-0.894622	-0.444884	-0.041597
10285		0.181026	-0.292830	-0.938872	0.391131	-0.854464	0.341918	-0.902356	-0.429117	-0.040145
10286		0.191576	-0.326357	-0.925629	0.370145	-0.849435	0.376101	-0.909006	-0.414669	-0.041932
10287		0.205281	-0.358576	-0.910650	0.351504	-0.841372	0.410534	-0.913403	-0.404372	-0.046677
10288		0.222960	-0.391456	-0.892777	0.337369	-0.828251	0.447417	-0.914588	-0.400951	-0.052601
10289		0.241887	-0.428066	-0.870776	0.332682	-0.806440	0.488852	-0.911490	-0.407938	-0.052658
10290		0.260559	-0.466561	-0.845240	0.332900	-0.778373	0.532272	-0.906249	-0.420068	-0.047494
10291		0.277414	-0.504484	-0.817641	0.340795	-0.744033	0.574695	-0.898276	-0.438076	-0.034479
10292		0.292411	-0.537228	-0.791127	0.364082	-0.702441	0.611573	-0.884274	-0.466866	-0.009806
10293		0.300185	-0.559585	-0.772498	0.395193	-0.664116	0.634643	-0.868165	-0.495797	0.021786
10294		0.296545	-0.580556	-0.758298	0.414355	-0.637172	0.649863	-0.860448	-0.506918	0.051607
10295		0.291796	-0.596779	-0.747469	0.431592	-0.615246	0.659697	-0.853571	-0.515099	0.078039
10296		0.282001	-0.610005	-0.740520	0.443360	-0.601631	0.664433	-0.850827	-0.515688	0.100791
10297		0.269082	-0.619891	-0.737109	0.457762	-0.591049	0.664165	-0.847378	-0.516135	0.124722
10298		0.257249	-0.624444	-0.737491	0.475956	-0.582313	0.659073	-0.841005	-0.520559	0.147408
10299		0.249755	-0.621905	-0.742197	0.490959	-0.579328	0.650645	-0.834615	-0.526890	0.160640
10300		0.245014	-0.613379	-0.750822	0.500955	-0.582942	0.639705	-0.830068	-0.532865	0.164446
10301		0.241058	-0.600155	-0.762696	0.507358	-0.592003	0.626195	-0.827332	-0.537909	0.161786
10302		0.237197	-0.582528	-0.777431	0.510257	-0.606282	0.609967	-0.826665	-0.541372	0.153430
10303		0.232208	-0.561030	-0.794559	0.510511	-0.625029	0.590523	-0.827924	-0.542756	0.141276
10304		0.225402	-0.535957	-0.813599	0.509110	-0.647205	0.567391	-0.830663	-0.542103	0.126980
10305		0.217903	-0.506703	-0.834129	0.506571	-0.671805	0.540430	-0.834209	-0.540306	0.110293
10306		0.211310	-0.473160	-0.855259	0.501312	-0.698695	0.510403	-0.839067	-0.536605	0.089560
10307		0.205426	-0.436741	-0.875818	0.493120	-0.726811	0.478099	-0.845359	-0.530098	0.066060
10308		0.199023	-0.399632	-0.894810	0.483193	-0.754357	0.444376	-0.852593	-0.520806	0.042965
10309		0.192471	-0.362482	-0.911900	0.472474	-0.780240	0.409870	-0.860071	-0.509738	0.021090
10310		0.186772	-0.325233	-0.927006	0.459050	-0.805366	0.375046	-0.868556	-0.495590	-0.001121
10311		0.181655	-0.288199	-0.940182	0.441838	-0.830225	0.339862	-0.878511	-0.477146	-0.023478
10312		0.177618	-0.251139	-0.951515	0.419986	-0.855071	0.304082	-0.889980	-0.453633	-0.046402
10313		0.173583	-0.215545	-0.960942	0.398999	-0.876692	0.268722	-0.900371	-0.430061	-0.066176
10314		0.170363	-0.180457	-0.968717	0.387030	-0.891829	0.234199	-0.906192	-0.414821	-0.082093
10315		0.165484	-0.147604	-0.975104	0.389474	-0.898587	0.202119	-0.906049	-0.413225	-0.091214
10316		0.157600	-0.117119	-0.980533	0.403120	-0.898810	0.172150	-0.901475	-0.422403	-0.094440
10317		0.148424	-0.088540	-0.984952	0.420048	-0.896029	0.143844	-0.895282	-0.435077	-0.095801
10318		0.139088	-0.062390	-0.988313	0.438647	-0.890883	0.117971	-0.887831	-0.449929	-0.096544
10319		0.131347	-0.036859	-0.990651	0.454128	-0.886050	0.093179	-0.881201	-0.462121	-0.099642
10320		0.127353	-0.005884	-0.991840	0.451615	-0.889967	0.063268	-0.883077	-0.455987	-0.110682
10321		0.126159	0.025901	-0.991672	0.441709	-0.896559	0.032777	-0.888244	-0.442166	-0.124550
10322		0.131779	0.061942	-0.989342	0.404689	-0.914448	-0.003349	-0.904910	-0.399934	-0.145572
10323		0.147278	0.099926	-0.984034	0.366290	-0.929659	-0.039583	-0.918771	-0.354612	-0.173520
10324		0.157004	0.131684	-0.978779	0.381975	-0.922038	-0.062778	-0.910738	-0.364013	-0.195064
10325		0.161277	0.153897	-0.974836	0.391343	-0.916762	-0.079985	-0.906002	-0.368596	-0.208080
10326		0.166136	0.162724	-0.972584	0.368937	-0.924917	-0.091727	-0.914486	-0.343583	-0.213697
10327		0.168229	0.156326	-0.973273	0.370879	-0.924834	-0.084440	-0.913317	-0.346762	-0.213562
10328		0.174965	0.142480	-0.974211	0.357600	-0.931099	-0.071951	-0.917338	-0.335789	-0.213860
10329		0.183292	0.127557	-0.974748	0.344880	-0.936869	-0.057749	-0.920577	-0.325586	-0.215712
10330		0.192403	0.117606	-0.974243	0.332970	-0.941719	-0.047922	-0.923099	-0.315174	-0.220349
10331		0.195351	0.112608	-0.974247	0.317339	-0.947203	-0.045851	-0.927973	-0.300209	-0.220772
10332		0.196950	0.114094	-0.973752	0.303501	-0.951513	-0.050102	-0.932254	-0.285667	-0.222028
10333		0.197972	0.121439	-0.972656	0.292244	-0.954479	-0.059687	-0.935628	-0.272436	-0.224450
10334		0.194131	0.131374	-0.972139	0.290315	-0.954294	-0.070988	-0.937033	-0.268446	-0.223398
10335		0.190221	0.143800	-0.971153	0.293407	-0.952330	-0.083543	-0.936872	-0.269051	-0.223345
10336		0.184306	0.158197	-0.970054	0.299509	-0.949061	-0.097868	-0.936123	-0.272503	-0.222299
10337		0.174255	0.172942	-0.969395	0.311043	-0.943720	-0.112450	-0.934285	-0.281928	-0.218240
10338		0.158762	0.184471	-0.969930	0.330997	-0.935484	-0.123741	-0.930181	-0.301398	-0.209579
10339		0.142432	0.191975	-0.971009	0.359295	-0.924125	-0.130003	-0.922291	-0.330362	-0.200601
10340		0.126935	0.194381	-0.972679	0.390817	-0.911088	-0.131071	-0.911674	-0.363502	-0.191616
10341		0.115291	0.190021	-0.974987	0.414513	-0.901191	-0.126623	-0.902711	-0.389546	-0.182665
10342		0.109136	0.179255	-0.977730	0.424375	-0.897864	-0.117243	-0.898885	-0.402129	-0.174061
10343		0.107430	0.162083	-0.980912	0.430626	-0.896858	-0.101032	-0.896114	-0.411552	-0.166147
10344		0.108432	0.136408	-0.984701	0.442374	-0.893682	-0.075087	-0.890251	-0.427464	-0.157247
10345		0.114164	0.101815	-0.988231	0.452070	-0.891104	-0.039584	-0.884646	-0.442231	-0.147760
10346		0.126523	0.059026	-0.990206	0.447466	-0.894293	0.003866	-0.885306	-0.443572	-0.139561
10347		0.146086	0.009758	-0.989224	0.430251	-0.901053	0.054650	-0.890810	-0.433598	-0.135830
10348		0.168069	-0.033575	-0.985203	0.413638	-0.904777	0.101398	-0.894794	-0.424559	-0.138177
10349		0.179432	-0.076058	-0.980826	0.403776	-0.903466	0.143925	-0.897089	-0.421858	-0.131400
10350		0.192529	-0.118666	-0.974090	0.391945	-0.900742	0.187198	-0.899618	-0.417831	-0.126909
10351		0.206407	-0.162325	-0.964908	0.382091	-0.894475	0.232210	-0.900779	-0.416612	-0.122603
10352		0.216607	-0.207602	-0.953930	0.374386	-0.884758	0.277559	-0.901619	-0.417259	-0.113922
10353		0.225334	-0.253697	-0.940671	0.369276	-0.871224	0.323425	-0.901587	-0.420246	-0.102632
10354		0.233877	-0.300907	-0.924531	0.366052	-0.853683	0.370448	-0.900726	-0.425066	-0.089509
10355		0.242474	-0.348960	-0.905225	0.366769	-0.830850	0.418532	-0.898158	-0.433491	-0.073472
10356		0.251102	-0.398898	-0.881946	0.370982	-0.801904	0.468319	-0.894047	-0.444782	-0.053376
10357		0.258516	-0.450596	-0.854478	0.377233	-0.767223	0.518713	-0.889306	-0.456433	-0.028360
10358		0.263709	-0.505002	-0.821846	0.389359	-0.723784	0.569681	-0.882529	-0.470223	0.005759
10359		0.269528	-0.557581	-0.785148	0.398918	-0.677429	0.618025	-0.876481	-0.479785	0.039843
10360		0.274694	-0.608317	-0.744644	0.416272	-0.622862	0.662390	-0.866753	-0.491929	0.082129
10361		0.282205	-0.653069	-0.702753	0.438119	-0.563946	0.700012	-0.853471	-0.505436	0.126974
10362		0.288432	-0.691818	-0.661963	0.451603	-0.511328	0.731163	-0.844312	-0.509835	0.164944
10363		0.289606	-0.723648	-0.626468	0.450464	-0.474452	0.756292	-0.844518	-0.501228	0.188573
10364		0.283821	-0.753305	-0.593277	0.450131	-0.441638	0.776104	-0.846657	-0.487327	0.213740
10365		0.272715	-0.780115	-0.563070	0.459149	-0.408774	0.788725	-0.845464	-0.473630	0.246710
10366		0.255174	-0.804456	-0.536411	0.477528	-0.377543	0.793365	-0.840745	-0.458598	0.287811
10367		0.237012	-0.824973	-0.513074	0.504427	-0.346854	0.790725	-0.830288	-0.446220	0.333931
10368		0.221404	-0.841255	-0.493224	0.531985	-0.319695	0.784083	-0.817296	-0.435987	0.376754
10369		0.208789	-0.853350	-0.477704	0.554501	-0.299063	0.776589	-0.805565	-0.427031	0.410743
10370		0.200781	-0.860574	-0.468080	0.569735	-0.286115	0.770415	-0.796924	-0.421367	0.432853
10371		0.196591	-0.863747	-0.463997	0.577632	-0.280362	0.766641	-0.792271	-0.418735	0.443811
10372		0.196478	-0.862955	-0.465516	0.580165	-0.280423	0.764703	-0.790446	-0.420323	0.445560
10373		0.199063	-0.858674	-0.472285	0.578821	-0.285865	0.763706	-0.790784	-0.425394	0.440114
10374		0.202401	-0.851703	-0.483359	0.574669	-0.296362	0.762840	-0.792962	-0.432171	0.429463
10375		0.205165	-0.842372	-0.498313	0.569090	-0.311552	0.760968	-0.796268	-0.439709	0.415466
10376		0.206928	-0.830245	-0.517566	0.562555	-0.331846	0.757239	-0.800445	-0.447853	0.398390
10377		0.206166	-0.815473	-0.540832	0.557118	-0.356555	0.749992	-0.804434	-0.455930	0.380805
10378		0.202637	-0.798333	-0.567100	0.554221	-0.383943	0.738530	-0.807327	-0.463952	0.364652
10379		0.198301	-0.777733	-0.596497	0.553766	-0.413241	0.722893	-0.808715	-0.473670	0.348736
10380		0.193535	-0.753085	-0.628815	0.554961	-0.444507	0.703158	-0.809050	-0.485054	0.331905
10381		0.187498	-0.724642	-0.663127	0.556026	-0.478227	0.679805	-0.809741	-0.496178	0.313253
10382		0.180286	-0.692554	-0.698474	0.555058	-0.514612	0.653518	-0.812039	-0.505513	0.291630
10383		0.173771	-0.656337	-0.734184	0.548973	-0.554381	0.625533	-0.817577	-0.511746	0.263975
10384		0.168057	-0.616569	-0.769155	0.536765	-0.597205	0.596012	-0.826826	-0.513019	0.230588
10385		0.162110	-0.575028	-0.801912	0.519299	-0.641311	0.564844	-0.839076	-0.507999	0.194649
10386		0.156432	-0.532398	-0.831914	0.497997	-0.684867	0.531936	-0.852952	-0.497502	0.157998
10387		0.153283	-0.488410	-0.859046	0.471724	-0.727710	0.497911	-0.868321	-0.481554	0.118849
10388		0.151870	-0.444970	-0.882574	0.442960	-0.767599	0.463226	-0.883585	-0.461295	0.080529
10389		0.151848	-0.403872	-0.902125	0.414815	-0.802400	0.429049	-0.897146	-0.439365	0.045690
10390		0.152948	-0.366227	-0.917869	0.388052	-0.831938	0.396604	-0.908858	-0.416841	0.014872
10391		0.153940	-0.332671	-0.930394	0.365591	-0.855615	0.366423	-0.917957	-0.396551	-0.010092
10392		0.152119	-0.303295	-0.940676	0.349482	-0.873761	0.338236	-0.924512	-0.380201	-0.026919
10393		0.150041	-0.276514	-0.949225	0.341676	-0.886436	0.312231	-0.927763	-0.371175	-0.038524
10394		0.147447	-0.251387	-0.956590	0.341773	-0.894635	0.287785	-0.928144	-0.369370	-0.045994
10395		0.143835	-0.227968	-0.962986	0.349653	-0.898632	0.264959	-0.925772	-0.374821	-0.049544
10396		0.139936	-0.205263	-0.968651	0.360011	-0.900776	0.242889	-0.922394	-0.382714	-0.052154
10397		0.136204	-0.182053	-0.973810	0.368287	-0.903218	0.220367	-0.919681	-0.388656	-0.055974
10398		0.133077	-0.158240	-0.978392	0.374262	-0.906059	0.197447	-0.917724	-0.392451	-0.061353
10399		0.131356	-0.133305	-0.982332	0.377249	-0.909641	0.173885	-0.916749	-0.393424	-0.069198
10400		0.133389	-0.106151	-0.985362	0.372204	-0.916101	0.149076	-0.918516	-0.386641	-0.082688
10401		0.137509	-0.078902	-0.987353	0.352600	-0.927624	0.123236	-0.925616	-0.365087	-0.099735
10402		0.143533	-0.052925	-0.988229	0.320052	-0.942426	0.096957	-0.936464	-0.330201	-0.118330
10403		0.153144	-0.027843	-0.987812	0.273485	-0.959366	0.069440	-0.949607	-0.280786	-0.139306
10404		0.168947	-0.004116	-0.985617	0.233569	-0.971340	0.044093	-0.957550	-0.237659	-0.163143
10405		0.181684	0.012401	-0.983279	0.224981	-0.973923	0.029288	-0.957275	-0.226540	-0.179736
10406		0.184357	0.020567	-0.982644	0.221004	-0.975046	0.021055	-0.957690	-0.221050	-0.184302
10407		0.190738	0.019934	-0.981439	0.205995	-0.978345	0.020163	-0.959784	-0.206017	-0.190714
10408		0.191528	0.012315	-0.981410	0.198527	-0.979738	0.026450	-0.961199	-0.199902	-0.190092
10409		0.195049	-0.001677	-0.980792	0.188376	-0.981317	0.039141	-0.962533	-0.192392	-0.191089
10410		0.200213	-0.019871	-0.979551	0.168959	-0.984115	0.054498	-0.965074	-0.176416	-0.193675
10411		0.207404	-0.040109	-0.977433	0.148251	-0.986330	0.071932	-0.966957	-0.159824	-0.198622
10412		0.213571	-0.059746	-0.975099	0.131829	-0.987236	0.089363	-0.967992	-0.147631	-0.202969
10413		0.218305	-0.076809	-0.972853	0.118458	-0.987440	0.104542	-0.968664	-0.138064	-0.206464
10414		0.222375	-0.089448	-0.970849	0.108245	-0.987361	0.115763	-0.968934	-0.130832	-0.209882
10415		0.226065	-0.097961	-0.969174	0.102071	-0.987071	0.123579	-0.968750	-0.126861	-0.213144
10416		0.229378	-0.103004	-0.967872	0.099755	-0.986661	0.128645	-0.968212	-0.126059	-0.216044
10417		0.232235	-0.103954	-0.967089	0.096584	-0.986894	0.129277	-0.967852	-0.123428	-0.219151
10418		0.234480	-0.101218	-0.966837	0.096583	-0.987218	0.126775	-0.967311	-0.123106	-0.221707
10419		0.236486	-0.095530	-0.966927	0.099687	-0.987518	0.121945	-0.966508	-0.125228	-0.224011
10420		0.237651	-0.087677	-0.967385	0.107598	-0.987413	0.115925	-0.965373	-0.131639	-0.225226
10421		0.236376	-0.078129	-0.968516	0.121628	-0.986543	0.109268	-0.964019	-0.143627	-0.223692
10422		0.232223	-0.067579	-0.970312	0.140809	-0.984739	0.102283	-0.962416	-0.160381	-0.219163
10423		0.226608	-0.055935	-0.972379	0.160391	-0.982577	0.093900	-0.960689	-0.177239	-0.213688
10424		0.220475	-0.042514	-0.974466	0.179125	-0.980294	0.083296	-0.958804	-0.192916	-0.208515
10425		0.213499	-0.026684	-0.976579	0.195915	-0.978151	0.069557	-0.957098	-0.206177	-0.203606
10426		0.205185	-0.008178	-0.978689	0.211262	-0.976021	0.052447	-0.955650	-0.217521	-0.198537
10427		0.196037	0.013513	-0.980503	0.225585	-0.973708	0.031683	-0.954296	-0.227398	-0.193931
10428		0.186384	0.038872	-0.981708	0.238984	-0.970999	0.006925	-0.952968	-0.235903	-0.190268
10429		0.176360	0.067401	-0.982015	0.250583	-0.967858	-0.021427	-0.951895	-0.242298	-0.187581
10430		0.163432	0.097097	-0.981765	0.262842	-0.963462	-0.051532	-0.950897	-0.249627	-0.182981
10431		0.145005	0.124166	-0.981609	0.280254	-0.956619	-0.079605	-0.948910	-0.263557	-0.173513
10432		0.122503	0.144869	-0.981838	0.303672	-0.947313	-0.101886	-0.944868	-0.285676	-0.160042
10433		0.101286	0.156786	-0.982425	0.333474	-0.935725	-0.114952	-0.937303	-0.315970	-0.147060
10434		0.081283	0.157823	-0.984116	0.372591	-0.920608	-0.116864	-0.924429	-0.357174	-0.133633
10435		0.066256	0.150090	-0.986450	0.404646	-0.907720	-0.110933	-0.912070	-0.391813	-0.120875
10436		0.060347	0.135232	-0.988975	0.421738	-0.901457	-0.097530	-0.904707	-0.411202	-0.111432
10437		0.062276	0.112359	-0.991714	0.436310	-0.896732	-0.074199	-0.897639	-0.428074	-0.104868
10438		0.068906	0.080015	-0.994409	0.447880	-0.893161	-0.040833	-0.891434	-0.442563	-0.097381
10439		0.082217	0.039281	-0.995840	0.452074	-0.891978	0.002139	-0.888183	-0.450369	-0.091094
10440		0.102672	-0.008714	-0.994677	0.446461	-0.893178	0.053909	-0.888893	-0.449619	-0.087813
10441		0.125634	-0.055616	-0.990517	0.428843	-0.897283	0.104774	-0.894601	-0.437939	-0.088879
10442		0.144527	-0.099206	-0.984515	0.406029	-0.901393	0.150435	-0.902360	-0.421483	-0.089995
10443		0.160646	-0.140801	-0.976917	0.385416	-0.902244	0.193417	-0.908651	-0.407592	-0.090675
10444		0.177279	-0.182351	-0.967120	0.364453	-0.900656	0.236626	-0.914191	-0.394419	-0.093209
10445		0.193484	-0.225953	-0.954730	0.348306	-0.893911	0.282146	-0.917195	-0.387129	-0.094257
10446		0.207639	-0.270880	-0.939952	0.340903	-0.880617	0.329087	-0.916881	-0.388764	-0.090506
10447		0.219115	-0.316586	-0.922909	0.338722	-0.862385	0.376243	-0.915017	-0.395051	-0.081727
10448		0.228517	-0.362936	-0.903359	0.342488	-0.838627	0.423565	-0.911308	-0.406181	-0.067339
10449		0.235893	-0.409762	-0.881164	0.346220	-0.811816	0.470198	-0.908012	-0.415993	-0.049634
10450		0.241470	-0.456264	-0.856455	0.349946	-0.782245	0.515394	-0.905113	-0.424165	-0.029221
10451		0.241978	-0.503100	-0.829661	0.360336	-0.747325	0.558268	-0.900891	-0.434045	0.000449
10452		0.238730	-0.551453	-0.799317	0.385938	-0.701440	0.599195	-0.891101	-0.451532	0.045372
10453		0.233454	-0.600507	-0.764782	0.417152	-0.648609	0.636625	-0.878342	-0.467652	0.099082
10454		0.222483	-0.652826	-0.724099	0.465413	-0.581503	0.667267	-0.856675	-0.485461	0.174459
10455		0.207765	-0.706419	-0.676613	0.525305	-0.502924	0.686383	-0.825159	-0.498035	0.266596
10456		0.197591	-0.756384	-0.623571	0.566832	-0.430829	0.702202	-0.799787	-0.492209	0.343615
10457		0.187255	-0.802486	-0.566526	0.587850	-0.370511	0.719134	-0.786999	-0.467694	0.402362
10458		0.181987	-0.838795	-0.513131	0.604145	-0.316350	0.731390	-0.775816	-0.443109	0.449182
10459		0.176652	-0.865512	-0.468704	0.618930	-0.272586	0.736629	-0.765323	-0.420222	0.487539
10460		0.165649	-0.886694	-0.431665	0.635626	-0.238671	0.734177	-0.754016	-0.395993	0.524069
10461		0.153521	-0.903698	-0.399701	0.652956	-0.210828	0.727461	-0.741674	-0.372668	0.557709
10462		0.143137	-0.917389	-0.371362	0.668343	-0.187149	0.719926	-0.729952	-0.351245	0.586342
10463		0.136537	-0.927308	-0.348506	0.679767	-0.168205	0.713879	-0.720607	-0.334374	0.607388
10464		0.136394	-0.932801	-0.333585	0.682681	-0.155509	0.713978	-0.717874	-0.325114	0.615595
10465		0.141383	-0.935426	-0.324019	0.678012	-0.146992	0.720204	-0.721326	-0.321514	0.613448
10466		0.149648	-0.936414	-0.317386	0.668685	-0.140606	0.730130	-0.728331	-0.321494	0.605125
10467		0.163509	-0.934764	-0.315407	0.655892	-0.135817	0.742536	-0.736933	-0.328284	0.590897
10468		0.180358	-0.930990	-0.317377	0.640093	-0.133903	0.756539	-0.746828	-0.339599	0.571770
10469		0.193735	-0.927472	-0.319784	0.624154	-0.134960	0.769557	-0.756900	-0.348685	0.552739
10470		0.199690	-0.926017	-0.320339	0.611857	-0.137512	0.778923	-0.765346	-0.351545	0.539130
10471		0.201498	-0.925309	-0.321250	0.607196	-0.139353	0.782236	-0.768578	-0.352681	0.533764
10472		0.201280	-0.924483	-0.323755	0.612764	-0.139023	0.777941	-0.764203	-0.354970	0.538508
10473		0.201257	-0.922530	-0.329292	0.622283	-0.139205	0.770316	-0.756479	-0.359944	0.546059
10474		0.203505	-0.918528	-0.338957	0.631466	-0.141436	0.762395	-0.748222	-0.369191	0.551236
10475		0.205169	-0.913523	-0.351257	0.642820	-0.144854	0.752197	-0.738030	-0.380122	0.557511
10476		0.204923	-0.907825	-0.365870	0.655911	-0.150082	0.739768	-0.726490	-0.391573	0.564697
10477		0.204397	-0.900341	-0.384198	0.667813	-0.158711	0.727211	-0.715714	-0.405212	0.568820
10478		0.204768	-0.889954	-0.407495	0.676083	-0.172451	0.716360	-0.707801	-0.422188	0.566370
10479		0.206176	-0.875999	-0.436024	0.679415	-0.192519	0.708048	-0.704193	-0.442224	0.555474
10480		0.207907	-0.858754	-0.468312	0.677640	-0.218815	0.702085	-0.705392	-0.463316	0.536433
10481		0.209988	-0.837846	-0.503904	0.671319	-0.251138	0.697324	-0.710800	-0.484710	0.509725
10482		0.211890	-0.813467	-0.541641	0.662237	-0.288069	0.691706	-0.718710	-0.505260	0.477669
10483		0.213601	-0.785423	-0.580935	0.651654	-0.328477	0.683704	-0.727820	-0.524608	0.441661
10484		0.215989	-0.752553	-0.622103	0.639299	-0.372580	0.672667	-0.738001	-0.542999	0.400633
10485		0.218407	-0.715117	-0.664007	0.623790	-0.420962	0.658542	-0.750456	-0.558031	0.354142
10486		0.217477	-0.676229	-0.703859	0.606086	-0.471692	0.640442	-0.765090	-0.565881	0.307272
10487		0.210716	-0.639335	-0.739492	0.588195	-0.521290	0.618291	-0.780785	-0.565250	0.266210
10488		0.202803	-0.601944	-0.772356	0.570473	-0.568444	0.592817	-0.795884	-0.560834	0.228110
10489		0.194426	-0.563738	-0.802744	0.549777	-0.615118	0.565132	-0.812369	-0.551207	0.190335
10490		0.184217	-0.525794	-0.830424	0.528698	-0.659234	0.534686	-0.828579	-0.537542	0.156544
10491		0.175591	-0.486459	-0.855877	0.506989	-0.700549	0.502188	-0.843878	-0.522100	0.123620
10492		0.172078	-0.444763	-0.878963	0.478238	-0.742349	0.469262	-0.861207	-0.501103	0.084961
10493		0.172395	-0.402738	-0.898934	0.444002	-0.782858	0.435884	-0.879285	-0.474273	0.043856
10494		0.171169	-0.364233	-0.915443	0.413867	-0.816621	0.402299	-0.894100	-0.447733	0.010964
10495		0.167454	-0.331023	-0.928646	0.394193	-0.840893	0.370824	-0.903643	-0.428162	-0.010324
10496		0.162726	-0.302833	-0.939049	0.382800	-0.857809	0.342969	-0.909387	-0.415278	-0.023664
10497		0.161840	-0.278273	-0.946769	0.373190	-0.870906	0.319769	-0.913530	-0.405076	-0.037099
10498		0.163605	-0.257099	-0.952436	0.371603	-0.878273	0.300912	-0.913862	-0.403159	-0.048151
10499		0.167211	-0.237229	-0.956955	0.374069	-0.882780	0.284203	-0.912202	-0.405489	-0.058870
10500		0.169812	-0.218249	-0.961005	0.379690	-0.885393	0.268169	-0.909395	-0.410422	-0.067483
10501		0.168139	-0.200978	-0.965058	0.394319	-0.883546	0.252703	-0.903461	-0.423030	-0.069309
10502		0.163550	-0.183012	-0.969411	0.415531	-0.878444	0.235943	-0.894754	-0.441409	-0.067622
10503		0.158155	-0.164469	-0.973621	0.440720	-0.870606	0.218658	-0.883602	-0.463676	-0.065206
10504		0.153921	-0.143397	-0.977622	0.455928	-0.867478	0.199025	-0.876606	-0.476360	-0.068145
10505		0.152586	-0.119728	-0.981011	0.456752	-0.871720	0.177432	-0.876410	-0.475152	-0.078327
10506		0.152556	-0.094587	-0.983758	0.438674	-0.885497	0.153167	-0.885602	-0.454916	-0.093595
10507		0.156721	-0.068578	-0.985259	0.395883	-0.909577	0.126282	-0.904829	-0.409838	-0.115401
10508		0.166559	-0.041916	-0.985140	0.347142	-0.932639	0.098374	-0.922903	-0.358369	-0.140788
10509		0.172748	-0.024581	-0.984659	0.341410	-0.936219	0.083268	-0.923903	-0.350557	-0.153338
10510		0.176390	-0.014312	-0.984216	0.329285	-0.941427	0.072704	-0.927609	-0.336912	-0.161346
10511		0.187543	-0.008408	-0.982220	0.290328	-0.954811	0.063608	-0.938370	-0.297095	-0.176627
10512		0.198876	-0.010735	-0.979966	0.263605	-0.962502	0.064041	-0.943907	-0.271060	-0.188589
10513		0.215155	-0.023706	-0.976292	0.249057	-0.965316	0.078327	-0.944287	-0.260005	-0.201788
10514		0.231895	-0.044776	-0.971710	0.229351	-0.968260	0.099351	-0.945316	-0.245902	-0.214265
10515		0.245844	-0.069436	-0.966819	0.214602	-0.968780	0.124146	-0.945255	-0.238001	-0.223268
10516		0.259486	-0.092680	-0.961289	0.198761	-0.968950	0.147071	-0.945072	-0.229230	-0.233008
10517		0.269690	-0.114528	-0.956112	0.191930	-0.966587	0.169921	-0.943626	-0.229333	-0.238697
10518		0.278248	-0.134720	-0.951015	0.190045	-0.962819	0.191996	-0.941521	-0.234158	-0.242299
10519		0.282222	-0.153916	-0.946922	0.197149	-0.956674	0.214260	-0.938873	-0.247154	-0.239650
10520		0.282262	-0.170190	-0.944120	0.207051	-0.950136	0.233176	-0.936727	-0.261298	-0.232950
10521		0.279599	-0.182015	-0.942706	0.219431	-0.943765	0.247301	-0.934705	-0.276004	-0.223936
10522		0.276851	-0.187202	-0.942501	0.225742	-0.940719	0.253158	-0.934020	-0.282849	-0.218180
10523		0.274436	-0.184760	-0.943689	0.226967	-0.941195	0.250276	-0.934436	-0.282871	-0.216364
10524		0.273515	-0.174319	-0.945940	0.222320	-0.945354	0.238494	-0.935822	-0.275533	-0.219814
10525		0.274002	-0.157979	-0.948665	0.214258	-0.951598	0.220351	-0.937559	-0.263636	-0.226891
10526		0.275939	-0.138598	-0.951130	0.205530	-0.958153	0.199249	-0.938944	-0.250466	-0.235905
10527		0.278256	-0.119426	-0.953054	0.199616	-0.963386	0.179001	-0.939536	-0.240053	-0.244228
10528		0.278558	-0.101912	-0.954997	0.199364	-0.966559	0.161297	-0.939500	-0.235323	-0.248925
10529		0.274002	-0.087908	-0.957703	0.209448	-0.966457	0.148635	-0.938645	-0.241315	-0.246399
10530		0.264891	-0.076932	-0.961204	0.227181	-0.963774	0.139745	-0.937135	-0.255384	-0.237818
10531		0.252100	-0.067423	-0.965350	0.247963	-0.959764	0.131788	-0.935393	-0.272595	-0.225238
10532		0.236640	-0.058222	-0.969851	0.267555	-0.955704	0.122655	-0.934032	-0.288513	-0.210580
10533		0.220167	-0.047305	-0.974315	0.282820	-0.952825	0.110171	-0.933563	-0.299812	-0.196401
10534		0.203514	-0.032598	-0.978529	0.293176	-0.951556	0.092674	-0.934147	-0.305742	-0.184098
10535		0.186404	-0.013634	-0.982379	0.299979	-0.951365	0.070123	-0.935557	-0.307764	-0.173248
10536		0.167552	0.008879	-0.985823	0.305494	-0.951207	0.043355	-0.937337	-0.308427	-0.162089
10537		0.145939	0.033380	-0.988730	0.315054	-0.948963	0.014465	-0.937786	-0.313615	-0.149008
10538		0.122186	0.057391	-0.990847	0.327802	-0.944638	-0.014292	-0.936812	-0.323055	-0.134235
10539		0.096847	0.078553	-0.992195	0.340079	-0.939495	-0.041186	-0.935397	-0.333435	-0.117702
10540		0.069840	0.093372	-0.993179	0.359845	-0.930936	-0.062216	-0.930395	-0.353045	-0.098616
10541		0.045243	0.098080	-0.994150	0.385726	-0.919706	-0.073181	-0.921503	-0.380158	-0.079442
10542		0.029601	0.094337	-0.995100	0.406188	-0.910767	-0.074259	-0.913310	-0.402000	-0.065278
10543		0.024243	0.085123	-0.996075	0.416479	-0.906648	-0.067344	-0.908822	-0.413212	-0.057432
10544		0.027452	0.069175	-0.997227	0.414244	-0.908700	-0.051631	-0.909752	-0.411677	-0.053601
10545		0.038352	0.045491	-0.998228	0.411307	-0.911134	-0.025719	-0.910689	-0.409592	-0.053654
10546		0.056362	0.014571	-0.998304	0.418721	-0.908056	0.010386	-0.906364	-0.418596	-0.057282
10547		0.079567	-0.022678	-0.996571	0.427876	-0.902181	0.054692	-0.900328	-0.430761	-0.062081
10548		0.100688	-0.065297	-0.992773	0.417825	-0.902811	0.101756	-0.902931	-0.425051	-0.063620
10549		0.119986	-0.106760	-0.987019	0.392108	-0.908274	0.145909	-0.912061	-0.404525	-0.067119
10550		0.133756	-0.144032	-0.980492	0.368856	-0.911062	0.184151	-0.919812	-0.386291	-0.068733
10551		0.147530	-0.178074	-0.972895	0.346623	-0.911964	0.219484	-0.926330	-0.369608	-0.072817
10552		0.162357	-0.213697	-0.963314	0.329940	-0.908315	0.257105	-0.929935	-0.359578	-0.076964
10553		0.173759	-0.249364	-0.952694	0.319637	-0.900754	0.294066	-0.931472	-0.355613	-0.076808
10554		0.177852	-0.286140	-0.941537	0.316755	-0.889222	0.330075	-0.931684	-0.356941	-0.067513
10555		0.178722	-0.322070	-0.929693	0.318378	-0.875138	0.364375	-0.930964	-0.361116	-0.053866
10556		0.180706	-0.355497	-0.917043	0.326298	-0.857916	0.396875	-0.927833	-0.370947	-0.039033
10557		0.182781	-0.387116	-0.903733	0.341371	-0.837038	0.427590	-0.921985	-0.386664	-0.020844
10558		0.184172	-0.417590	-0.889775	0.364444	-0.811719	0.456392	-0.912831	-0.408328	0.002692
10559		0.183084	-0.447655	-0.875263	0.395062	-0.781760	0.482470	-0.900226	-0.434116	0.033724
10560		0.180550	-0.477036	-0.860139	0.428011	-0.749261	0.505386	-0.885556	-0.459396	0.068897
10561		0.174678	-0.505608	-0.844896	0.460359	-0.716585	0.524000	-0.870378	-0.480486	0.107590
10562		0.167777	-0.533392	-0.829062	0.488855	-0.685285	0.539820	-0.856079	-0.495861	0.145776
10563		0.156998	-0.563354	-0.811162	0.523593	-0.648935	0.552027	-0.837378	-0.511386	0.193087
10564		0.141856	-0.596470	-0.790000	0.565851	-0.605964	0.559125	-0.812213	-0.526338	0.251554
10565		0.127514	-0.627883	-0.767791	0.604202	-0.564723	0.562163	-0.786562	-0.535585	0.307358
10566		0.118911	-0.652394	-0.748494	0.625732	-0.536067	0.566649	-0.770921	-0.535737	0.344480
10567		0.112304	-0.670842	-0.733047	0.637371	-0.517330	0.571076	-0.762330	-0.531357	0.369477
10568		0.106283	-0.683703	-0.721979	0.645258	-0.505019	0.573234	-0.756535	-0.526788	0.387490
10569		0.097113	-0.695242	-0.712186	0.655059	-0.494080	0.571649	-0.749311	-0.522038	0.407443
10570		0.083135	-0.707443	-0.701863	0.668539	-0.482705	0.565731	-0.739016	-0.516255	0.432824
10571		0.068612	-0.718450	-0.692186	0.682689	-0.472122	0.557707	-0.727481	-0.510814	0.458085
10572		0.054667	-0.728394	-0.682974	0.695831	-0.462769	0.549240	-0.716122	-0.505259	0.481541
10573		0.041300	-0.738175	-0.673344	0.709304	-0.452975	0.540094	-0.703692	-0.499911	0.504883
10574		0.031163	-0.746433	-0.664730	0.723000	-0.442371	0.530639	-0.690145	-0.497136	0.525886
10575		0.028693	-0.750797	-0.659909	0.735583	-0.431153	0.522518	-0.676827	-0.500411	0.539903
10576		0.031979	-0.751862	-0.658545	0.743623	-0.422352	0.518309	-0.667834	-0.506284	0.545595
10577		0.033432	-0.753910	-0.656127	0.751136	-0.414115	0.514104	-0.659300	-0.510028	0.552445
10578		0.031102	-0.757916	-0.651610	0.760571	-0.405038	0.507421	-0.648510	-0.511377	0.563851
10579		0.028111	-0.761680	-0.647343	0.768133	-0.397955	0.501601	-0.639673	-0.511346	0.573885
10580		0.025913	-0.764349	-0.644282	0.770545	-0.395320	0.499982	-0.636858	-0.509404	0.578722
10581		0.023105	-0.767610	-0.640501	0.770286	-0.394728	0.500849	-0.637280	-0.504941	0.582158
10582		0.021111	-0.770019	-0.637672	0.769836	-0.394427	0.501776	-0.637892	-0.501496	0.584462
10583		0.019038	-0.771637	-0.635778	0.769238	-0.394900	0.502321	-0.638679	-0.498628	0.586054
10584		0.014102	-0.773866	-0.633193	0.768565	-0.396692	0.501939	-0.639616	-0.493728	0.589172
10585		0.008992	-0.775706	-0.631031	0.765177	-0.400926	0.503749	-0.643757	-0.487380	0.589947
10586		0.006210	-0.775841	-0.630897	0.756958	-0.408618	0.509946	-0.653434	-0.480730	0.584742
10587		0.004518	-0.775506	-0.631324	0.748255	-0.416205	0.516613	-0.663396	-0.474725	0.578396
10588		0.003233	-0.775036	-0.631909	0.740877	-0.422559	0.522059	-0.671633	-0.469854	0.572841
10589		-0.000052	-0.775595	-0.631231	0.735722	-0.427552	0.525273	-0.677283	-0.464384	0.570644
10590		-0.006379	-0.776836	-0.629670	0.733400	-0.431681	0.525143	-0.679767	-0.458450	0.572486
10591		-0.011432	-0.775686	-0.631015	0.734950	-0.434418	0.520702	-0.678025	-0.457812	0.575057
10592		-0.014113	-0.770291	-0.637537	0.739841	-0.436959	0.511569	-0.672634	-0.464456	0.576059
10593		-0.018093	-0.762155	-0.647141	0.747839	-0.439921	0.497198	-0.663633	-0.474962	0.577929
10594		-0.024950	-0.752980	-0.657570	0.753638	-0.446339	0.482506	-0.656816	-0.483531	0.578611
10595		-0.031570	-0.739446	-0.672476	0.750728	-0.461723	0.472461	-0.659857	-0.489931	0.569699
10596		-0.036331	-0.719698	-0.693336	0.738998	-0.486392	0.466161	-0.672728	-0.495438	0.549526
10597		-0.039750	-0.695888	-0.717049	0.722045	-0.516056	0.460800	-0.690703	-0.499425	0.522976
10598		-0.041419	-0.669592	-0.741573	0.700178	-0.548928	0.456539	-0.712766	-0.500324	0.491570
10599		-0.040482	-0.640679	-0.766741	0.672704	-0.584877	0.453198	-0.738803	-0.497444	0.454664
10600		-0.038146	-0.609334	-0.791995	0.641497	-0.622625	0.448129	-0.766177	-0.490968	0.414637
10601		-0.034767	-0.576808	-0.816139	0.607993	-0.660337	0.440795	-0.793181	-0.480882	0.373653
10602		-0.027625	-0.541475	-0.840263	0.571833	-0.698022	0.431013	-0.819905	-0.468584	0.328916
10603		-0.016042	-0.503719	-0.863719	0.533826	-0.734727	0.418576	-0.845442	-0.454360	0.280684
10604		-0.003151	-0.465056	-0.885276	0.495476	-0.769698	0.402577	-0.868616	-0.437364	0.232850
10605		0.008780	-0.427010	-0.904204	0.458473	-0.801878	0.383138	-0.888665	-0.417917	0.188732
10606		0.017721	-0.390943	-0.920244	0.426956	-0.829294	0.360527	-0.904099	-0.399292	0.152219
10607		0.023175	-0.357745	-0.933532	0.401912	-0.851666	0.336350	-0.915385	-0.382993	0.124044
10608		0.027264	-0.326499	-0.944804	0.383474	-0.869428	0.311517	-0.923149	-0.370801	0.101500
10609		0.031100	-0.297433	-0.954236	0.369026	-0.883830	0.287515	-0.928899	-0.361079	0.082274
10610		0.035572	-0.271310	-0.961834	0.356899	-0.895528	0.265806	-0.933465	-0.352733	0.064974
10611		0.041243	-0.246470	-0.968272	0.347478	-0.905066	0.245182	-0.936781	-0.346565	0.048315
10612		0.046614	-0.220790	-0.974207	0.340271	-0.913430	0.223297	-0.939171	-0.341903	0.032549
10613		0.051548	-0.193652	-0.979715	0.331296	-0.922150	0.199705	-0.942118	-0.334870	0.016621
10614		0.059204	-0.165206	-0.984480	0.322722	-0.930084	0.175485	-0.944640	-0.328103	-0.001749
10615		0.070895	-0.135618	-0.988222	0.314325	-0.937202	0.151166	-0.946664	-0.321340	-0.023814
10616		0.081282	-0.106627	-0.990971	0.307301	-0.943142	0.126687	-0.948135	-0.314824	-0.043894
10617		0.091533	-0.079301	-0.992639	0.301167	-0.947938	0.103501	-0.949168	-0.308424	-0.062885
10618		0.102817	-0.054300	-0.993217	0.288510	-0.953957	0.082020	-0.951941	-0.294986	-0.082417
10619		0.113784	-0.033835	-0.992929	0.264664	-0.962273	0.063120	-0.957604	-0.269975	-0.100537
10620		0.127671	-0.016118	-0.991686	0.224215	-0.973515	0.044688	-0.966141	-0.228056	-0.120675
10621		0.151772	0.001600	-0.988414	0.186406	-0.982101	0.027033	-0.970679	-0.188349	-0.149354
10622		0.162884	0.011809	-0.986575	0.191944	-0.981203	0.019945	-0.967794	-0.192616	-0.162089
10623		0.169416	0.017065	-0.985397	0.202986	-0.979017	0.017944	-0.964414	-0.203062	-0.169326
10624		0.182672	0.019080	-0.982989	0.190854	-0.981481	0.016416	-0.964472	-0.190606	-0.182931
10625		0.184118	0.015025	-0.982789	0.191062	-0.981358	0.020791	-0.964156	-0.191601	-0.183556
10626		0.188913	0.003471	-0.981988	0.189871	-0.981252	0.033059	-0.963463	-0.192697	-0.186030
10627		0.193268	-0.013415	-0.981054	0.188858	-0.980699	0.050615	-0.962798	-0.195062	-0.187005
10628		0.198402	-0.030629	-0.979642	0.178681	-0.981631	0.066879	-0.963696	-0.188312	-0.189285
10629		0.208281	-0.044696	-0.977047	0.159778	-0.983981	0.079073	-0.964930	-0.172580	-0.197803
10630		0.222142	-0.057407	-0.973323	0.138596	-0.986269	0.089802	-0.965113	-0.154847	-0.211136
10631		0.234655	-0.072183	-0.969395	0.124174	-0.986844	0.103541	-0.964115	-0.144670	-0.222604
10632		0.242858	-0.092055	-0.965684	0.121266	-0.984797	0.124374	-0.962452	-0.147310	-0.228003
10633		0.245616	-0.115009	-0.962520	0.127118	-0.980541	0.149600	-0.960996	-0.159098	-0.226217
10634		0.247526	-0.137080	-0.959135	0.133788	-0.975621	0.173964	-0.959600	-0.171382	-0.223152
10635		0.248849	-0.156438	-0.955825	0.138605	-0.970960	0.195001	-0.958573	-0.181008	-0.219939
10636		0.251233	-0.171984	-0.952525	0.137520	-0.967763	0.211007	-0.958108	-0.184003	-0.219483
10637		0.255287	-0.182333	-0.949517	0.130713	-0.966533	0.220744	-0.957989	-0.180467	-0.222910
10638		0.259698	-0.186768	-0.947457	0.122846	-0.966759	0.224245	-0.957844	-0.174627	-0.228122
10639		0.263848	-0.185500	-0.946559	0.115080	-0.968270	0.221832	-0.957675	-0.167460	-0.234129
10640		0.267271	-0.179666	-0.946724	0.109023	-0.970519	0.214960	-0.957434	-0.160667	-0.239804
10641		0.270369	-0.170617	-0.947518	0.104098	-0.973221	0.204949	-0.957112	-0.154046	-0.245368
10642		0.273219	-0.159088	-0.948705	0.101311	-0.975986	0.192840	-0.956602	-0.148802	-0.250541
10643		0.276159	-0.145796	-0.949989	0.102131	-0.978379	0.179842	-0.955670	-0.146688	-0.255298
10644		0.278272	-0.131494	-0.951459	0.105473	-0.980411	0.166343	-0.954694	-0.146642	-0.258951
10645		0.278372	-0.116902	-0.953332	0.111751	-0.981882	0.153034	-0.953950	-0.149136	-0.260265
10646		0.275717	-0.102287	-0.955781	0.121300	-0.982671	0.140156	-0.953555	-0.154580	-0.258531
10647		0.270945	-0.087163	-0.958640	0.132023	-0.983116	0.126702	-0.953498	-0.160892	-0.254863
10648		0.264135	-0.070910	-0.961875	0.144247	-0.983173	0.112091	-0.953638	-0.168355	-0.249462
10649		0.255269	-0.052876	-0.965423	0.158067	-0.982787	0.095622	-0.953862	-0.177011	-0.242518
10650		0.245060	-0.032264	-0.968971	0.170943	-0.982350	0.075943	-0.954319	-0.184249	-0.235219
10651		0.234120	-0.008760	-0.972168	0.181412	-0.982003	0.052537	-0.955132	-0.188663	-0.228317
10652		0.221759	0.017353	-0.974947	0.191116	-0.981223	0.026006	-0.956189	-0.192095	-0.220911
10653		0.206674	0.044743	-0.977386	0.204095	-0.978950	-0.001658	-0.956886	-0.199137	-0.211456
10654		0.187311	0.071241	-0.979714	0.222196	-0.974589	-0.028387	-0.956840	-0.212372	-0.198381
10655		0.162509	0.092464	-0.982365	0.248663	-0.967303	-0.049910	-0.954860	-0.236167	-0.180188
10656		0.130189	0.103307	-0.986093	0.283559	-0.956896	-0.062811	-0.950076	-0.271438	-0.153871
10657		0.095902	0.101264	-0.990226	0.318784	-0.945539	-0.065821	-0.942963	-0.309356	-0.122961
10658		0.070534	0.093032	-0.993162	0.341984	-0.937556	-0.063536	-0.937055	-0.335164	-0.097945
10659		0.060118	0.083962	-0.994654	0.342497	-0.937699	-0.058453	-0.937594	-0.337152	-0.085130
10660		0.055690	0.070575	-0.995951	0.334615	-0.941133	-0.047980	-0.940708	-0.330588	-0.076028
10661		0.050574	0.048376	-0.997548	0.337616	-0.940852	-0.028510	-0.939924	-0.335346	-0.063915
10662		0.048338	0.017743	-0.998673	0.353271	-0.935521	0.000478	-0.934271	-0.352826	-0.051489
10663		0.050715	-0.019307	-0.998527	0.368898	-0.928745	0.036694	-0.928085	-0.370215	-0.039979
10664		0.056722	-0.061294	-0.996507	0.372333	-0.924809	0.078077	-0.926364	-0.375461	-0.029635
10665		0.063778	-0.103111	-0.992623	0.369434	-0.921546	0.119465	-0.927066	-0.374328	-0.020682
10666		0.067031	-0.144617	-0.987215	0.370503	-0.915085	0.159208	-0.926409	-0.376438	-0.007758
10667		0.064712	-0.184735	-0.980655	0.382957	-0.902874	0.195354	-0.921497	-0.388191	0.012319
10668		0.061715	-0.223879	-0.972661	0.407330	-0.884022	0.229321	-0.911194	-0.410346	0.036635
10669		0.053024	-0.263750	-0.963133	0.437187	-0.861013	0.259853	-0.897806	-0.434847	0.069654
10670		0.034961	-0.307568	-0.950884	0.474930	-0.832049	0.286592	-0.879329	-0.461623	0.116984
10671		0.009336	-0.352558	-0.935743	0.501142	-0.808133	0.309479	-0.865315	-0.471830	0.169137
10672		-0.013196	-0.393175	-0.919369	0.514906	-0.790842	0.330819	-0.857145	-0.469023	0.212884
10673		-0.034006	-0.429784	-0.902291	0.533536	-0.771210	0.347239	-0.845094	-0.469596	0.255531
10674		-0.054639	-0.464557	-0.883856	0.560968	-0.746562	0.357716	-0.826033	-0.476269	0.301393
10675		-0.072799	-0.496369	-0.865054	0.591207	-0.720015	0.363392	-0.803228	-0.484971	0.345873
10676		-0.089813	-0.525495	-0.846043	0.619670	-0.694513	0.365596	-0.779707	-0.491432	0.388010
10677		-0.106793	-0.551661	-0.827203	0.639404	-0.675218	0.367754	-0.761418	-0.489644	0.424843
10678		-0.122356	-0.575504	-0.808594	0.650237	-0.661993	0.372770	-0.749814	-0.480167	0.455213
10679		-0.135785	-0.597731	-0.790114	0.658466	-0.650323	0.378817	-0.740260	-0.468825	0.481890
10680		-0.146531	-0.619034	-0.771573	0.670218	-0.635808	0.382827	-0.727555	-0.461026	0.508054
10681		-0.155913	-0.640295	-0.752139	0.687966	-0.616788	0.382460	-0.708797	-0.457816	0.536667
10682		-0.166985	-0.663734	-0.729090	0.709533	-0.594349	0.378565	-0.684601	-0.454099	0.570189
10683		-0.176135	-0.687947	-0.704063	0.728772	-0.571940	0.376532	-0.661716	-0.446781	0.602095
10684		-0.178233	-0.707049	-0.684335	0.738016	-0.556046	0.382288	-0.650819	-0.436914	0.620920
10685		-0.178115	-0.721092	-0.669553	0.742775	-0.544824	0.389169	-0.645415	-0.428010	0.632651
10686		-0.184965	-0.734164	-0.653293	0.751282	-0.534177	0.387595	-0.633533	-0.419116	0.650368
10687		-0.197413	-0.745615	-0.636464	0.763921	-0.523887	0.376785	-0.614372	-0.411826	0.673013
10688		-0.207467	-0.752047	-0.625606	0.773687	-0.517500	0.365517	-0.598637	-0.408190	0.689213
10689		-0.211456	-0.753636	-0.622350	0.778910	-0.514579	0.358479	-0.590411	-0.408953	0.695825
10690		-0.211414	-0.753868	-0.622083	0.781248	-0.512802	0.355929	-0.587329	-0.410753	0.697371
10691		-0.209308	-0.755169	-0.621217	0.782483	-0.510345	0.356746	-0.586438	-0.411422	0.697726
10692		-0.204704	-0.757448	-0.619975	0.783507	-0.506444	0.360043	-0.586697	-0.412053	0.697137
10693		-0.196713	-0.760391	-0.618959	0.784124	-0.500996	0.366269	-0.588603	-0.413290	0.694793
10694		-0.186369	-0.764263	-0.617389	0.782612	-0.495380	0.376984	-0.593957	-0.412918	0.690445
10695		-0.175633	-0.769322	-0.614244	0.780472	-0.489098	0.389417	-0.600013	-0.411006	0.686337
10696		-0.166715	-0.775684	-0.608704	0.780643	-0.480960	0.399090	-0.602331	-0.408646	0.685716
10697		-0.159013	-0.782352	-0.602196	0.781367	-0.472563	0.407614	-0.603473	-0.405721	0.686448
10698		-0.150457	-0.788021	-0.596980	0.781921	-0.464361	0.415894	-0.604948	-0.404217	0.686037
10699		-0.140887	-0.792179	-0.593804	0.782222	-0.456723	0.423712	-0.606860	-0.404792	0.684006
10700		-0.131623	-0.794785	-0.592446	0.781920	-0.450596	0.430771	-0.609324	-0.406546	0.680768
10701		-0.123710	-0.795404	-0.593320	0.780249	-0.447395	0.437092	-0.613113	-0.408865	0.675960
10702		-0.117575	-0.794028	-0.596402	0.777817	-0.447010	0.441794	-0.617395	-0.411948	0.670166
10703		-0.112658	-0.790991	-0.601366	0.773936	-0.449419	0.446146	-0.623162	-0.415157	0.662807
10704		-0.108518	-0.786281	-0.608265	0.768652	-0.454384	0.450233	-0.630395	-0.418686	0.653685
10705		-0.104116	-0.779504	-0.617684	0.761755	-0.461803	0.454386	-0.639444	-0.423215	0.641872
10706		-0.099119	-0.770794	-0.629327	0.755434	-0.469937	0.456594	-0.647684	-0.430158	0.628864
10707		-0.095464	-0.761504	-0.641092	0.751485	-0.477491	0.455273	-0.652807	-0.438308	0.617842
10708		-0.094748	-0.751425	-0.652980	0.748943	-0.485925	0.450512	-0.655826	-0.446360	0.608815
10709		-0.095752	-0.739328	-0.666503	0.745911	-0.496668	0.443777	-0.659127	-0.454659	0.599029
10710		-0.097759	-0.724744	-0.682048	0.742478	-0.509466	0.434938	-0.662699	-0.463886	0.587912
10711		-0.100417	-0.707821	-0.699218	0.739186	-0.523478	0.423762	-0.665973	-0.474299	0.575778
10712		-0.102679	-0.687754	-0.718645	0.735860	-0.538636	0.410344	-0.669304	-0.486688	0.561397
10713		-0.104489	-0.664857	-0.739626	0.732284	-0.554648	0.395127	-0.672935	-0.500330	0.544819
10714		-0.105949	-0.639844	-0.761167	0.728866	-0.570677	0.378263	-0.676410	-0.514712	0.526822
10715		-0.105405	-0.611883	-0.783894	0.722661	-0.588640	0.362303	-0.683118	-0.528301	0.504229
10716		-0.102103	-0.580340	-0.807948	0.711462	-0.610260	0.348433	-0.695268	-0.539248	0.475199
10717		-0.098071	-0.546875	-0.831450	0.695846	-0.634973	0.335569	-0.711463	-0.545652	0.442814
10718		-0.095253	-0.513102	-0.853026	0.675185	-0.662980	0.323393	-0.731472	-0.545146	0.409590
10719		-0.090022	-0.476873	-0.874350	0.648553	-0.694326	0.311914	-0.755828	-0.538983	0.371782
10720		-0.081055	-0.437179	-0.895715	0.614439	-0.729513	0.300458	-0.784790	-0.526008	0.327751
10721		-0.068645	-0.395317	-0.915976	0.572960	-0.767245	0.288189	-0.816704	-0.505035	0.279168
10722		-0.054191	-0.353903	-0.933711	0.527329	-0.804198	0.274208	-0.847932	-0.477513	0.230203
10723		-0.038684	-0.315221	-0.948229	0.481901	-0.837182	0.258646	-0.875371	-0.446947	0.184291
10724		-0.023909	-0.281111	-0.959377	0.441581	-0.863930	0.242139	-0.896903	-0.417853	0.144789
10725		-0.005997	-0.250843	-0.968009	0.410911	-0.883141	0.226305	-0.911656	-0.396409	0.108371
10726		0.009814	-0.225516	-0.974190	0.389997	-0.896222	0.211396	-0.920764	-0.382006	0.079155
10727		0.020096	-0.204475	-0.978665	0.377158	-0.904992	0.196827	-0.925931	-0.373067	0.058933
10728		0.027985	-0.183666	-0.982590	0.366111	-0.912790	0.181046	-0.930150	-0.364804	0.041698
10729		0.036056	-0.161997	-0.986132	0.356564	-0.919742	0.164128	-0.933575	-0.357537	0.024600
10730		0.046310	-0.140065	-0.989059	0.345894	-0.926620	0.147419	-0.937130	-0.348937	0.005536
10731		0.054103	-0.119486	-0.991361	0.335069	-0.933078	0.130748	-0.940639	-0.339248	-0.010446
10732		0.059272	-0.098301	-0.993390	0.323404	-0.939577	0.112272	-0.944403	-0.327921	-0.023900
10733		0.067861	-0.074906	-0.994879	0.304971	-0.947891	0.092171	-0.949941	-0.309664	-0.041480
10734		0.078904	-0.050928	-0.995580	0.276303	-0.958450	0.070927	-0.957826	-0.280678	-0.061554
10735		0.094602	-0.026430	-0.995164	0.239626	-0.969652	0.048532	-0.966245	-0.243058	-0.085398
10736		0.119930	-0.002248	-0.992780	0.211605	-0.976961	0.027774	-0.969969	-0.213408	-0.116691
10737		0.137617	0.012922	-0.990401	0.224545	-0.974288	0.018489	-0.964698	-0.224934	-0.136980
10738		0.139763	0.017842	-0.990024	0.245203	-0.969320	0.017147	-0.959345	-0.245153	-0.139850
10739		0.149302	0.017741	-0.988632	0.251732	-0.967577	0.020653	-0.956211	-0.251954	-0.148927
10740		0.146651	0.016136	-0.989057	0.257036	-0.966143	0.022350	-0.955210	-0.257500	-0.145833
10741		0.141438	0.009853	-0.989898	0.263859	-0.964152	0.028104	-0.954135	-0.265169	-0.138968
10742		0.145290	-0.000370	-0.989389	0.267300	-0.962799	0.039612	-0.952597	-0.270219	-0.139786
10743		0.147503	-0.013192	-0.988974	0.264334	-0.963014	0.052271	-0.953085	-0.269130	-0.138560
10744		0.151303	-0.023596	-0.988206	0.251098	-0.966005	0.061511	-0.956063	-0.257443	-0.140235
10745		0.155552	-0.031690	-0.987319	0.233908	-0.969879	0.067983	-0.959735	-0.241517	-0.143454
10746		0.159872	-0.039120	-0.986362	0.223963	-0.971720	0.074839	-0.961396	-0.232873	-0.146590
10747		0.162725	-0.046785	-0.985562	0.216766	-0.972776	0.081968	-0.962566	-0.226975	-0.148153
10748		0.165833	-0.053731	-0.984689	0.204433	-0.974950	0.087628	-0.964731	-0.215835	-0.150695
10749		0.170086	-0.060274	-0.983584	0.190910	-0.977202	0.092896	-0.966760	-0.203577	-0.154701
10750		0.172163	-0.067384	-0.982761	0.177961	-0.979115	0.098309	-0.968860	-0.191818	-0.156575
10751		0.171519	-0.075931	-0.982250	0.168350	-0.980102	0.105162	-0.970690	-0.183399	-0.155323
10752		0.168835	-0.085249	-0.981951	0.164330	-0.979874	0.113324	-0.971849	-0.180497	-0.151428
10753		0.164965	-0.094011	-0.981809	0.163512	-0.979065	0.121222	-0.972651	-0.180535	-0.146140
10754		0.160661	-0.101487	-0.981778	0.162089	-0.978482	0.127671	-0.973609	-0.179648	-0.140754
10755		0.155459	-0.106526	-0.982082	0.159326	-0.978449	0.131353	-0.974909	-0.176891	-0.135136
10756		0.150608	-0.107853	-0.982693	0.151576	-0.979758	0.130762	-0.976904	-0.168646	-0.131212
10757		0.145407	-0.105001	-0.983784	0.134682	-0.982995	0.124823	-0.980162	-0.150648	-0.128793
10758		0.140257	-0.098162	-0.985237	0.109132	-0.987478	0.113922	-0.984082	-0.123499	-0.127788
10759		0.136443	-0.088705	-0.986669	0.082697	-0.991487	0.100574	-0.987190	-0.095317	-0.127946
10760		0.134192	-0.077115	-0.987950	0.059633	-0.994532	0.085728	-0.989159	-0.070418	-0.128860
10761		0.131473	-0.064302	-0.989232	0.042863	-0.996592	0.070477	-0.990393	-0.051667	-0.128269
10762		0.128134	-0.050084	-0.990491	0.033393	-0.997940	0.054780	-0.991194	-0.040095	-0.126198
10763		0.124547	-0.034256	-0.991622	0.029823	-0.998823	0.038251	-0.991765	-0.034337	-0.123379
10764		0.119769	-0.017035	-0.992656	0.035472	-0.999141	0.021426	-0.992168	-0.037778	-0.119062
10765		0.113576	0.000471	-0.993529	0.049221	-0.998775	0.005153	-0.992309	-0.049488	-0.113460
10766		0.106200	0.017759	-0.994186	0.067953	-0.997633	-0.010562	-0.992020	-0.066437	-0.107155
10767		0.097807	0.033844	-0.994630	0.089816	-0.995643	-0.025047	-0.991144	-0.086884	-0.100420
10768		0.089264	0.048412	-0.994831	0.110400	-0.993144	-0.038424	-0.989871	-0.106400	-0.093997
10769		0.080324	0.061020	-0.994899	0.128873	-0.990383	-0.050338	-0.988403	-0.124173	-0.087415
10770		0.071780	0.071573	-0.994849	0.142992	-0.987858	-0.060753	-0.987118	-0.137894	-0.081143
10771		0.062726	0.080119	-0.994810	0.152478	-0.985840	-0.069783	-0.986314	-0.147310	-0.074054
10772		0.052366	0.086363	-0.994887	0.157913	-0.984435	-0.077144	-0.986063	-0.153066	-0.065188
10773		0.039175	0.088735	-0.995285	0.160718	-0.983640	-0.081371	-0.986223	-0.156772	-0.052796
10774		0.022258	0.084912	-0.996140	0.164282	-0.983153	-0.080134	-0.986162	-0.161864	-0.035833
10775		0.007600	0.074022	-0.997228	0.164416	-0.983777	-0.071770	-0.986362	-0.163415	-0.019648
10776		-0.001799	0.055292	-0.998469	0.165229	-0.984730	-0.054829	-0.986254	-0.165075	-0.007364
10777		-0.006775	0.027639	-0.999595	0.175482	-0.984073	-0.028399	-0.984459	-0.175603	0.001817
10778		-0.009494	-0.009197	-0.999913	0.189527	-0.981849	0.007232	-0.981830	-0.189441	0.011065
10779		-0.003879	-0.049018	-0.998790	0.203645	-0.977906	0.047202	-0.979037	-0.203215	0.013776
10780		0.004641	-0.087696	-0.996136	0.230218	-0.969296	0.086406	-0.973128	-0.229729	0.015691
10781		-0.014235	-0.128819	-0.991566	0.252327	-0.960034	0.121101	-0.967537	-0.248475	0.046170
10782		-0.025994	-0.162508	-0.986365	0.263608	-0.952889	0.150045	-0.964280	-0.256113	0.067608
10783		-0.027992	-0.188406	-0.981692	0.258186	-0.950116	0.174984	-0.965690	-0.248561	0.075240
10784		-0.046049	-0.213588	-0.975838	0.265536	-0.944347	0.194164	-0.963001	-0.250179	0.100202
10785		-0.060814	-0.235547	-0.969958	0.267704	-0.940004	0.211488	-0.961580	-0.246800	0.120222
10786		-0.072146	-0.253187	-0.964723	0.267624	-0.936688	0.225815	-0.960818	-0.241892	0.135337
10787		-0.085169	-0.267877	-0.959681	0.265812	-0.934381	0.237225	-0.960255	-0.234890	0.150785
10788		-0.094859	-0.280430	-0.955176	0.263188	-0.932427	0.247614	-0.960070	-0.227902	0.162255
10789		-0.103851	-0.293793	-0.950211	0.266310	-0.928706	0.258039	-0.958276	-0.226253	0.174687
10790		-0.111967	-0.308943	-0.944467	0.275581	-0.922817	0.269191	-0.954735	-0.230137	0.188464
10791		-0.117185	-0.327171	-0.937671	0.289406	-0.914446	0.282899	-0.950006	-0.238216	0.201845
10792		-0.116952	-0.349235	-0.929708	0.303276	-0.903975	0.301418	-0.945698	-0.246707	0.211637
10793		-0.112847	-0.372408	-0.921183	0.324014	-0.890218	0.320198	-0.939298	-0.262342	0.221124
10794		-0.117433	-0.396023	-0.910701	0.347835	-0.875356	0.335801	-0.930172	-0.277339	0.240546
10795		-0.130233	-0.422497	-0.896959	0.363694	-0.861959	0.353205	-0.922370	-0.280220	0.265915
10796		-0.133083	-0.444944	-0.885615	0.367160	-0.852120	0.372942	-0.920588	-0.275530	0.276768
10797		-0.134801	-0.462525	-0.876299	0.362584	-0.846060	0.390788	-0.922151	-0.265053	0.281754
10798		-0.135584	-0.475001	-0.869478	0.353388	-0.843045	0.405454	-0.925599	-0.252290	0.282163
10799		-0.136060	-0.484036	-0.864405	0.343227	-0.841514	0.417193	-0.929346	-0.239924	0.280631
10800		-0.136178	-0.491461	-0.860187	0.336318	-0.839645	0.426481	-0.931851	-0.231219	0.279628
10801		-0.134217	-0.497478	-0.857030	0.331849	-0.837484	0.434162	-0.933736	-0.226133	0.277492
10802		-0.130640	-0.503074	-0.854312	0.329216	-0.834815	0.441250	-0.935174	-0.223608	0.274680
10803		-0.127376	-0.508814	-0.851401	0.331654	-0.830833	0.446903	-0.934763	-0.225445	0.274578
10804		-0.126689	-0.514657	-0.847984	0.342629	-0.824961	0.449495	-0.930890	-0.233597	0.280850
10805		-0.123358	-0.518930	-0.845869	0.352571	-0.819687	0.451450	-0.927619	-0.242540	0.284074
10806		-0.115903	-0.521097	-0.845591	0.359326	-0.815665	0.453403	-0.925987	-0.251292	0.281782
10807		-0.112907	-0.523064	-0.844782	0.367453	-0.811923	0.453607	-0.923163	-0.259202	0.283873
10808		-0.113143	-0.524024	-0.844155	0.379354	-0.808030	0.450753	-0.918308	-0.269234	0.290214
10809		-0.115192	-0.522953	-0.844542	0.389833	-0.805793	0.445788	-0.913653	-0.277879	0.296686
10810		-0.116883	-0.518800	-0.846868	0.392877	-0.807309	0.440341	-0.912133	-0.281247	0.298185
10811		-0.117902	-0.511223	-0.851323	0.387904	-0.812898	0.434427	-0.914128	-0.279012	0.294148
10812		-0.119222	-0.501361	-0.856985	0.380334	-0.820363	0.427024	-0.917132	-0.275030	0.288490
10813		-0.118607	-0.489028	-0.864167	0.373051	-0.828497	0.417642	-0.920198	-0.272843	0.280698
10814		-0.116216	-0.474393	-0.872608	0.368484	-0.836455	0.405663	-0.922341	-0.274397	0.272015
10815		-0.113184	-0.457926	-0.881756	0.365643	-0.844376	0.391579	-0.923848	-0.278087	0.263008
10816		-0.109355	-0.440042	-0.891294	0.361777	-0.852792	0.376647	-0.925829	-0.281261	0.252454
10817		-0.104248	-0.421056	-0.901024	0.355193	-0.861975	0.361713	-0.928962	-0.282330	0.239415
10818		-0.097975	-0.401123	-0.910770	0.346109	-0.871778	0.346717	-0.933065	-0.281255	0.224245
10819		-0.090013	-0.379955	-0.920615	0.333369	-0.882540	0.331645	-0.938490	-0.277052	0.206105
10820		-0.079643	-0.357607	-0.930470	0.318251	-0.893706	0.316237	-0.944655	-0.270937	0.184986
10821		-0.066222	-0.333711	-0.940347	0.297171	-0.906245	0.300681	-0.952525	-0.259532	0.159182
10822		-0.050640	-0.308498	-0.949876	0.268154	-0.920372	0.284620	-0.962044	-0.240300	0.129332
10823		-0.032941	-0.282422	-0.958725	0.233265	-0.934926	0.267396	-0.971855	-0.214828	0.096677
10824		-0.016120	-0.255454	-0.966687	0.200008	-0.948096	0.247206	-0.979662	-0.189360	0.066376
10825		-0.002988	-0.228625	-0.973510	0.175899	-0.958456	0.224550	-0.984404	-0.170568	0.043078
10826		0.004710	-0.201423	-0.979493	0.165836	-0.965783	0.199401	-0.986142	-0.163374	0.028855
10827		0.008240	-0.174144	-0.984686	0.171729	-0.969843	0.172956	-0.985110	-0.170524	0.021914
10828		0.011277	-0.147056	-0.989064	0.190136	-0.970765	0.146503	-0.981693	-0.189709	0.017013
10829		0.015090	-0.120515	-0.992597	0.214857	-0.969129	0.120932	-0.976529	-0.215091	0.011269
10830		0.021202	-0.095670	-0.995187	0.240413	-0.965715	0.097959	-0.970439	-0.241333	0.002525
10831		0.032182	-0.072722	-0.996833	0.265112	-0.961003	0.078667	-0.963680	-0.266804	-0.011648
10832		0.044625	-0.052937	-0.997600	0.290821	-0.954657	0.063667	-0.955736	-0.292964	-0.027206
10833		0.058143	-0.036723	-0.997633	0.313899	-0.947965	0.053189	-0.947674	-0.316249	-0.043590
10834		0.075638	-0.024152	-0.996843	0.323168	-0.945153	0.047421	-0.943314	-0.325734	-0.063684
10835		0.099290	-0.013915	-0.994961	0.314657	-0.948154	0.044661	-0.943998	-0.317505	-0.089763
10836		0.123882	-0.003270	-0.992292	0.299564	-0.953215	0.040540	-0.945999	-0.302277	-0.117107
10837		0.141060	0.005176	-0.989988	0.288570	-0.956777	0.036115	-0.947011	-0.290775	-0.136456
10838		0.154059	0.009659	-0.988015	0.295555	-0.954619	0.036753	-0.942822	-0.297674	-0.149922
10839		0.168467	0.010973	-0.985646	0.288933	-0.956565	0.038735	-0.942410	-0.291311	-0.164320
10840		0.201147	0.013806	-0.979464	0.271417	-0.961537	0.042187	-0.941208	-0.274329	-0.197157
10841		0.204429	0.005551	-0.978866	0.266066	-0.962652	0.050106	-0.942029	-0.270686	-0.198271
10842		0.190013	-0.016985	-0.981635	0.303843	-0.949746	0.075247	-0.933581	-0.312561	-0.175303
10843		0.186361	-0.039607	-0.981683	0.354231	-0.929274	0.104740	-0.916400	-0.367262	-0.159150
10844		0.184926	-0.059556	-0.980946	0.383768	-0.914533	0.127871	-0.904723	-0.400103	-0.146266
10845		0.192588	-0.074885	-0.978418	0.399920	-0.904530	0.147948	-0.896088	-0.419782	-0.144254
10846		0.193167	-0.085000	-0.977477	0.418517	-0.893925	0.160441	-0.887429	-0.440083	-0.137103
10847		0.190023	-0.084534	-0.978134	0.422533	-0.892256	0.159198	-0.886204	-0.443545	-0.133831
10848		0.188167	-0.074766	-0.979287	0.419529	-0.895434	0.148975	-0.888025	-0.438871	-0.137125
10849		0.188770	-0.058871	-0.980255	0.408975	-0.902805	0.132977	-0.892808	-0.426002	-0.146346
10850		0.192174	-0.040534	-0.980523	0.395315	-0.911299	0.115151	-0.898218	-0.409745	-0.159104
10851		0.196208	-0.023684	-0.980276	0.386394	-0.916952	0.099493	-0.901222	-0.398294	-0.170762
10852		0.198495	-0.009929	-0.980052	0.384221	-0.919120	0.087130	-0.901650	-0.393852	-0.178626
10853		0.197320	0.000143	-0.980339	0.386042	-0.919214	0.077567	-0.901131	-0.393757	-0.181435
10854		0.193367	0.007448	-0.981098	0.391299	-0.917586	0.070157	-0.899719	-0.397468	-0.180345
10855		0.189164	0.013168	-0.981857	0.399856	-0.914286	0.064774	-0.896846	-0.404855	-0.178215
10856		0.185811	0.018340	-0.982414	0.411949	-0.909167	0.060942	-0.892061	-0.416028	-0.176488
10857		0.182024	0.023187	-0.983021	0.426878	-0.902463	0.057757	-0.885801	-0.430143	-0.174168
10858		0.177607	0.028423	-0.983691	0.444132	-0.894311	0.054349	-0.878181	-0.446542	-0.171459
10859		0.173543	0.034541	-0.984220	0.460803	-0.886084	0.050155	-0.870370	-0.462236	-0.169690
10860		0.170134	0.041631	-0.984541	0.474815	-0.878940	0.044885	-0.863484	-0.475112	-0.169305
10861		0.167051	0.049473	-0.984706	0.485577	-0.873346	0.038498	-0.858084	-0.484582	-0.169916
10862		0.164167	0.057908	-0.984731	0.491992	-0.870053	0.030857	-0.854982	-0.489545	-0.171324
10863		0.161800	0.066838	-0.984557	0.494261	-0.869029	0.022231	-0.854123	-0.490226	-0.173644
10864		0.159515	0.075985	-0.984267	0.494257	-0.869219	0.012998	-0.854556	-0.488554	-0.176210
10865		0.156934	0.084705	-0.983970	0.492887	-0.870086	0.003710	-0.855824	-0.485568	-0.178296
10866		0.154475	0.093468	-0.983566	0.488672	-0.872446	-0.006159	-0.858684	-0.479689	-0.180446
10867		0.152344	0.102054	-0.983044	0.482643	-0.875669	-0.016110	-0.862465	-0.472005	-0.182659
10868		0.150138	0.110128	-0.982512	0.476243	-0.878937	-0.025744	-0.866401	-0.464049	-0.184410
10869		0.148093	0.117443	-0.981975	0.470423	-0.881766	-0.034513	-0.869926	-0.456832	-0.185832
10870		0.145606	0.123735	-0.981575	0.465696	-0.883931	-0.042345	-0.872884	-0.450949	-0.186328
10871		0.143157	0.129167	-0.981235	0.461952	-0.885541	-0.049174	-0.875275	-0.446244	-0.186440
10872		0.140610	0.133805	-0.980982	0.459699	-0.886369	-0.055008	-0.876872	-0.443222	-0.186143
10873		0.138002	0.137858	-0.980791	0.459203	-0.886305	-0.059965	-0.877547	-0.442107	-0.185616
10874		0.135039	0.141546	-0.980678	0.460493	-0.885326	-0.064373	-0.877332	-0.442903	-0.184734
10875		0.132023	0.144961	-0.980590	0.463307	-0.883566	-0.068240	-0.876308	-0.445305	-0.183813
10876		0.129134	0.148649	-0.980422	0.468460	-0.880562	-0.071806	-0.873996	-0.450016	-0.183347
10877		0.126408	0.152279	-0.980220	0.477376	-0.875539	-0.074455	-0.869559	-0.458522	-0.183369
10878		0.123108	0.155768	-0.980092	0.488254	-0.869313	-0.076833	-0.863975	-0.469076	-0.183074
10879		0.119416	0.159311	-0.979979	0.498379	-0.863296	-0.079612	-0.858695	-0.478895	-0.182489
10880		0.115534	0.163063	-0.979828	0.506588	-0.858176	-0.083085	-0.854413	-0.486770	-0.181754
10881		0.112142	0.167210	-0.979523	0.512474	-0.854268	-0.087157	-0.851349	-0.492206	-0.181490
10882		0.109436	0.171958	-0.979007	0.516863	-0.851140	-0.091723	-0.849044	-0.495975	-0.182024
10883		0.106934	0.177188	-0.978350	0.520791	-0.848191	-0.096693	-0.846961	-0.499176	-0.182979
10884		0.104054	0.182691	-0.977648	0.524632	-0.845185	-0.102100	-0.844946	-0.502282	-0.183791
10885		0.100635	0.188302	-0.976942	0.528531	-0.842035	-0.107855	-0.842928	-0.505490	-0.184261
10886		0.096778	0.193639	-0.976288	0.531589	-0.839326	-0.113778	-0.841455	-0.507973	-0.184165
10887		0.092515	0.198563	-0.975712	0.533428	-0.837316	-0.119820	-0.840771	-0.509387	-0.183383
10888		0.087352	0.202579	-0.975362	0.533651	-0.836281	-0.125900	-0.841182	-0.509505	-0.181158
10889		0.082089	0.205812	-0.975143	0.532916	-0.835879	-0.131557	-0.842177	-0.508869	-0.178296
10890		0.077172	0.208570	-0.974958	0.529994	-0.836850	-0.137074	-0.844483	-0.506144	-0.175122
10891		0.073133	0.210876	-0.974773	0.525188	-0.839036	-0.142109	-0.847838	-0.501547	-0.172111
10892		0.070099	0.213085	-0.974516	0.519727	-0.841652	-0.146649	-0.851452	-0.496202	-0.169745
10893		0.067776	0.215312	-0.974191	0.514925	-0.843887	-0.150689	-0.854552	-0.491422	-0.168064
10894		0.065314	0.217413	-0.973892	0.511852	-0.845097	-0.154334	-0.856587	-0.488408	-0.166480
10895		0.062587	0.219313	-0.973645	0.510223	-0.845471	-0.157644	-0.857762	-0.486910	-0.164814
10896		0.059682	0.221002	-0.973445	0.508999	-0.845619	-0.160775	-0.858696	-0.485887	-0.162958
10897		0.056965	0.222415	-0.973287	0.507766	-0.845825	-0.163569	-0.859610	-0.484884	-0.161117
10898		0.054693	0.223799	-0.973099	0.507019	-0.845794	-0.166024	-0.860198	-0.484299	-0.159729
10899		0.052660	0.225136	-0.972903	0.507864	-0.844892	-0.168024	-0.859826	-0.485254	-0.158831
10900		0.050603	0.226441	-0.972710	0.509425	-0.843580	-0.169879	-0.859026	-0.486926	-0.158042
10901		0.048545	0.227643	-0.972534	0.511009	-0.842264	-0.171643	-0.858203	-0.488641	-0.157216
10902		0.046300	0.228786	-0.972375	0.512418	-0.841030	-0.173483	-0.857487	-0.490231	-0.156174
10903		0.043973	0.229920	-0.972216	0.513815	-0.839787	-0.175362	-0.856773	-0.491828	-0.155064
10904		0.041508	0.231053	-0.972055	0.515314	-0.838462	-0.177294	-0.855996	-0.493554	-0.153867
10905		0.038779	0.231971	-0.971949	0.516730	-0.837186	-0.179191	-0.855270	-0.495287	-0.152331
10906		0.035857	0.232619	-0.971907	0.518059	-0.835981	-0.180973	-0.854593	-0.497016	-0.150486
10907		0.032757	0.232872	-0.971956	0.519581	-0.834708	-0.182477	-0.853793	-0.499032	-0.148338
10908		0.029690	0.232808	-0.972069	0.521400	-0.833315	-0.183652	-0.852796	-0.501384	-0.146127
10909		0.026928	0.232608	-0.972198	0.523817	-0.831618	-0.184464	-0.851405	-0.504287	-0.144238
10910		0.025069	0.232807	-0.972200	0.527661	-0.829081	-0.184929	-0.849085	-0.508357	-0.143627
10911		0.024284	0.233824	-0.971976	0.532772	-0.825716	-0.185328	-0.845910	-0.513341	-0.144627
10912		0.023626	0.234798	-0.971757	0.536505	-0.823177	-0.185854	-0.843567	-0.516961	-0.145418
10913		0.021655	0.234838	-0.971793	0.538452	-0.821741	-0.186578	-0.842378	-0.519224	-0.144244
10914		0.019131	0.234454	-0.971939	0.540012	-0.820550	-0.187306	-0.841440	-0.521276	-0.142306
10915		0.016977	0.234184	-0.972044	0.542711	-0.818666	-0.187754	-0.839748	-0.524351	-0.140992
10916		0.015404	0.234151	-0.972078	0.546673	-0.815993	-0.187891	-0.837204	-0.528515	-0.140573
10917		0.013975	0.234162	-0.972097	0.550900	-0.813132	-0.187950	-0.834454	-0.532902	-0.140364
10918		0.012658	0.234015	-0.972151	0.554095	-0.810948	-0.187995	-0.832357	-0.536285	-0.139932
10919		0.011450	0.233904	-0.972192	0.556236	-0.809435	-0.188194	-0.830945	-0.538614	-0.139374
10920		0.010233	0.233755	-0.972242	0.557801	-0.808293	-0.188466	-0.829911	-0.540389	-0.138660
10921		0.009086	0.233698	-0.972267	0.559065	-0.807335	-0.188830	-0.829074	-0.541844	-0.137988
10922		0.008278	0.233835	-0.972241	0.559877	-0.806674	-0.189248	-0.828535	-0.542768	-0.137597
10923		0.007749	0.234269	-0.972141	0.560631	-0.806027	-0.189770	-0.828029	-0.543542	-0.137585
10924		0.007242	0.234709	-0.972039	0.561218	-0.805491	-0.190313	-0.827637	-0.544147	-0.137557
10925		0.006343	0.234684	-0.972051	0.561150	-0.805425	-0.190793	-0.827690	-0.544256	-0.136802
10926		0.005050	0.234173	-0.972182	0.560624	-0.805703	-0.191161	-0.828055	-0.544064	-0.135352
10927		0.003520	0.233427	-0.972368	0.560413	-0.805791	-0.191410	-0.828205	-0.544254	-0.133652
10928		0.002029	0.232666	-0.972555	0.560544	-0.805662	-0.191571	-0.828122	-0.544771	-0.132054
10929		0.000732	0.231938	-0.972730	0.560772	-0.805487	-0.191639	-0.827970	-0.545339	-0.130653
10930		-0.000443	0.231240	-0.972897	0.561040	-0.805295	-0.191660	-0.827789	-0.545919	-0.129378
10931		-0.001395	0.230592	-0.973049	0.561151	-0.805226	-0.191626	-0.827712	-0.546295	-0.128274
10932		-0.002323	0.229922	-0.973206	0.561060	-0.805298	-0.191593	-0.827772	-0.546472	-0.127130
10933		-0.003142	0.229289	-0.973353	0.560849	-0.805455	-0.191548	-0.827912	-0.546506	-0.126066
10934		-0.003696	0.228890	-0.973445	0.560498	-0.805693	-0.191574	-0.828147	-0.546322	-0.125315
10935		-0.004100	0.228611	-0.973509	0.560224	-0.805876	-0.191604	-0.828331	-0.546169	-0.124769
10936		-0.004437	0.228390	-0.973560	0.560249	-0.805860	-0.191602	-0.828312	-0.546286	-0.124380
10937		-0.004735	0.228194	-0.973604	0.560537	-0.805669	-0.191560	-0.828116	-0.546649	-0.124096
10938		-0.005077	0.227976	-0.973653	0.560830	-0.805475	-0.191523	-0.827916	-0.547026	-0.123766
10939		-0.005403	0.227731	-0.973709	0.561003	-0.805366	-0.191471	-0.827796	-0.547289	-0.123406
10940		-0.005743	0.227420	-0.973780	0.560911	-0.805443	-0.191414	-0.827856	-0.547303	-0.122937
10941		-0.006094	0.226954	-0.973886	0.560497	-0.805763	-0.191282	-0.828134	-0.547026	-0.122297
10942		-0.006478	0.226417	-0.974009	0.559746	-0.806315	-0.191158	-0.828639	-0.546435	-0.121513
10943		-0.006774	0.225816	-0.974146	0.558634	-0.807126	-0.190984	-0.829387	-0.545485	-0.120681
10944		-0.006984	0.225224	-0.974282	0.557288	-0.808099	-0.190803	-0.830290	-0.544288	-0.119870
10945		-0.007015	0.224653	-0.974414	0.555873	-0.809133	-0.190549	-0.831238	-0.542987	-0.119203
10946		-0.006926	0.224118	-0.974537	0.554485	-0.810154	-0.190254	-0.832165	-0.541684	-0.118659
10947		-0.006787	0.223526	-0.974674	0.552967	-0.811273	-0.189903	-0.833175	-0.540252	-0.118096
10948		-0.006708	0.222911	-0.974816	0.551395	-0.812421	-0.189570	-0.834218	-0.538780	-0.117462
10949		-0.006546	0.222316	-0.974953	0.549816	-0.813574	-0.189209	-0.835260	-0.537283	-0.116907
10950		-0.006526	0.221781	-0.975075	0.547958	-0.814873	-0.189011	-0.836481	-0.535533	-0.116208
10951		-0.006446	0.221294	-0.975186	0.545653	-0.816448	-0.188879	-0.837987	-0.533330	-0.115487
10952		-0.006391	0.220875	-0.975281	0.542905	-0.818278	-0.188876	-0.839770	-0.530692	-0.114685
10953		-0.006309	0.220482	-0.975371	0.539928	-0.820239	-0.188907	-0.841688	-0.527822	-0.113869
10954		-0.006252	0.220119	-0.975453	0.537063	-0.822106	-0.188958	-0.843519	-0.525061	-0.113078
10955		-0.006239	0.219642	-0.975561	0.534552	-0.823758	-0.188883	-0.845112	-0.522666	-0.112271
10956		-0.006291	0.219195	-0.975661	0.532388	-0.825173	-0.188819	-0.846477	-0.520618	-0.111505
10957		-0.006222	0.218756	-0.975760	0.530464	-0.826447	-0.188664	-0.847685	-0.518779	-0.110900
10958		-0.005996	0.218402	-0.975841	0.528706	-0.827615	-0.188476	-0.848784	-0.517063	-0.110508
10959		-0.005662	0.218166	-0.975895	0.527171	-0.828633	-0.188303	-0.849740	-0.515530	-0.110319
10960		-0.005325	0.217994	-0.975936	0.525867	-0.829495	-0.188153	-0.850550	-0.514214	-0.110219
10961		-0.004997	0.217850	-0.975970	0.524758	-0.830231	-0.188006	-0.851237	-0.513087	-0.110170
10962		-0.004776	0.217754	-0.975992	0.523806	-0.830848	-0.187934	-0.851825	-0.512127	-0.110093
10963		-0.004633	0.217634	-0.976020	0.522797	-0.831494	-0.187889	-0.852445	-0.511130	-0.109926
10964		-0.004588	0.217556	-0.976037	0.521788	-0.832117	-0.187930	-0.853063	-0.510147	-0.109701
10965		-0.004597	0.217516	-0.976046	0.520776	-0.832729	-0.188030	-0.853681	-0.509166	-0.109449
10966		-0.004726	0.217465	-0.976057	0.519892	-0.833251	-0.188165	-0.854219	-0.508333	-0.109120
10967		-0.004994	0.217394	-0.976071	0.519046	-0.833736	-0.188349	-0.854732	-0.507566	-0.108674
10968		-0.005410	0.217279	-0.976095	0.518215	-0.834204	-0.188566	-0.855234	-0.506847	-0.108084
10969		-0.005857	0.217130	-0.976125	0.517498	-0.834606	-0.188755	-0.855664	-0.506248	-0.107476
10970		-0.006292	0.216976	-0.976157	0.516880	-0.834951	-0.188922	-0.856035	-0.505745	-0.106897
10971		-0.006626	0.216841	-0.976184	0.516227	-0.835325	-0.189056	-0.856426	-0.505185	-0.106405
10972		-0.006887	0.216758	-0.976201	0.515597	-0.835683	-0.189194	-0.856804	-0.504629	-0.106004
10973		-0.006914	0.216792	-0.976193	0.514899	-0.836084	-0.189323	-0.857223	-0.503950	-0.105845
10974		-0.006846	0.216895	-0.976171	0.514003	-0.836598	-0.189488	-0.857761	-0.503052	-0.105757
10975		-0.006668	0.217073	-0.976133	0.512928	-0.837212	-0.189684	-0.858406	-0.501951	-0.105761
10976		-0.006479	0.217223	-0.976101	0.511773	-0.837879	-0.189860	-0.859097	-0.500772	-0.105740
10977		-0.006314	0.217291	-0.976086	0.510565	-0.838588	-0.189985	-0.859816	-0.499555	-0.105646
10978		-0.006274	0.217296	-0.976086	0.509306	-0.839322	-0.190123	-0.860563	-0.498319	-0.105405
10979		-0.006231	0.217259	-0.976094	0.507965	-0.840109	-0.190234	-0.861355	-0.497007	-0.105125
10980		-0.006233	0.217241	-0.976098	0.506614	-0.840890	-0.190384	-0.862150	-0.495692	-0.104816
10981		-0.006263	0.217225	-0.976101	0.505342	-0.841620	-0.190539	-0.862896	-0.494458	-0.104502
10982		-0.006438	0.217241	-0.976097	0.504298	-0.842195	-0.190765	-0.863506	-0.493472	-0.104132
10983		-0.006690	0.217231	-0.976097	0.503358	-0.842705	-0.190995	-0.864052	-0.492604	-0.103707
10984		-0.007028	0.217228	-0.976095	0.502467	-0.843175	-0.191265	-0.864568	-0.491800	-0.103224
10985		-0.007324	0.217282	-0.976081	0.501523	-0.843668	-0.191569	-0.865114	-0.490930	-0.102793
10986		-0.007545	0.217425	-0.976048	0.500618	-0.844128	-0.191909	-0.865635	-0.490075	-0.102478
10987		-0.007686	0.217563	-0.976016	0.499698	-0.844606	-0.192206	-0.866166	-0.489191	-0.102224
10988		-0.007819	0.217721	-0.975980	0.498807	-0.845062	-0.192512	-0.866678	-0.488331	-0.101993
10989		-0.007925	0.217861	-0.975948	0.497956	-0.845502	-0.192785	-0.867166	-0.487506	-0.101784
10990		-0.008049	0.217973	-0.975922	0.497109	-0.845942	-0.193042	-0.867651	-0.486693	-0.101547
10991		-0.008161	0.218026	-0.975909	0.496363	-0.846337	-0.193230	-0.868077	-0.485982	-0.101314
10992		-0.008208	0.218067	-0.975899	0.495781	-0.846649	-0.193355	-0.868409	-0.485419	-0.101164
10993		-0.008165	0.218123	-0.975887	0.495327	-0.846896	-0.193436	-0.868668	-0.484963	-0.101128
10994		-0.008083	0.218184	-0.975874	0.495001	-0.847075	-0.193488	-0.868855	-0.484623	-0.101154
10995		-0.007944	0.218245	-0.975862	0.494815	-0.847182	-0.193495	-0.868962	-0.484409	-0.101261
10996		-0.007806	0.218351	-0.975839	0.494747	-0.847214	-0.193528	-0.869002	-0.484304	-0.101415
10997		-0.007676	0.218490	-0.975809	0.494642	-0.847259	-0.193598	-0.869063	-0.484163	-0.101571
10998		-0.007597	0.218663	-0.975771	0.494652	-0.847229	-0.193709	-0.869058	-0.484139	-0.101726
10999		-0.007544	0.218824	-0.975735	0.494649	-0.847204	-0.193823	-0.869060	-0.484108	-0.101850
11000		-0.007615	0.218942	-0.975708	0.494625	-0.847186	-0.193963	-0.869073	-0.484086	-0.101843
11001		-0.007666	0.219074	-0.975678	0.494494	-0.847227	-0.194117	-0.869147	-0.483955	-0.101836
11002		-0.007668	0.219248	-0.975639	0.494437	-0.847224	-0.194276	-0.869180	-0.483882	-0.101908
11003		-0.007619	0.219441	-0.975596	0.494466	-0.847175	-0.194416	-0.869164	-0.483880	-0.102052
11004		-0.007558	0.219661	-0.975547	0.494634	-0.847044	-0.194559	-0.869069	-0.484009	-0.102250
11005		-0.007499	0.219953	-0.975482	0.494922	-0.846832	-0.194749	-0.868905	-0.484248	-0.102509
11006		-0.007436	0.220242	-0.975417	0.495293	-0.846575	-0.194926	-0.868694	-0.484567	-0.102789
11007		-0.007383	0.220633	-0.975329	0.495839	-0.846198	-0.195175	-0.868383	-0.485047	-0.103150
11008		-0.007344	0.221068	-0.975231	0.496481	-0.845756	-0.195457	-0.868016	-0.485619	-0.103544
11009		-0.007325	0.221570	-0.975117	0.497169	-0.845272	-0.195801	-0.867623	-0.486232	-0.103966
