// Start Time: Unknown
// Update Rate: 100.0Hz
// Filter Profile: human (46.1)
// Option Flags: AHS Disabled ICC Disabled 
// Firmware Version: 4.0.2
PacketCounter	SampleTimeFine	Mat[1][1]	Mat[2][1]	Mat[3][1]	Mat[1][2]	Mat[2][2]	Mat[3][2]	Mat[1][3]	Mat[2][3]	Mat[3][3]
48934		-0.007057	0.222329	-0.974946	0.730519	-0.664634	-0.156853	-0.682855	-0.713324	-0.157725
48935		-0.006835	0.222405	-0.974930	0.730431	-0.664752	-0.156767	-0.682952	-0.713191	-0.157908
48936		-0.006610	0.222452	-0.974921	0.730380	-0.664835	-0.156650	-0.683009	-0.713098	-0.158080
48937		-0.006365	0.222498	-0.974912	0.730360	-0.664889	-0.156511	-0.683032	-0.713034	-0.158272
48938		-0.006124	0.222524	-0.974908	0.730288	-0.665001	-0.156375	-0.683112	-0.712922	-0.158434
48939		-0.005828	0.222519	-0.974911	0.730198	-0.665145	-0.156182	-0.683211	-0.712788	-0.158606
48940		-0.005561	0.222509	-0.974915	0.730059	-0.665336	-0.156017	-0.683361	-0.712613	-0.158745
48941		-0.005234	0.222499	-0.974919	0.729875	-0.665584	-0.155821	-0.683561	-0.712384	-0.158913
48942		-0.004916	0.222513	-0.974917	0.729613	-0.665907	-0.155665	-0.683842	-0.712078	-0.159075
48943		-0.004518	0.222587	-0.974902	0.729335	-0.666251	-0.155497	-0.684141	-0.711733	-0.159330
48944		-0.004177	0.222617	-0.974897	0.728939	-0.666715	-0.155367	-0.684566	-0.711289	-0.159489
48945		-0.003847	0.222613	-0.974899	0.728403	-0.667327	-0.155255	-0.685138	-0.710717	-0.159585
48946		-0.003565	0.222630	-0.974897	0.727861	-0.667933	-0.155192	-0.685716	-0.710142	-0.159662
48947		-0.003279	0.222627	-0.974898	0.727251	-0.668611	-0.155129	-0.686364	-0.709504	-0.159713
48948		-0.003033	0.222647	-0.974894	0.726646	-0.669273	-0.155110	-0.687006	-0.708873	-0.159755
48949		-0.002861	0.222722	-0.974878	0.726038	-0.669916	-0.155181	-0.687649	-0.708242	-0.159788
48950		-0.002677	0.222743	-0.974873	0.725445	-0.670553	-0.155203	-0.688275	-0.707632	-0.159793
48951		-0.002514	0.222818	-0.974857	0.724908	-0.671120	-0.155264	-0.688841	-0.707072	-0.159836
48952		-0.002406	0.222908	-0.974837	0.724524	-0.671517	-0.155339	-0.689245	-0.706666	-0.159886
48953		-0.002349	0.223015	-0.974812	0.724284	-0.671755	-0.155427	-0.689498	-0.706406	-0.159948
48954		-0.002302	0.223116	-0.974789	0.724195	-0.671838	-0.155485	-0.689592	-0.706295	-0.160033
48955		-0.002251	0.223239	-0.974761	0.724244	-0.671777	-0.155522	-0.689540	-0.706315	-0.160168
48956		-0.002185	0.223382	-0.974729	0.724459	-0.671544	-0.155524	-0.689315	-0.706491	-0.160364
48957		-0.002032	0.223570	-0.974686	0.724808	-0.671181	-0.155465	-0.688948	-0.706776	-0.160682
48958		-0.002000	0.223665	-0.974664	0.725248	-0.670720	-0.155405	-0.688485	-0.707184	-0.160871
48959		-0.001912	0.223797	-0.974634	0.725817	-0.670128	-0.155300	-0.687885	-0.707703	-0.161154
48960		-0.001836	0.223902	-0.974610	0.726589	-0.669328	-0.155137	-0.687070	-0.708426	-0.161456
48961		-0.001821	0.224033	-0.974580	0.727463	-0.668408	-0.155011	-0.686145	-0.709253	-0.161758
48962		-0.001754	0.224206	-0.974540	0.728202	-0.667627	-0.154908	-0.685360	-0.709934	-0.162096
48963		-0.001698	0.224439	-0.974487	0.728727	-0.667055	-0.154903	-0.684802	-0.710398	-0.162422
48964		-0.001593	0.224666	-0.974435	0.729160	-0.666587	-0.154880	-0.684342	-0.710765	-0.162755
48965		-0.001523	0.224874	-0.974387	0.729659	-0.666046	-0.154855	-0.683810	-0.711206	-0.163067
48966		-0.001506	0.225092	-0.974336	0.730214	-0.665437	-0.154859	-0.683217	-0.711707	-0.163363
48967		-0.001499	0.225328	-0.974282	0.730844	-0.664744	-0.154864	-0.682543	-0.712280	-0.163683
48968		-0.001455	0.225602	-0.974218	0.731415	-0.664111	-0.154882	-0.681931	-0.712783	-0.164042
48969		-0.001359	0.225890	-0.974152	0.732058	-0.663408	-0.154855	-0.681241	-0.713347	-0.164463
48970		-0.001373	0.226137	-0.974095	0.732712	-0.662682	-0.154875	-0.680538	-0.713943	-0.164783
48971		-0.001354	0.226339	-0.974048	0.733322	-0.662012	-0.154851	-0.679880	-0.714500	-0.165083
48972		-0.001386	0.226542	-0.974000	0.733962	-0.661301	-0.154856	-0.679189	-0.715094	-0.165357
48973		-0.001431	0.226733	-0.973956	0.734626	-0.660564	-0.154856	-0.678471	-0.715715	-0.165619
48974		-0.001430	0.226960	-0.973903	0.735256	-0.659862	-0.154855	-0.677788	-0.716290	-0.165930
48975		-0.001404	0.227168	-0.973855	0.735782	-0.659277	-0.154848	-0.677217	-0.716762	-0.166221
48976		-0.001397	0.227445	-0.973790	0.736240	-0.658750	-0.154918	-0.676719	-0.717160	-0.166533
48977		-0.001439	0.227701	-0.973730	0.736606	-0.658314	-0.155031	-0.676321	-0.717478	-0.166779
48978		-0.001471	0.228007	-0.973658	0.736885	-0.657964	-0.155192	-0.676017	-0.717702	-0.167047
48979		-0.001467	0.228333	-0.973582	0.737129	-0.657652	-0.155349	-0.675750	-0.717884	-0.167347
48980		-0.001500	0.228708	-0.973494	0.737368	-0.657333	-0.155567	-0.675489	-0.718057	-0.167656
48981		-0.001553	0.229104	-0.973401	0.737690	-0.656919	-0.155792	-0.675138	-0.718310	-0.167987
48982		-0.001725	0.229477	-0.973313	0.738140	-0.656351	-0.156055	-0.674646	-0.718710	-0.168254
48983		-0.001937	0.229809	-0.973234	0.738617	-0.655752	-0.156312	-0.674122	-0.719150	-0.168471
48984		-0.002174	0.230244	-0.973130	0.739073	-0.655155	-0.156662	-0.673621	-0.719555	-0.168743
48985		-0.002487	0.230774	-0.973004	0.739600	-0.654453	-0.157112	-0.673042	-0.720024	-0.169053
48986		-0.002800	0.231295	-0.972880	0.740240	-0.653629	-0.157526	-0.672337	-0.720605	-0.169384
48987		-0.003199	0.231795	-0.972759	0.741032	-0.652628	-0.157949	-0.671462	-0.721351	-0.169680
48988		-0.003664	0.232294	-0.972639	0.742027	-0.651395	-0.158367	-0.670360	-0.722305	-0.169982
48989		-0.004155	0.232730	-0.972532	0.743115	-0.650063	-0.158737	-0.669151	-0.723363	-0.170244
48990		-0.004729	0.233198	-0.972418	0.744217	-0.648692	-0.159184	-0.667921	-0.724442	-0.170482
48991		-0.005268	0.233677	-0.972300	0.745167	-0.647486	-0.159650	-0.666857	-0.725367	-0.170718
48992		-0.005743	0.234210	-0.972169	0.745943	-0.646468	-0.160150	-0.665985	-0.726103	-0.170994
48993		-0.006183	0.234730	-0.972041	0.746595	-0.645591	-0.160647	-0.665250	-0.726714	-0.171257
48994		-0.006555	0.235298	-0.971901	0.747188	-0.644782	-0.161141	-0.664580	-0.727249	-0.171585
48995		-0.006855	0.235859	-0.971763	0.747657	-0.644121	-0.161610	-0.664050	-0.727653	-0.171926
48996		-0.007113	0.236382	-0.971634	0.748038	-0.643568	-0.162045	-0.663617	-0.727972	-0.172245
48997		-0.007286	0.236947	-0.971495	0.748312	-0.643142	-0.162474	-0.663307	-0.728166	-0.172624
48998		-0.007468	0.237406	-0.971382	0.748467	-0.642861	-0.162870	-0.663130	-0.728263	-0.172890
48999		-0.007501	0.237863	-0.971270	0.748541	-0.642697	-0.163177	-0.663046	-0.728259	-0.173229
49000		-0.007433	0.238348	-0.971151	0.748640	-0.642520	-0.163422	-0.662935	-0.728257	-0.173661
49001		-0.007295	0.238832	-0.971034	0.748670	-0.642431	-0.163634	-0.662903	-0.728177	-0.174119
49002		-0.007040	0.239338	-0.970911	0.748523	-0.642554	-0.163822	-0.663071	-0.727902	-0.174627
49003		-0.006685	0.239885	-0.970778	0.748305	-0.642767	-0.163984	-0.663321	-0.727534	-0.175210
49004		-0.006234	0.240467	-0.970637	0.747993	-0.643094	-0.164125	-0.663677	-0.727053	-0.175858
49005		-0.005783	0.240975	-0.970514	0.747668	-0.643447	-0.164221	-0.664047	-0.726572	-0.176448
49006		-0.005365	0.241325	-0.970430	0.747646	-0.643489	-0.164156	-0.664076	-0.726419	-0.176973
49007		-0.004700	0.241791	-0.970317	0.748033	-0.643110	-0.163878	-0.663645	-0.726599	-0.177845
49008		-0.003940	0.242348	-0.970182	0.748165	-0.643013	-0.163660	-0.663502	-0.726500	-0.178782
49009		-0.002970	0.242924	-0.970041	0.748267	-0.642982	-0.163311	-0.663390	-0.726335	-0.179863
49010		-0.001942	0.243509	-0.969897	0.748161	-0.643189	-0.162981	-0.663515	-0.725955	-0.180935
49011		-0.000830	0.244016	-0.969771	0.747798	-0.643705	-0.162610	-0.663926	-0.725328	-0.181940
49012		0.000312	0.244446	-0.969663	0.747418	-0.644256	-0.162172	-0.664354	-0.724693	-0.182904
49013		0.001760	0.244877	-0.969553	0.747037	-0.644863	-0.161515	-0.664780	-0.724008	-0.184067
49014		0.003361	0.245411	-0.969413	0.746579	-0.645562	-0.160838	-0.665288	-0.723203	-0.185388
49015		0.005483	0.246127	-0.969222	0.745762	-0.646712	-0.160009	-0.666190	-0.721932	-0.187098
49016		0.008004	0.246996	-0.968983	0.744462	-0.648423	-0.159135	-0.667617	-0.720097	-0.189069
49017		0.010794	0.247748	-0.968764	0.742861	-0.650513	-0.158082	-0.669359	-0.717951	-0.191064
49018		0.013589	0.248235	-0.968605	0.741291	-0.652599	-0.156849	-0.671046	-0.715886	-0.192882
49019		0.016614	0.248501	-0.968489	0.740619	-0.653792	-0.155048	-0.671720	-0.714705	-0.194907
49020		0.019687	0.248603	-0.968405	0.741061	-0.653825	-0.152781	-0.671149	-0.714639	-0.197102
49021		0.022709	0.248482	-0.968370	0.742681	-0.652619	-0.150044	-0.669260	-0.715783	-0.199363
49022		0.025668	0.248534	-0.968283	0.745352	-0.650231	-0.147139	-0.666177	-0.717935	-0.201936
49023		0.028654	0.248785	-0.968135	0.748688	-0.647067	-0.144120	-0.662303	-0.720701	-0.204803
49024		0.031679	0.249362	-0.967892	0.751481	-0.644418	-0.141428	-0.658994	-0.722872	-0.207805
49025		0.034703	0.249731	-0.967693	0.752973	-0.643206	-0.138988	-0.657136	-0.723823	-0.210362
49026		0.037558	0.249881	-0.967548	0.752654	-0.643984	-0.137101	-0.657345	-0.723079	-0.212260
49027		0.040232	0.249680	-0.967492	0.750977	-0.646265	-0.135553	-0.659102	-0.721111	-0.213504
49028		0.042598	0.249569	-0.967420	0.749176	-0.648606	-0.134335	-0.661000	-0.719045	-0.214601
49029		0.044661	0.249484	-0.967349	0.747986	-0.650219	-0.133161	-0.662210	-0.717616	-0.215650
49030		0.046428	0.249795	-0.967185	0.747533	-0.650929	-0.132231	-0.662600	-0.716864	-0.216952
49031		0.048006	0.250268	-0.966986	0.747539	-0.651092	-0.131399	-0.662481	-0.716551	-0.218342
49032		0.049332	0.250785	-0.966785	0.747679	-0.651064	-0.130735	-0.662225	-0.716395	-0.219625
49033		0.050280	0.251291	-0.966605	0.748173	-0.650600	-0.130221	-0.661596	-0.716640	-0.220721
49034		0.051030	0.252029	-0.966373	0.748535	-0.650217	-0.130049	-0.661129	-0.716728	-0.221833
49035		0.051610	0.252813	-0.966138	0.748545	-0.650186	-0.130150	-0.661073	-0.716480	-0.222797
49036		0.051932	0.253674	-0.965895	0.748403	-0.650271	-0.130543	-0.661208	-0.716099	-0.223620
49037		0.052195	0.254488	-0.965666	0.748419	-0.650181	-0.130893	-0.661169	-0.715891	-0.224400
49038		0.052407	0.255394	-0.965416	0.748470	-0.650035	-0.131332	-0.661095	-0.715702	-0.225220
49039		0.052488	0.256200	-0.965198	0.748140	-0.650293	-0.131929	-0.661462	-0.715178	-0.225806
49040		0.052511	0.257053	-0.964969	0.747506	-0.650864	-0.132703	-0.662176	-0.714352	-0.226327
49041		0.052482	0.257885	-0.964749	0.746706	-0.651607	-0.133559	-0.663080	-0.713375	-0.226762
49042		0.052295	0.258902	-0.964487	0.745832	-0.652377	-0.134681	-0.664078	-0.712302	-0.227214
49043		0.052009	0.259877	-0.964240	0.744982	-0.653107	-0.135839	-0.665054	-0.711277	-0.227571
49044		0.051730	0.261028	-0.963944	0.744341	-0.653587	-0.137041	-0.665793	-0.710414	-0.228104
49045		0.051432	0.262016	-0.963692	0.744863	-0.652844	-0.137747	-0.665233	-0.710734	-0.228743
49046		0.051165	0.263137	-0.963401	0.746295	-0.651109	-0.138205	-0.663646	-0.711910	-0.229692
49047		0.050878	0.264102	-0.963152	0.748056	-0.649033	-0.138453	-0.661683	-0.713447	-0.230585
49048		0.050533	0.264981	-0.962929	0.749704	-0.647071	-0.138719	-0.659842	-0.714901	-0.231356
49049		0.050177	0.265649	-0.962763	0.751196	-0.645299	-0.138903	-0.658169	-0.716254	-0.231933
49050		0.049837	0.266384	-0.962578	0.752208	-0.644036	-0.139285	-0.657038	-0.717117	-0.232474
49051		0.049541	0.267136	-0.962385	0.752421	-0.643647	-0.139929	-0.656816	-0.717187	-0.232885
49052		0.049340	0.268036	-0.962145	0.751790	-0.644173	-0.140902	-0.657554	-0.716379	-0.233290
49053		0.049354	0.268988	-0.961878	0.750212	-0.645749	-0.142089	-0.659352	-0.714600	-0.233668
49054		0.049661	0.269993	-0.961581	0.747642	-0.648423	-0.143452	-0.662242	-0.711794	-0.234059
49055		0.050080	0.270832	-0.961323	0.744058	-0.652195	-0.144981	-0.666236	-0.708019	-0.234177
49056		0.050730	0.271687	-0.961048	0.739680	-0.656791	-0.146628	-0.671044	-0.703429	-0.234280
49057		0.051502	0.272320	-0.960827	0.734486	-0.662218	-0.148318	-0.676667	-0.698075	-0.234121
49058		0.052292	0.272836	-0.960638	0.729078	-0.667796	-0.149977	-0.682430	-0.692538	-0.233839
49059		0.053002	0.272929	-0.960573	0.724201	-0.672808	-0.151206	-0.687549	-0.687633	-0.233316
49060		0.053627	0.273138	-0.960479	0.719619	-0.677424	-0.152465	-0.692295	-0.683003	-0.232883
49061		0.054183	0.273379	-0.960379	0.715536	-0.681476	-0.153618	-0.696471	-0.678863	-0.232537
49062		0.054499	0.274022	-0.960178	0.711844	-0.685001	-0.155086	-0.700220	-0.675045	-0.232393
49063		0.054452	0.274819	-0.959953	0.708938	-0.687654	-0.156650	-0.703165	-0.672017	-0.232274
49064		0.053833	0.275885	-0.959682	0.706780	-0.689437	-0.158549	-0.705382	-0.669749	-0.232104
49065		0.052786	0.277081	-0.959395	0.705324	-0.690453	-0.160602	-0.706917	-0.668207	-0.231878
49066		0.051284	0.278596	-0.959038	0.704343	-0.690884	-0.163035	-0.708005	-0.667130	-0.231659
49067		0.049393	0.280247	-0.958656	0.703743	-0.690861	-0.165702	-0.708736	-0.666463	-0.231346
49068		0.047191	0.282122	-0.958217	0.703353	-0.690540	-0.168672	-0.709273	-0.666005	-0.231018
49069		0.044724	0.283979	-0.957787	0.703255	-0.689889	-0.171710	-0.709529	-0.665889	-0.230564
49070		0.042186	0.285938	-0.957319	0.703736	-0.688653	-0.174680	-0.709208	-0.666330	-0.230277
49071		0.039581	0.287808	-0.956870	0.704496	-0.687143	-0.177538	-0.708604	-0.667084	-0.229957
49072		0.037009	0.289608	-0.956430	0.705562	-0.685348	-0.180222	-0.707681	-0.668151	-0.229701
49073		0.034626	0.291410	-0.955971	0.706754	-0.683451	-0.182738	-0.706612	-0.669309	-0.229621
49074		0.032484	0.293295	-0.955470	0.707916	-0.681595	-0.185157	-0.705549	-0.670378	-0.229770
49075		0.030493	0.295115	-0.954975	0.708349	-0.680459	-0.187663	-0.705204	-0.670733	-0.229793
49076		0.028708	0.297048	-0.954431	0.708065	-0.680010	-0.190342	-0.705564	-0.670335	-0.229851
49077		0.027073	0.298875	-0.953908	0.707117	-0.680231	-0.193059	-0.706578	-0.669298	-0.229755
49078		0.025629	0.300716	-0.953369	0.705598	-0.681013	-0.195840	-0.708149	-0.667676	-0.229638
49079		0.024381	0.302333	-0.952890	0.703638	-0.682278	-0.198470	-0.710140	-0.665651	-0.229368
49080		0.023347	0.303915	-0.952413	0.701274	-0.683952	-0.201059	-0.712510	-0.663208	-0.229096
49081		0.022305	0.305159	-0.952040	0.698500	-0.686054	-0.203537	-0.715263	-0.660460	-0.228456
49082		0.021270	0.306316	-0.951692	0.695494	-0.688364	-0.206016	-0.718217	-0.657514	-0.227683
49083		0.020258	0.307153	-0.951445	0.692333	-0.690863	-0.208289	-0.721294	-0.654497	-0.226648
49084		0.019335	0.307978	-0.951197	0.689574	-0.692991	-0.210359	-0.723957	-0.651854	-0.225772
49085		0.018622	0.308802	-0.950944	0.687002	-0.694973	-0.212227	-0.726417	-0.649348	-0.225089
49086		0.017954	0.309722	-0.950658	0.684752	-0.696639	-0.214031	-0.728555	-0.647122	-0.224590
49087		0.017233	0.310417	-0.950444	0.682926	-0.697955	-0.215571	-0.730285	-0.645368	-0.224020
49088		0.016355	0.311122	-0.950229	0.681414	-0.698952	-0.217121	-0.731716	-0.643948	-0.223434
49089		0.015373	0.311684	-0.950062	0.680045	-0.699828	-0.218586	-0.733010	-0.642724	-0.222717
49090		0.014224	0.312350	-0.949861	0.678770	-0.700557	-0.220205	-0.734213	-0.641605	-0.221979
49091		0.013025	0.312993	-0.949666	0.677192	-0.701541	-0.221928	-0.735691	-0.640215	-0.221094
49092		0.011773	0.313891	-0.949386	0.675557	-0.702494	-0.223885	-0.737214	-0.638728	-0.220322
49093		0.010413	0.314606	-0.949165	0.673980	-0.703410	-0.225755	-0.738676	-0.637368	-0.219362
49094		0.008925	0.315383	-0.948923	0.672667	-0.704050	-0.227670	-0.739892	-0.636276	-0.218431
49095		0.007398	0.315953	-0.948746	0.671337	-0.704738	-0.229458	-0.741115	-0.635231	-0.217325
49096		0.005811	0.316649	-0.948525	0.670173	-0.705236	-0.231325	-0.742183	-0.634331	-0.216307
49097		0.004236	0.317153	-0.948365	0.669024	-0.705763	-0.233034	-0.743228	-0.633492	-0.215173
49098		0.002633	0.317888	-0.948125	0.668077	-0.706051	-0.234871	-0.744087	-0.632802	-0.214233
49099		0.000954	0.318603	-0.947888	0.667299	-0.706180	-0.236689	-0.744789	-0.632299	-0.213277
49100		-0.001048	0.319535	-0.947574	0.666058	-0.706572	-0.239003	-0.745899	-0.631390	-0.212088
49101		-0.003354	0.320172	-0.947354	0.664560	-0.707183	-0.241356	-0.747228	-0.630383	-0.210401
49102		-0.005959	0.320992	-0.947063	0.662882	-0.707823	-0.244077	-0.748700	-0.629246	-0.208562
49103		-0.008745	0.321649	-0.946819	0.661270	-0.708400	-0.246762	-0.750097	-0.628261	-0.206502
49104		-0.011710	0.322408	-0.946528	0.659624	-0.708927	-0.249637	-0.751505	-0.627276	-0.204366
49105		-0.014775	0.322862	-0.946331	0.657798	-0.709651	-0.252384	-0.753050	-0.626223	-0.201893
49106		-0.018072	0.323234	-0.946147	0.655771	-0.710499	-0.255255	-0.754744	-0.625068	-0.199127
49107		-0.021449	0.323207	-0.946085	0.653882	-0.711311	-0.257826	-0.756292	-0.624158	-0.196082
49108		-0.024810	0.322868	-0.946119	0.652742	-0.711585	-0.259949	-0.757174	-0.624021	-0.193095
49109		-0.027986	0.322038	-0.946313	0.652371	-0.711399	-0.261388	-0.757383	-0.624662	-0.190180
49110		-0.030868	0.320884	-0.946615	0.652683	-0.710802	-0.262232	-0.757002	-0.625934	-0.187495
49111		-0.033381	0.319167	-0.947110	0.653587	-0.709952	-0.262283	-0.756115	-0.627774	-0.184904
49112		-0.035617	0.316960	-0.947770	0.655042	-0.708836	-0.261670	-0.754752	-0.630149	-0.182376
49113		-0.037496	0.313968	-0.948693	0.656922	-0.707652	-0.260159	-0.753026	-0.632972	-0.179719
49114		-0.039092	0.310258	-0.949848	0.658969	-0.706570	-0.257914	-0.751154	-0.636003	-0.176829
49115		-0.040189	0.305503	-0.951343	0.661030	-0.705849	-0.254593	-0.749283	-0.639097	-0.173579
49116		-0.040703	0.299823	-0.953126	0.662861	-0.705670	-0.250288	-0.747635	-0.641978	-0.170018
49117		-0.040504	0.292898	-0.955285	0.664406	-0.706181	-0.244692	-0.746274	-0.644608	-0.166000
49118		-0.039633	0.284651	-0.957812	0.665560	-0.707451	-0.237787	-0.745291	-0.646906	-0.161414
49119		-0.037954	0.274601	-0.960809	0.666093	-0.709789	-0.229171	-0.744903	-0.648686	-0.155971
49120		-0.035578	0.262886	-0.964171	0.665968	-0.713108	-0.219006	-0.745131	-0.649899	-0.149703
49121		-0.032162	0.249299	-0.967892	0.665471	-0.717193	-0.206840	-0.745731	-0.650756	-0.142835
49122		-0.027966	0.234223	-0.971781	0.665270	-0.721232	-0.192980	-0.746079	-0.651893	-0.135652
49123		-0.022613	0.217535	-0.975791	0.665940	-0.724705	-0.176992	-0.745662	-0.653820	-0.128477
49124		-0.016233	0.199743	-0.979714	0.668241	-0.726704	-0.159232	-0.743768	-0.657270	-0.121680
49125		-0.008584	0.180992	-0.983447	0.671779	-0.727451	-0.139743	-0.740702	-0.661858	-0.115342
49126		0.000524	0.162256	-0.986749	0.675932	-0.727255	-0.119227	-0.736964	-0.666913	-0.110056
49127		0.011250	0.143517	-0.989584	0.679512	-0.727126	-0.097729	-0.733578	-0.671335	-0.105702
49128		0.023276	0.125689	-0.991797	0.681601	-0.727742	-0.076229	-0.731353	-0.674236	-0.102609
49129		0.036153	0.108988	-0.993385	0.680619	-0.730541	-0.055380	-0.731745	-0.674115	-0.100590
49130		0.048483	0.094334	-0.994359	0.676280	-0.735724	-0.036823	-0.735047	-0.670680	-0.099467
49131		0.059589	0.080857	-0.994943	0.668157	-0.743740	-0.020425	-0.741630	-0.663561	-0.098344
49132		0.069403	0.068284	-0.995249	0.658848	-0.752255	-0.005668	-0.749068	-0.655325	-0.097197
49133		0.078786	0.055615	-0.995339	0.649673	-0.760161	0.008951	-0.756121	-0.647350	-0.096021
49134		0.087895	0.043255	-0.995190	0.640960	-0.767222	0.023262	-0.762525	-0.639922	-0.095160
49135		0.096961	0.030671	-0.994815	0.633179	-0.773078	0.037879	-0.767908	-0.633569	-0.094378
49136		0.106296	0.018383	-0.994165	0.626987	-0.777247	0.052665	-0.771744	-0.628927	-0.094144
49137		0.116451	0.006139	-0.993178	0.619868	-0.781767	0.067848	-0.776017	-0.623540	-0.094843
49138		0.126775	-0.005814	-0.991914	0.613046	-0.785680	0.082957	-0.779810	-0.618606	-0.096040
49139		0.137502	-0.017540	-0.990346	0.606813	-0.788752	0.098221	-0.782861	-0.614461	-0.097811
49140		0.148315	-0.028986	-0.988515	0.602547	-0.789962	0.113569	-0.784181	-0.612471	-0.099698
49141		0.158458	-0.040688	-0.986527	0.600598	-0.789074	0.129014	-0.783692	-0.612949	-0.100598
49142		0.167926	-0.051967	-0.984429	0.601412	-0.785841	0.144074	-0.781092	-0.616241	-0.100709
49143		0.176534	-0.063142	-0.982267	0.604531	-0.780588	0.158825	-0.776774	-0.621849	-0.099629
49144		0.184491	-0.073445	-0.980086	0.609624	-0.773642	0.172730	-0.770922	-0.629352	-0.097956
49145		0.192028	-0.083011	-0.977872	0.615434	-0.765957	0.185876	-0.764438	-0.637510	-0.095998
49146		0.199784	-0.090896	-0.975615	0.621690	-0.757846	0.197915	-0.757356	-0.646070	-0.094897
49147		0.208038	-0.097213	-0.973278	0.626957	-0.750503	0.208973	-0.750763	-0.653678	-0.095185
49148		0.216119	-0.102345	-0.970988	0.631999	-0.743375	0.219022	-0.744224	-0.660999	-0.095976
49149		0.223232	-0.107454	-0.968824	0.637254	-0.736010	0.228466	-0.737614	-0.668388	-0.095826
49150		0.229034	-0.112558	-0.966889	0.643548	-0.727737	0.237159	-0.730335	-0.676557	-0.094240
49151		0.234213	-0.117345	-0.965077	0.650506	-0.718808	0.245271	-0.722486	-0.685234	-0.092020
49152		0.238767	-0.121379	-0.963461	0.657895	-0.709544	0.252431	-0.714258	-0.694129	-0.089561
49153		0.242898	-0.124682	-0.962006	0.665064	-0.700539	0.258717	-0.706180	-0.702637	-0.087239
49154		0.246238	-0.127262	-0.960818	0.671711	-0.692240	0.263834	-0.698692	-0.710358	-0.084973
49155		0.248696	-0.129592	-0.959873	0.677231	-0.685233	0.267979	-0.692465	-0.716702	-0.082651
49156		0.250505	-0.131489	-0.959144	0.680301	-0.680979	0.271033	-0.688795	-0.720402	-0.081136
49157		0.251851	-0.132976	-0.958587	0.681851	-0.678530	0.273270	-0.686768	-0.722436	-0.080219
49158		0.252657	-0.133757	-0.958266	0.683844	-0.675960	0.274655	-0.684486	-0.724698	-0.079317
49159		0.252655	-0.134005	-0.958232	0.685558	-0.674071	0.275025	-0.682771	-0.726410	-0.078439
49160		0.251702	-0.133471	-0.958557	0.687343	-0.672611	0.274141	-0.681326	-0.727860	-0.077558
49161		0.249898	-0.132119	-0.959216	0.689795	-0.670921	0.272117	-0.679510	-0.729664	-0.076527
49162		0.247131	-0.130148	-0.960202	0.693202	-0.668646	0.269042	-0.677050	-0.732103	-0.075025
49163		0.243043	-0.128206	-0.961506	0.696786	-0.666530	0.265003	-0.674847	-0.734371	-0.072663
49164		0.237884	-0.126097	-0.963074	0.700920	-0.664129	0.260086	-0.672401	-0.736907	-0.069601
49165		0.232496	-0.123316	-0.964748	0.704157	-0.662894	0.254428	-0.670901	-0.738488	-0.067286
49166		0.227723	-0.118911	-0.966438	0.706109	-0.663259	0.247989	-0.670487	-0.738883	-0.067075
49167		0.223324	-0.113790	-0.968080	0.706999	-0.664799	0.241238	-0.671029	-0.738305	-0.068016
49168		0.218638	-0.108753	-0.969727	0.708066	-0.666126	0.234347	-0.671447	-0.737868	-0.068636
49169		0.214320	-0.103813	-0.971231	0.709214	-0.667171	0.227814	-0.671627	-0.737635	-0.069363
49170		0.210431	-0.098402	-0.972644	0.712215	-0.666107	0.221477	-0.669678	-0.739337	-0.070086
49171		0.206539	-0.092977	-0.974011	0.717751	-0.662143	0.215406	-0.664963	-0.743587	-0.070024
49172		0.202300	-0.088126	-0.975350	0.725386	-0.655625	0.209692	-0.657943	-0.749927	-0.068708
49173		0.197929	-0.083991	-0.976611	0.734777	-0.646735	0.204537	-0.648788	-0.758076	-0.066293
49174		0.193828	-0.080949	-0.977690	0.744937	-0.636333	0.200371	-0.638356	-0.767155	-0.063037
49175		0.190836	-0.078764	-0.978457	0.754646	-0.625686	0.197551	-0.627767	-0.776088	-0.059965
49176		0.189422	-0.076483	-0.978913	0.763162	-0.615833	0.195789	-0.617821	-0.784156	-0.058284
49177		0.189106	-0.074588	-0.979120	0.769945	-0.607588	0.194992	-0.609446	-0.790742	-0.057470
49178		0.189561	-0.072656	-0.979177	0.774896	-0.601376	0.194637	-0.602995	-0.795656	-0.057696
49179		0.190748	-0.070215	-0.979125	0.777701	-0.597828	0.194379	-0.598997	-0.798543	-0.059429
49180		0.192339	-0.066905	-0.979045	0.778422	-0.597100	0.193729	-0.597549	-0.799372	-0.062765
49181		0.194018	-0.062983	-0.978974	0.777257	-0.598987	0.192577	-0.598522	-0.798278	-0.067260
49182		0.195828	-0.058177	-0.978911	0.774099	-0.603649	0.190731	-0.602015	-0.795125	-0.073176
49183		0.197590	-0.052449	-0.978881	0.770460	-0.609089	0.188155	-0.606094	-0.791365	-0.079940
49184		0.198968	-0.045708	-0.978939	0.767404	-0.614002	0.184643	-0.609510	-0.787980	-0.087090
49185		0.199704	-0.038025	-0.979118	0.766871	-0.615945	0.180334	-0.609941	-0.786871	-0.093846
49186		0.199176	-0.029568	-0.979518	0.770016	-0.613528	0.175096	-0.606139	-0.789119	-0.099433
49187		0.196731	-0.021373	-0.980225	0.774436	-0.609738	0.168724	-0.601287	-0.792315	-0.103402
49188		0.192296	-0.013745	-0.981241	0.777660	-0.607744	0.160913	-0.598555	-0.794014	-0.106178
49189		0.186848	-0.006784	-0.982365	0.779173	-0.608000	0.152400	-0.598312	-0.793908	-0.108318
49190		0.181250	-0.000165	-0.983437	0.779868	-0.609195	0.143834	-0.599129	-0.793021	-0.110288
49191		0.176725	0.005330	-0.984246	0.780389	-0.610143	0.136818	-0.599801	-0.792274	-0.111987
49192		0.175202	0.010855	-0.984473	0.781649	-0.609507	0.132386	-0.598606	-0.792707	-0.115271
49193		0.177227	0.016739	-0.984028	0.784855	-0.605664	0.131052	-0.593796	-0.795545	-0.120478
49194		0.180608	0.021169	-0.983327	0.789962	-0.598734	0.132203	-0.585953	-0.800668	-0.124859
49195		0.184877	0.023920	-0.982470	0.795020	-0.591323	0.135207	-0.577723	-0.806080	-0.128340
49196		0.188954	0.025337	-0.981659	0.801072	-0.582165	0.139168	-0.567961	-0.812676	-0.130300
49197		0.191494	0.025801	-0.981155	0.807850	-0.571870	0.142632	-0.557413	-0.819939	-0.130353
49198		0.192001	0.027521	-0.981009	0.813114	-0.564186	0.143313	-0.549528	-0.825189	-0.130702
49199		0.190617	0.031818	-0.981149	0.815858	-0.560970	0.140313	-0.545931	-0.827224	-0.132890
49200		0.187233	0.038672	-0.981554	0.815342	-0.563419	0.133330	-0.547870	-0.825266	-0.137022
49201		0.183062	0.047536	-0.981951	0.811988	-0.570402	0.123763	-0.554224	-0.819989	-0.143017
49202		0.179400	0.057988	-0.982066	0.807023	-0.579569	0.113202	-0.562610	-0.812858	-0.150772
49203		0.176752	0.069033	-0.981831	0.802844	-0.587182	0.103246	-0.569386	-0.806506	-0.159208
49204		0.174301	0.079057	-0.981514	0.800582	-0.591723	0.094510	-0.573312	-0.802256	-0.166429
49206		0.168394	0.093549	-0.981271	0.802221	-0.591468	0.081280	-0.572786	-0.800883	-0.174647
49207		0.164985	0.098362	-0.981379	0.803842	-0.589967	0.076007	-0.571505	-0.801414	-0.176404
49208		0.161588	0.102238	-0.981548	0.805544	-0.588225	0.071344	-0.570077	-0.802209	-0.177407
49209		0.158011	0.105824	-0.981750	0.807529	-0.586033	0.066801	-0.568269	-0.803347	-0.178056
49210		0.154173	0.109129	-0.981999	0.809602	-0.583670	0.062243	-0.566371	-0.804624	-0.178337
49211		0.150617	0.112988	-0.982114	0.811539	-0.581456	0.057564	-0.564552	-0.805694	-0.179272
49212		0.147530	0.117839	-0.982013	0.812739	-0.580260	0.052470	-0.563639	-0.805861	-0.181378
49213		0.144122	0.123009	-0.981885	0.813774	-0.579288	0.046874	-0.563028	-0.805788	-0.183590
49214		0.140336	0.128618	-0.981714	0.813988	-0.579472	0.040440	-0.563675	-0.804779	-0.186014
49215		0.136203	0.134540	-0.981503	0.813167	-0.581083	0.033191	-0.565869	-0.802647	-0.188549
49216		0.131865	0.140744	-0.981225	0.811690	-0.583537	0.025381	-0.569009	-0.799797	-0.191189
49217		0.127377	0.146888	-0.980917	0.809845	-0.586388	0.017354	-0.572649	-0.796601	-0.193649
49218		0.122685	0.152389	-0.980676	0.808054	-0.589032	0.009559	-0.576193	-0.793612	-0.195404
49219		0.117993	0.157168	-0.980498	0.805983	-0.591936	0.002108	-0.580060	-0.790513	-0.196519
49220		0.113053	0.161493	-0.980377	0.803433	-0.595370	-0.005424	-0.584563	-0.787054	-0.197057
49221		0.107961	0.165725	-0.980245	0.800698	-0.598926	-0.013072	-0.589260	-0.783468	-0.197356
49222		0.102886	0.169824	-0.980089	0.797447	-0.603032	-0.020777	-0.594553	-0.779431	-0.197469
49223		0.098240	0.174111	-0.979813	0.793505	-0.607898	-0.028462	-0.600583	-0.774690	-0.197878
49224		0.094112	0.178691	-0.979394	0.789272	-0.612988	-0.035998	-0.606789	-0.769620	-0.198725
49225		0.090018	0.183004	-0.978982	0.784773	-0.618260	-0.043413	-0.613211	-0.764371	-0.199271
49226		0.086110	0.187334	-0.978515	0.780025	-0.623686	-0.050760	-0.619795	-0.758895	-0.199831
49227		0.082498	0.191758	-0.977969	0.775427	-0.628779	-0.057878	-0.626025	-0.753569	-0.200567
49228		0.079208	0.196297	-0.977340	0.770927	-0.633621	-0.064782	-0.631979	-0.748326	-0.201518
49229		0.076014	0.200743	-0.976690	0.767308	-0.637306	-0.071270	-0.636758	-0.744005	-0.202476
49230		0.072817	0.204936	-0.976063	0.765421	-0.638901	-0.077042	-0.639397	-0.741489	-0.203385
49231		0.069609	0.209015	-0.975432	0.765108	-0.638627	-0.082245	-0.640128	-0.740586	-0.204374
49232		0.066409	0.213184	-0.974753	0.766310	-0.636552	-0.087009	-0.639029	-0.741185	-0.205637
49233		0.062866	0.217351	-0.974067	0.768037	-0.633785	-0.091852	-0.637313	-0.742345	-0.206777
49234		0.058987	0.221675	-0.973335	0.769565	-0.631143	-0.097104	-0.635839	-0.743316	-0.207822
49235		0.054828	0.226225	-0.972531	0.770577	-0.628991	-0.102870	-0.634985	-0.743769	-0.208810
49236		0.050520	0.230928	-0.971658	0.770957	-0.627482	-0.109045	-0.634880	-0.743598	-0.209735
49237		0.046095	0.235717	-0.970728	0.770798	-0.626516	-0.115533	-0.635410	-0.742910	-0.210570
49238		0.041735	0.240698	-0.969702	0.769735	-0.626522	-0.122386	-0.636998	-0.741306	-0.211422
49239		0.037577	0.245799	-0.968592	0.767905	-0.627355	-0.129412	-0.639460	-0.738924	-0.212324
49240		0.033506	0.250990	-0.967409	0.765537	-0.628722	-0.136605	-0.642518	-0.736011	-0.213209
49241		0.029317	0.256166	-0.966188	0.763071	-0.630091	-0.143903	-0.645649	-0.733051	-0.213945
49242		0.025074	0.261280	-0.964937	0.760975	-0.630948	-0.151071	-0.648297	-0.730505	-0.214648
49243		0.020782	0.266248	-0.963681	0.758868	-0.631744	-0.158174	-0.650913	-0.728019	-0.215176
49244		0.016275	0.270862	-0.962481	0.757105	-0.632092	-0.165082	-0.653091	-0.726012	-0.215358
49245		0.011874	0.275301	-0.961285	0.755963	-0.631727	-0.171581	-0.654506	-0.724658	-0.215619
49246		0.007545	0.279416	-0.960141	0.755420	-0.630710	-0.177610	-0.655197	-0.723970	-0.215835
49247		0.003378	0.283343	-0.959013	0.755444	-0.629080	-0.183202	-0.655205	-0.723861	-0.216175
49248		-0.000484	0.287001	-0.957930	0.756259	-0.626642	-0.188128	-0.654272	-0.724534	-0.216743
49249		-0.003955	0.290217	-0.956953	0.757616	-0.623732	-0.192292	-0.652689	-0.725763	-0.217406
49250		-0.006855	0.293198	-0.956027	0.758797	-0.621156	-0.195940	-0.651291	-0.726774	-0.218220
49251		-0.009351	0.295784	-0.955209	0.759397	-0.619375	-0.199226	-0.650561	-0.727246	-0.218826
49252		-0.011444	0.298096	-0.954467	0.759507	-0.618274	-0.202204	-0.650399	-0.727238	-0.219330
49253		-0.013122	0.300333	-0.953744	0.758730	-0.618264	-0.205129	-0.651273	-0.726327	-0.219759
49254		-0.014537	0.302520	-0.953032	0.756918	-0.619464	-0.208181	-0.653348	-0.724394	-0.219977
49255		-0.016106	0.304256	-0.952454	0.754323	-0.621566	-0.211312	-0.656306	-0.721861	-0.219496
49256		-0.017631	0.305558	-0.952010	0.751225	-0.624294	-0.214287	-0.659811	-0.718952	-0.218536
49257		-0.019102	0.306536	-0.951667	0.747845	-0.627375	-0.217091	-0.663599	-0.715847	-0.217257
49258		-0.020185	0.307652	-0.951285	0.743819	-0.631169	-0.219907	-0.668077	-0.712022	-0.216097
49259		-0.021230	0.308559	-0.950968	0.739395	-0.635385	-0.222669	-0.672937	-0.707868	-0.214658
49260		-0.022512	0.308878	-0.950835	0.734889	-0.639704	-0.225207	-0.677814	-0.703828	-0.212590
49261		-0.024179	0.308416	-0.950944	0.730351	-0.644086	-0.227464	-0.682644	-0.700023	-0.209679
49262		-0.025905	0.307326	-0.951252	0.725799	-0.648565	-0.229301	-0.687419	-0.696358	-0.206255
49263		-0.027611	0.305634	-0.951749	0.721376	-0.653014	-0.230629	-0.691993	-0.692936	-0.202447
49264		-0.028768	0.303229	-0.952483	0.717034	-0.657641	-0.231021	-0.696445	-0.689608	-0.198507
49265		-0.029282	0.300036	-0.953479	0.712650	-0.662608	-0.230392	-0.700908	-0.686243	-0.194418
49267		-0.027093	0.290635	-0.956450	0.702508	-0.675154	-0.225057	-0.711160	-0.678011	-0.185882
49268		-0.024457	0.283915	-0.958537	0.695971	-0.683473	-0.220200	-0.717653	-0.672500	-0.180881
49269		-0.020790	0.275335	-0.961123	0.688366	-0.693237	-0.213483	-0.725066	-0.666043	-0.175119
49270		-0.015596	0.264841	-0.964166	0.679906	-0.704225	-0.204438	-0.733133	-0.658731	-0.169084
49271		-0.008738	0.251757	-0.967751	0.671122	-0.715968	-0.192316	-0.741296	-0.651159	-0.162703
49272		-0.000469	0.235699	-0.971826	0.662388	-0.727981	-0.176878	-0.749161	-0.643809	-0.155783
49273		0.009019	0.216350	-0.976274	0.655334	-0.738705	-0.157649	-0.755285	-0.638364	-0.148444
49274		0.019319	0.194630	-0.980686	0.652802	-0.745389	-0.135072	-0.757282	-0.637584	-0.141455
49275		0.030530	0.170367	-0.984908	0.658121	-0.745057	-0.108478	-0.752293	-0.644876	-0.134869
49276		0.043484	0.145016	-0.988473	0.668642	-0.739370	-0.079056	-0.742312	-0.657497	-0.129115
49277		0.058397	0.119980	-0.991057	0.680709	-0.730954	-0.048381	-0.730222	-0.671796	-0.124357
49278		0.074221	0.097536	-0.992461	0.689763	-0.723771	-0.019546	-0.720221	-0.683112	-0.120996
49280		0.099306	0.057931	-0.993369	0.691940	-0.721446	0.027100	-0.715092	-0.690043	-0.111729
49281		0.106959	0.040115	-0.993454	0.686901	-0.725378	0.044664	-0.718837	-0.687181	-0.105141
49282		0.113418	0.023950	-0.993259	0.679354	-0.731358	0.059939	-0.724993	-0.681573	-0.099219
49283		0.121834	0.010419	-0.992496	0.671862	-0.736896	0.074739	-0.730588	-0.675926	-0.096779
49284		0.134334	-0.001148	-0.990935	0.663911	-0.742271	0.090862	-0.735647	-0.670099	-0.098950
49285		0.146130	-0.013382	-0.989175	0.653656	-0.749232	0.106700	-0.742549	-0.662172	-0.100739
49286		0.156096	-0.027521	-0.987358	0.643628	-0.755421	0.122810	-0.749251	-0.654661	-0.100205
49287		0.166432	-0.041401	-0.985183	0.632106	-0.762345	0.138821	-0.756797	-0.645845	-0.100709
49288		0.177667	-0.054499	-0.982580	0.619962	-0.769217	0.154765	-0.764252	-0.636659	-0.102877
49289		0.189190	-0.066791	-0.979666	0.610062	-0.773778	0.170568	-0.769436	-0.629926	-0.105644
49290		0.200373	-0.078549	-0.976566	0.604174	-0.774772	0.186284	-0.771249	-0.627342	-0.107786
49291		0.210285	-0.090012	-0.973487	0.603212	-0.771668	0.201653	-0.769360	-0.629624	-0.107974
49292		0.218588	-0.101526	-0.970521	0.606160	-0.765286	0.216580	-0.764715	-0.635633	-0.105742
49293		0.225609	-0.112151	-0.967741	0.612287	-0.756323	0.230392	-0.757764	-0.644514	-0.101965
49294		0.232038	-0.121561	-0.965081	0.621414	-0.744774	0.243220	-0.748333	-0.656151	-0.097276
49295		0.238121	-0.129354	-0.962583	0.631033	-0.732794	0.254578	-0.738306	-0.668042	-0.092867
49296		0.244644	-0.135424	-0.960109	0.639121	-0.722118	0.264709	-0.729160	-0.678385	-0.090109
49297		0.251097	-0.140198	-0.957755	0.645578	-0.712993	0.273622	-0.721234	-0.687012	-0.088522
49298		0.257538	-0.144014	-0.955476	0.652260	-0.703639	0.281866	-0.712903	-0.695810	-0.087279
49299		0.262964	-0.147590	-0.953450	0.659242	-0.694067	0.289259	-0.704450	-0.704619	-0.085217
49300		0.267464	-0.151041	-0.951656	0.666666	-0.684087	0.295941	-0.695715	-0.713590	-0.082274
49301		0.271228	-0.153797	-0.950148	0.674180	-0.674189	0.301579	-0.686962	-0.722368	-0.079172
49302		0.274602	-0.155160	-0.948957	0.681418	-0.664903	0.305899	-0.678427	-0.730636	-0.076855
49303		0.277464	-0.155017	-0.948148	0.687505	-0.657319	0.308657	-0.671082	-0.737497	-0.075807
49304		0.279727	-0.154094	-0.947633	0.692661	-0.651086	0.310336	-0.664811	-0.743197	-0.075392
49305		0.280881	-0.153031	-0.947464	0.696857	-0.646287	0.310973	-0.659922	-0.747593	-0.074889
49306		0.281021	-0.152067	-0.947577	0.699782	-0.643222	0.310757	-0.656759	-0.750427	-0.074345
49307		0.280404	-0.151006	-0.947930	0.701993	-0.641267	0.309809	-0.654659	-0.752312	-0.073809
49308		0.279189	-0.149456	-0.948534	0.703314	-0.640709	0.307965	-0.653761	-0.753097	-0.073764
49309		0.277094	-0.147614	-0.949436	0.703973	-0.641323	0.305165	-0.653942	-0.752937	-0.073791
49310		0.273933	-0.145682	-0.950651	0.704946	-0.641982	0.301513	-0.654226	-0.752752	-0.073162
49311		0.269682	-0.143960	-0.952128	0.706811	-0.641917	0.297255	-0.653980	-0.753139	-0.071361
49312		0.264620	-0.142011	-0.953839	0.709812	-0.640864	0.292335	-0.652796	-0.754404	-0.068784
49313		0.258847	-0.139901	-0.955733	0.715082	-0.637419	0.286976	-0.649351	-0.757710	-0.064953
49314		0.252041	-0.138242	-0.957791	0.723379	-0.630522	0.281362	-0.642805	-0.763761	-0.058916
49315		0.244430	-0.136873	-0.959958	0.733349	-0.621593	0.275357	-0.634392	-0.771290	-0.051560
49316		0.236935	-0.134644	-0.962150	0.743912	-0.611829	0.268812	-0.624866	-0.779446	-0.044801
49317		0.230171	-0.130812	-0.964318	0.752315	-0.604643	0.261589	-0.617288	-0.785681	-0.040759
49318		0.224632	-0.125431	-0.966337	0.756472	-0.602658	0.254073	-0.614239	-0.788080	-0.040491
49319		0.220589	-0.119072	-0.968071	0.756255	-0.605923	0.246852	-0.615970	-0.786561	-0.043611
49320		0.217560	-0.112495	-0.969542	0.755247	-0.609829	0.240231	-0.618280	-0.784509	-0.047713
49321		0.214505	-0.106272	-0.970924	0.756375	-0.610865	0.233967	-0.617968	-0.784570	-0.050652
49322		0.210733	-0.101063	-0.972306	0.760011	-0.608611	0.227981	-0.614797	-0.787006	-0.051446
49323		0.206379	-0.097267	-0.973626	0.764498	-0.605013	0.222492	-0.610697	-0.790252	-0.050501
49324		0.202430	-0.093561	-0.974817	0.769084	-0.601040	0.217394	-0.606244	-0.793723	-0.049712
49325		0.199850	-0.089564	-0.975724	0.774198	-0.595929	0.213275	-0.600564	-0.798027	-0.049756
49326		0.198650	-0.085574	-0.976327	0.779733	-0.589724	0.210339	-0.593763	-0.803058	-0.050424
49327		0.198479	-0.081875	-0.976679	0.784604	-0.583924	0.208396	-0.587369	-0.807669	-0.051658
49328		0.199227	-0.078051	-0.976840	0.787924	-0.579925	0.207035	-0.582653	-0.810922	-0.054039
49329		0.200933	-0.073258	-0.976862	0.789389	-0.578389	0.205747	-0.580079	-0.812465	-0.058388
49330		0.203227	-0.067719	-0.976787	0.789273	-0.579039	0.204357	-0.579437	-0.812482	-0.064228
49331		0.205453	-0.061879	-0.976709	0.788298	-0.580971	0.202628	-0.579978	-0.811568	-0.070583
49332		0.207194	-0.056019	-0.976695	0.787724	-0.582481	0.200515	-0.580138	-0.810912	-0.076560
49334		0.208034	-0.041825	-0.977227	0.788065	-0.584626	0.192786	-0.579375	-0.810224	-0.088661
49335		0.206232	-0.033848	-0.977918	0.788171	-0.586514	0.186517	-0.579875	-0.809232	-0.094280
49336		0.202034	-0.026677	-0.979015	0.787642	-0.589676	0.178609	-0.582067	-0.807199	-0.098123
49337		0.196068	-0.019999	-0.980386	0.786720	-0.593599	0.169445	-0.585345	-0.804513	-0.100652
49338		0.190234	-0.013381	-0.981648	0.784797	-0.598677	0.160247	-0.589834	-0.800878	-0.103388
49339		0.186739	-0.007970	-0.982377	0.782271	-0.603704	0.153598	-0.594290	-0.797168	-0.106500
49340		0.188463	-0.001490	-0.982079	0.779706	-0.607777	0.150549	-0.597110	-0.794106	-0.113382
49342		0.201205	0.014566	-0.979441	0.785182	-0.600226	0.152372	-0.585666	-0.799698	-0.132205
49343		0.207997	0.019595	-0.977933	0.796183	-0.584160	0.157636	-0.568181	-0.811402	-0.137105
49344		0.213386	0.022199	-0.976716	0.808448	-0.565323	0.163776	-0.548524	-0.824571	-0.138579
49345		0.215482	0.022828	-0.976241	0.819732	-0.547513	0.168134	-0.530667	-0.836486	-0.136692
49346		0.214897	0.025208	-0.976311	0.825662	-0.538624	0.167830	-0.521634	-0.842169	-0.136562
49347		0.212471	0.031304	-0.976666	0.825873	-0.539976	0.162359	-0.522294	-0.841098	-0.140582
49348		0.208488	0.039618	-0.977222	0.822194	-0.548207	0.153188	-0.529651	-0.835404	-0.146868
49349		0.204963	0.049913	-0.977496	0.817308	-0.558207	0.142871	-0.538515	-0.828199	-0.155206
49350		0.202553	0.061240	-0.977355	0.813059	-0.566788	0.132989	-0.545809	-0.821584	-0.164597
49351		0.200539	0.071456	-0.977076	0.810727	-0.572019	0.124563	-0.550005	-0.817122	-0.172643
49352		0.198684	0.079706	-0.976817	0.810329	-0.573974	0.117985	-0.551263	-0.814986	-0.178627
49353		0.196409	0.086000	-0.976743	0.810706	-0.574556	0.112433	-0.551524	-0.813934	-0.182569
49355		0.190622	0.093574	-0.977193	0.812333	-0.573935	0.103504	-0.551161	-0.813537	-0.185418
49356		0.187841	0.096802	-0.977418	0.813605	-0.572819	0.099628	-0.550239	-0.813946	-0.186358
49357		0.185004	0.100018	-0.977635	0.815048	-0.571422	0.095776	-0.549063	-0.814539	-0.187235
49358		0.182012	0.103508	-0.977833	0.816213	-0.570453	0.091543	-0.548333	-0.814782	-0.188313
49359		0.178960	0.108042	-0.977906	0.815979	-0.571623	0.086172	-0.549683	-0.813372	-0.190457
49360		0.175101	0.112953	-0.978050	0.814653	-0.574473	0.079503	-0.552883	-0.810692	-0.192608
49361		0.170268	0.118988	-0.978187	0.811719	-0.579745	0.070771	-0.558678	-0.806063	-0.195297
49362		0.164481	0.126390	-0.978249	0.807003	-0.587514	0.059781	-0.567180	-0.799283	-0.198632
49363		0.158001	0.134646	-0.978216	0.800964	-0.596847	0.047219	-0.577488	-0.790976	-0.202149
49365		0.143861	0.150691	-0.978057	0.788077	-0.615214	0.021130	-0.598531	-0.773824	-0.207262
49366		0.136852	0.158090	-0.977895	0.780986	-0.624493	0.008338	-0.609371	-0.764863	-0.208930
49367		0.129598	0.164726	-0.977788	0.774444	-0.632631	-0.003932	-0.619226	-0.756732	-0.209559
49368		0.122283	0.170632	-0.977718	0.768420	-0.639757	-0.015544	-0.628154	-0.749397	-0.209348
49369		0.115558	0.176324	-0.977526	0.762058	-0.646961	-0.026611	-0.637113	-0.741856	-0.209131
49370		0.109510	0.182204	-0.977143	0.756270	-0.653210	-0.037045	-0.645030	-0.734928	-0.209328
49371		0.103529	0.187739	-0.976748	0.750822	-0.658827	-0.047050	-0.652341	-0.728492	-0.209166
49372		0.097816	0.193251	-0.976261	0.745560	-0.664019	-0.056742	-0.659221	-0.722311	-0.209032
49373		0.091966	0.198400	-0.975797	0.740225	-0.669084	-0.066275	-0.666039	-0.716215	-0.208394
49374		0.086043	0.202975	-0.975396	0.735126	-0.673730	-0.075352	-0.672448	-0.710555	-0.207182
49375		0.080043	0.207394	-0.974977	0.730507	-0.677697	-0.084185	-0.678199	-0.705489	-0.205748
49376		0.074197	0.212108	-0.974425	0.726951	-0.680397	-0.092752	-0.682669	-0.701478	-0.204676
49377		0.068521	0.217121	-0.973737	0.725082	-0.681234	-0.100876	-0.685245	-0.699127	-0.204110
49378		0.063015	0.222199	-0.972963	0.724200	-0.680983	-0.108615	-0.686705	-0.697775	-0.203829
49379		0.057543	0.226790	-0.972242	0.724423	-0.679586	-0.115648	-0.686950	-0.697660	-0.203397
49380		0.052521	0.231215	-0.971484	0.724703	-0.678135	-0.122218	-0.687056	-0.697619	-0.203178
49381		0.047950	0.235611	-0.970664	0.724361	-0.677316	-0.128623	-0.687751	-0.696944	-0.203144
49382		0.043716	0.239955	-0.969799	0.723295	-0.677223	-0.134959	-0.689154	-0.695551	-0.203164
49383		0.039710	0.244137	-0.968927	0.722178	-0.677178	-0.141029	-0.690567	-0.694137	-0.203202
49384		0.035718	0.248158	-0.968061	0.721390	-0.676776	-0.146872	-0.691608	-0.693103	-0.203192
49385		0.031901	0.252057	-0.967186	0.720972	-0.676000	-0.152391	-0.692230	-0.692453	-0.203291
49386		0.028376	0.256136	-0.966224	0.720458	-0.675295	-0.157855	-0.692918	-0.691644	-0.203697
49387		0.025256	0.260225	-0.965218	0.720124	-0.674431	-0.162986	-0.693385	-0.690960	-0.204428
49388		0.022482	0.264379	-0.964157	0.719750	-0.673618	-0.167928	-0.693870	-0.690176	-0.205431
49389		0.020092	0.268504	-0.963069	0.719521	-0.672696	-0.172537	-0.694180	-0.689482	-0.206710
49390		0.017796	0.272503	-0.961990	0.719349	-0.671727	-0.176973	-0.694421	-0.688857	-0.207979
49391		0.015754	0.276239	-0.960960	0.719492	-0.670513	-0.180951	-0.694322	-0.688552	-0.209315
49392		0.013729	0.279575	-0.960026	0.719821	-0.669169	-0.184579	-0.694023	-0.688513	-0.210431
49393		0.011667	0.282517	-0.959191	0.720377	-0.667650	-0.187885	-0.693484	-0.688788	-0.211308
49394		0.009685	0.285220	-0.958413	0.720962	-0.666145	-0.190956	-0.692906	-0.689131	-0.212085
49395		0.007659	0.287577	-0.957727	0.721897	-0.664336	-0.193707	-0.691958	-0.689896	-0.212689
49396		0.005956	0.289879	-0.957045	0.723381	-0.662038	-0.196023	-0.690423	-0.691141	-0.213636
49397		0.004360	0.291930	-0.956430	0.725186	-0.659475	-0.197985	-0.688540	-0.692726	-0.214579
49398		0.003001	0.293962	-0.955812	0.726594	-0.657348	-0.199888	-0.687061	-0.693888	-0.215564
49399		0.001704	0.295874	-0.955226	0.727872	-0.655377	-0.201699	-0.685711	-0.694939	-0.216475
49400		0.000294	0.297816	-0.954623	0.728487	-0.654037	-0.203817	-0.685059	-0.695371	-0.217148
49401		-0.001728	0.299524	-0.954087	0.728626	-0.653089	-0.206349	-0.684910	-0.695529	-0.217112
49402		-0.004336	0.301372	-0.953497	0.727667	-0.653081	-0.209728	-0.685917	-0.694737	-0.216467
49403		-0.007175	0.303430	-0.952827	0.725038	-0.654640	-0.213931	-0.688672	-0.692370	-0.215301
49404		-0.009617	0.305926	-0.952007	0.720563	-0.657989	-0.218723	-0.693323	-0.688084	-0.214112
49405		-0.011613	0.308427	-0.951177	0.713918	-0.663483	-0.223856	-0.700133	-0.681662	-0.212487
49406		-0.013463	0.310495	-0.950480	0.705879	-0.670305	-0.228968	-0.708205	-0.674006	-0.210147
49407		-0.015415	0.311814	-0.950018	0.697350	-0.677559	-0.233703	-0.716565	-0.666098	-0.206999
49408		-0.017362	0.312640	-0.949713	0.689137	-0.684459	-0.237919	-0.724423	-0.658614	-0.203568
49409		-0.019611	0.312808	-0.949614	0.681538	-0.690746	-0.241610	-0.731520	-0.651936	-0.199644
49410		-0.021993	0.312294	-0.949731	0.674877	-0.696226	-0.244564	-0.737603	-0.646330	-0.195447
49411		-0.024194	0.311298	-0.950004	0.668874	-0.701209	-0.246807	-0.742982	-0.641405	-0.191254
49412		-0.025836	0.309660	-0.950496	0.663672	-0.705731	-0.247958	-0.747578	-0.637224	-0.187279
49413		-0.026994	0.307171	-0.951271	0.658894	-0.710173	-0.248017	-0.751751	-0.633482	-0.183223
49414		-0.027242	0.304044	-0.952268	0.653528	-0.715425	-0.247120	-0.756412	-0.629066	-0.179211
49415		-0.026625	0.299711	-0.953659	0.648054	-0.721197	-0.244747	-0.761129	-0.624539	-0.175027
49417		-0.024153	0.286151	-0.957880	0.634932	-0.735706	-0.235790	-0.772190	-0.613884	-0.163917
49418		-0.021855	0.275996	-0.960910	0.630452	-0.742142	-0.227500	-0.775920	-0.610780	-0.157783
49419		-0.018395	0.263171	-0.964574	0.628455	-0.747291	-0.215873	-0.777629	-0.610162	-0.151645
49420		-0.013940	0.247697	-0.968737	0.627051	-0.752486	-0.201426	-0.778853	-0.610256	-0.144829
49421		-0.008852	0.229592	-0.973247	0.625745	-0.757898	-0.184482	-0.779977	-0.610638	-0.136957
49422		-0.003296	0.209515	-0.977800	0.625574	-0.762414	-0.165473	-0.780158	-0.612232	-0.128555
49423		0.002731	0.187711	-0.982221	0.628683	-0.764159	-0.144289	-0.777657	-0.617111	-0.120098
49424		0.009348	0.165707	-0.986131	0.634240	-0.763407	-0.122269	-0.773080	-0.624301	-0.112234
49425		0.016882	0.143755	-0.989469	0.641345	-0.760762	-0.099585	-0.767067	-0.632910	-0.105040
49426		0.025939	0.123081	-0.992058	0.647493	-0.758158	-0.077132	-0.761629	-0.640350	-0.099360
49427		0.036135	0.103700	-0.993952	0.650738	-0.757282	-0.055351	-0.758442	-0.644802	-0.094846
49428		0.046630	0.085951	-0.995208	0.650431	-0.758756	-0.035054	-0.758132	-0.645680	-0.091286
49429		0.056076	0.069396	-0.996012	0.646479	-0.762748	-0.016747	-0.760868	-0.642962	-0.087635
49430		0.064128	0.054268	-0.996465	0.638576	-0.769558	-0.000815	-0.766882	-0.636266	-0.084004
49431		0.071051	0.039924	-0.996673	0.628707	-0.777522	0.013674	-0.774389	-0.627588	-0.080344
49432		0.077597	0.026314	-0.996637	0.618972	-0.784933	0.027469	-0.781571	-0.619022	-0.077196
49433		0.084902	0.013780	-0.996294	0.610391	-0.791034	0.041075	-0.787537	-0.611617	-0.075571
49434		0.092892	0.000994	-0.995676	0.602735	-0.796013	0.055438	-0.792516	-0.605279	-0.074543
49436		0.108818	-0.023623	-0.993781	0.589252	-0.803610	0.083625	-0.800587	-0.594688	-0.073527
49437		0.116941	-0.035067	-0.992520	0.582424	-0.807061	0.097137	-0.804430	-0.589426	-0.073954
49438		0.124577	-0.046720	-0.991109	0.578963	-0.807783	0.110851	-0.805781	-0.587625	-0.073582
49439		0.131637	-0.058302	-0.989582	0.578991	-0.805773	0.124492	-0.804637	-0.589347	-0.072313
49440		0.138095	-0.070476	-0.987908	0.584234	-0.799643	0.138713	-0.799750	-0.596325	-0.069253
49441		0.144125	-0.082393	-0.986123	0.592397	-0.791047	0.152674	-0.792650	-0.606181	-0.065200
49442		0.149368	-0.094217	-0.984283	0.603633	-0.779738	0.166241	-0.783146	-0.618976	-0.059595
49443		0.154218	-0.105483	-0.982390	0.616394	-0.766801	0.179097	-0.772189	-0.633159	-0.053235
49444		0.159967	-0.115114	-0.980387	0.628000	-0.754399	0.191048	-0.761595	-0.646244	-0.048387
49445		0.166910	-0.122288	-0.978359	0.637090	-0.743938	0.201675	-0.752501	-0.656964	-0.046262
49446		0.174739	-0.127437	-0.976333	0.642960	-0.736213	0.211169	-0.745700	-0.664643	-0.046708
49447		0.182131	-0.131906	-0.974386	0.646254	-0.730804	0.219729	-0.741069	-0.669721	-0.047858
49448		0.188839	-0.136438	-0.972484	0.649101	-0.725771	0.227869	-0.736891	-0.674270	-0.048492
49449		0.194842	-0.140753	-0.970683	0.652011	-0.720746	0.235387	-0.732747	-0.678759	-0.048658
49451		0.205465	-0.147468	-0.967490	0.657588	-0.711361	0.248080	-0.724818	-0.687182	-0.049186
49452		0.210150	-0.149981	-0.966097	0.660702	-0.706580	0.253412	-0.720631	-0.691557	-0.049395
49453		0.214373	-0.152114	-0.964834	0.663965	-0.701784	0.258166	-0.716376	-0.695960	-0.049445
49455		0.221290	-0.156003	-0.962649	0.670374	-0.692576	0.266339	-0.708258	-0.704273	-0.048680
49456		0.224662	-0.157554	-0.961615	0.673708	-0.687868	0.270101	-0.704020	-0.708530	-0.048392
49457		0.228143	-0.158507	-0.960638	0.675642	-0.684650	0.273428	-0.701041	-0.711428	-0.049104
49459		0.235459	-0.158460	-0.958879	0.673549	-0.684652	0.278537	-0.700636	-0.711436	-0.054477
49460		0.239287	-0.157414	-0.958104	0.673102	-0.684276	0.280533	-0.699768	-0.712030	-0.057783
49461		0.243137	-0.155469	-0.957452	0.675300	-0.681446	0.282138	-0.696315	-0.715165	-0.060696
49462		0.246699	-0.153177	-0.956910	0.681618	-0.674474	0.283693	-0.688867	-0.722233	-0.061984
49463		0.249759	-0.150501	-0.956541	0.690796	-0.664542	0.284929	-0.678543	-0.731938	-0.062010
49464		0.252228	-0.147557	-0.956351	0.700978	-0.653457	0.285699	-0.667091	-0.742442	-0.061386
49465		0.254027	-0.144179	-0.956390	0.710180	-0.643472	0.285637	-0.656593	-0.751769	-0.061066
49466		0.255218	-0.140539	-0.956615	0.717883	-0.635221	0.284848	-0.647694	-0.759436	-0.061229
49467		0.255635	-0.136844	-0.957039	0.723575	-0.629439	0.283276	-0.641162	-0.764905	-0.061890
49468		0.255130	-0.133811	-0.957603	0.728398	-0.624719	0.281359	-0.635882	-0.769299	-0.061918
49469		0.253915	-0.131403	-0.958259	0.733201	-0.620007	0.279300	-0.630828	-0.773515	-0.061084
49470		0.252013	-0.129909	-0.958965	0.739037	-0.613909	0.277382	-0.624751	-0.778614	-0.058706
49471		0.249794	-0.128873	-0.959685	0.746252	-0.605927	0.275608	-0.617017	-0.785012	-0.055185
49472		0.247886	-0.127562	-0.960354	0.754944	-0.595803	0.274005	-0.607135	-0.792935	-0.051389
49473		0.246567	-0.125274	-0.960995	0.764490	-0.584293	0.272317	-0.595617	-0.801816	-0.048297
49474		0.245432	-0.122514	-0.961641	0.775443	-0.570498	0.270592	-0.581766	-0.812110	-0.045016
49475		0.244248	-0.119409	-0.962333	0.787926	-0.554037	0.268729	-0.565257	-0.823884	-0.041238
49476		0.242589	-0.116415	-0.963119	0.802115	-0.534345	0.266623	-0.545676	-0.837212	-0.036248
49477		0.239894	-0.113706	-0.964117	0.817573	-0.511845	0.263796	-0.523474	-0.851519	-0.029825
49478		0.236442	-0.111085	-0.965275	0.833938	-0.486626	0.260273	-0.498640	-0.866519	-0.022421
49479		0.232410	-0.108665	-0.966529	0.850457	-0.459463	0.256156	-0.471920	-0.881524	-0.014369
49480		0.227936	-0.105968	-0.967893	0.866947	-0.430416	0.251287	-0.443225	-0.896389	-0.006239
49481		0.223262	-0.102687	-0.969335	0.882234	-0.401589	0.245743	-0.414508	-0.910045	0.000934
49482		0.218863	-0.098795	-0.970741	0.896591	-0.372174	0.240022	-0.384998	-0.922890	0.007124
49483		0.214954	-0.094640	-0.972028	0.909485	-0.343257	0.234544	-0.355853	-0.934461	0.012289
49484		0.211851	-0.090596	-0.973094	0.920866	-0.314956	0.229803	-0.327301	-0.944773	0.016703
49485		0.210010	-0.085907	-0.973918	0.930083	-0.289526	0.226097	-0.301397	-0.953307	0.019097
49486		0.209351	-0.080141	-0.974551	0.937481	-0.266926	0.223338	-0.278031	-0.960379	0.019249
49487		0.209667	-0.072996	-0.975044	0.943310	-0.247321	0.221358	-0.257307	-0.966180	0.017003
49488		0.210272	-0.065182	-0.975467	0.948363	-0.228764	0.219716	-0.237473	-0.971297	0.013714
49489		0.210818	-0.056487	-0.975892	0.952806	-0.211216	0.218057	-0.218441	-0.975806	0.009293
49490		0.211177	-0.046173	-0.976357	0.956893	-0.194006	0.216142	-0.199398	-0.979913	0.003213
49491		0.210959	-0.034520	-0.976885	0.960929	-0.175886	0.213728	-0.179199	-0.983805	-0.003933
49492		0.209483	-0.023384	-0.977533	0.965721	-0.151785	0.210582	-0.153299	-0.988137	-0.009214
49493		0.206918	-0.013032	-0.978272	0.970914	-0.120377	0.206965	-0.120458	-0.992643	-0.012255
49494		0.203533	-0.004324	-0.979059	0.975738	-0.081506	0.203202	-0.080678	-0.996663	-0.012371
49495		0.200167	0.003323	-0.979756	0.978952	-0.041341	0.199862	-0.039840	-0.999140	-0.011529
49496		0.197621	0.009610	-0.980231	0.980278	-0.002531	0.197605	-0.000582	-0.999951	-0.009921
49497		0.196455	0.015821	-0.980385	0.979835	0.034000	0.196894	0.036448	-0.999297	-0.008823
49498		0.196906	0.022258	-0.980170	0.977737	0.069488	0.197996	0.072517	-0.997334	-0.008080
49499		0.199932	0.029629	-0.979362	0.973920	0.103427	0.201950	0.107276	-0.994196	-0.008178
49500		0.205527	0.038033	-0.977912	0.968246	0.137427	0.208840	0.142335	-0.989781	-0.008580
49501		0.212207	0.045221	-0.976178	0.960699	0.173276	0.216870	0.178955	-0.983835	-0.006673
49502		0.217548	0.048956	-0.974821	0.952385	0.207945	0.222984	0.213626	-0.976915	-0.001387
49503		0.220225	0.051704	-0.974078	0.944601	0.237844	0.226185	0.243374	-0.969926	0.003539
49504		0.219197	0.054479	-0.974159	0.939072	0.259154	0.225795	0.264759	-0.964298	0.005646
49505		0.213957	0.059867	-0.975007	0.937873	0.266521	0.222173	0.273160	-0.961968	0.000876
49507		0.193049	0.078588	-0.978037	0.945992	0.249678	0.206786	0.260445	-0.965135	-0.026144
49508		0.180614	0.088379	-0.979575	0.951137	0.237896	0.196833	0.250433	-0.967262	-0.041093
49509		0.168558	0.095961	-0.981010	0.955382	0.229003	0.186555	0.242556	-0.968684	-0.053079
49510		0.157542	0.102541	-0.982174	0.958856	0.221980	0.176976	0.236170	-0.969644	-0.063351
49511		0.147527	0.107407	-0.983209	0.961647	0.216837	0.167979	0.231238	-0.970281	-0.071298
49512		0.138799	0.110201	-0.984170	0.963508	0.214659	0.159921	0.228884	-0.970452	-0.076385
49513		0.131457	0.111334	-0.985050	0.963885	0.217807	0.153250	0.231612	-0.969621	-0.078681
49514		0.125247	0.111446	-0.985846	0.962723	0.226468	0.147910	0.239747	-0.967622	-0.078928
49515		0.119311	0.111474	-0.986579	0.960488	0.238699	0.143127	0.251450	-0.964674	-0.078590
49516		0.113168	0.111841	-0.987261	0.957600	0.252685	0.138393	0.264944	-0.961063	-0.078503
49517		0.106454	0.111792	-0.988013	0.954039	0.268467	0.133170	0.280136	-0.956780	-0.078075
49519		0.090697	0.110866	-0.989688	0.946477	0.299520	0.120290	0.309768	-0.947627	-0.077766
49520		0.081910	0.110194	-0.990529	0.943022	0.313025	0.112805	0.322491	-0.943331	-0.078275
49521		0.073105	0.109568	-0.991287	0.939623	0.325613	0.105286	0.334312	-0.939133	-0.079148
49522		0.064506	0.108715	-0.991978	0.935994	0.338122	0.097922	0.346056	-0.934802	-0.079945
49523		0.056427	0.107107	-0.992645	0.932009	0.350867	0.090839	0.358016	-0.930280	-0.080026
49524		0.048963	0.104555	-0.993313	0.927516	0.364210	0.084056	0.370563	-0.925429	-0.079143
49525		0.042035	0.101593	-0.993938	0.922763	0.377473	0.077608	0.383069	-0.920431	-0.077879
49526		0.035308	0.098378	-0.994523	0.917250	0.391872	0.071329	0.396743	-0.914745	-0.076401
49527		0.028247	0.095880	-0.994992	0.911265	0.406650	0.065056	0.410851	-0.908539	-0.075886
49528		0.020840	0.093422	-0.995408	0.904913	0.421556	0.058510	0.425087	-0.901977	-0.075754
49529		0.013390	0.090598	-0.995798	0.898495	0.435923	0.051742	0.438779	-0.895412	-0.075564
49530		0.005936	0.087346	-0.996160	0.891747	0.450312	0.044798	0.452496	-0.888589	-0.075217
49531		-0.001685	0.084406	-0.996430	0.885248	0.463582	0.037772	0.465115	-0.882025	-0.075501
49532		-0.009244	0.081236	-0.996652	0.878101	0.477485	0.030775	0.478386	-0.874877	-0.075748
49533		-0.016391	0.077722	-0.996840	0.870319	0.491901	0.024043	0.492215	-0.867175	-0.075706
49534		-0.023219	0.073692	-0.997011	0.861667	0.507176	0.017419	0.506943	-0.858686	-0.075274
49535		-0.029793	0.069535	-0.997134	0.852180	0.523133	0.011019	0.522400	-0.849410	-0.074842
49536		-0.036365	0.064824	-0.997234	0.841801	0.539770	0.004390	0.538561	-0.839313	-0.074198
49537		-0.042813	0.060080	-0.997275	0.831066	0.556170	-0.002171	0.554524	-0.828894	-0.073742
49538		-0.048886	0.054805	-0.997300	0.819364	0.573208	-0.008664	0.571186	-0.817575	-0.072927
49539		-0.054676	0.049696	-0.997267	0.807377	0.589848	-0.014872	0.587497	-0.805983	-0.072374
49540		-0.060436	0.044486	-0.997180	0.795406	0.605706	-0.021185	0.603056	-0.794444	-0.071991
49541		-0.066107	0.039722	-0.997022	0.783669	0.620582	-0.027236	0.617651	-0.783135	-0.072153
49542		-0.071624	0.034842	-0.996823	0.771282	0.635627	-0.033202	0.632451	-0.771210	-0.072399
49543		-0.076737	0.030205	-0.996594	0.758427	0.650609	-0.038680	0.647225	-0.758812	-0.072833
49544		-0.081445	0.025578	-0.996350	0.744773	0.665880	-0.043786	0.662329	-0.745621	-0.073283
49545		-0.085769	0.021310	-0.996087	0.730737	0.680944	-0.048353	0.677249	-0.732025	-0.073976
49546		-0.089592	0.016821	-0.995837	0.715701	0.696421	-0.052625	0.692636	-0.717436	-0.074432
49547		-0.093029	0.012765	-0.995582	0.700476	0.711449	-0.056332	0.707587	-0.702621	-0.075127
49548		-0.096067	0.008659	-0.995337	0.685744	0.725376	-0.059876	0.721475	-0.688299	-0.075623
49549		-0.098780	0.004809	-0.995098	0.672533	0.737364	-0.063197	0.733445	-0.675479	-0.076071
49550		-0.101327	0.000581	-0.994853	0.659453	0.748778	-0.066729	0.744886	-0.662820	-0.076254
49551		-0.104029	-0.003557	-0.994568	0.646972	0.759258	-0.070386	0.755384	-0.650780	-0.076683
49552		-0.106930	-0.008280	-0.994232	0.634528	0.769287	-0.074651	0.765468	-0.638850	-0.077006
49553		-0.110086	-0.013020	-0.993837	0.622947	0.778244	-0.079199	0.774479	-0.627826	-0.077563
49554		-0.113194	-0.018388	-0.993403	0.611270	0.786928	-0.084218	0.783285	-0.616770	-0.077836
49555		-0.116307	-0.023626	-0.992932	0.599884	0.795101	-0.089186	0.791588	-0.606017	-0.078303
49556		-0.119432	-0.029038	-0.992418	0.587982	0.803362	-0.094266	0.800008	-0.594782	-0.078873
49557		-0.122462	-0.034081	-0.991888	0.575590	0.811729	-0.098955	0.808517	-0.583039	-0.079790
49558		-0.125251	-0.039406	-0.991342	0.562609	0.820195	-0.103686	0.817180	-0.570725	-0.080560
49559		-0.127559	-0.044578	-0.990829	0.549394	0.828554	-0.108007	0.825769	-0.558132	-0.081199
49560		-0.129434	-0.050234	-0.990315	0.535104	0.837274	-0.112409	0.834812	-0.544471	-0.081491
49561		-0.131000	-0.055676	-0.989818	0.521045	0.845538	-0.116519	0.843416	-0.531004	-0.081756
49562		-0.132250	-0.061406	-0.989313	0.506905	0.853504	-0.120739	0.851797	-0.517455	-0.081749
49563		-0.133118	-0.066835	-0.988844	0.493558	0.860739	-0.124619	0.859465	-0.504641	-0.081593
49564		-0.133244	-0.072723	-0.988412	0.480403	0.867569	-0.128593	0.866867	-0.491971	-0.080662
49565		-0.132826	-0.078342	-0.988038	0.467749	0.873923	-0.132176	0.873824	-0.479710	-0.079435
49566		-0.131879	-0.084166	-0.987686	0.455372	0.879886	-0.135783	0.880480	-0.467671	-0.077712
49567		-0.130844	-0.089269	-0.987376	0.443865	0.885270	-0.138858	0.886490	-0.456430	-0.076209
49568		-0.129852	-0.094147	-0.987054	0.433603	0.889858	-0.141919	0.891699	-0.446418	-0.074727
49569		-0.129037	-0.098336	-0.986752	0.425057	0.893537	-0.144631	0.895922	-0.438089	-0.073501
49570		-0.128311	-0.102352	-0.986438	0.416902	0.896937	-0.147294	0.899849	-0.430148	-0.072416
49571		-0.127648	-0.106008	-0.986138	0.409270	0.900044	-0.149730	0.903440	-0.422709	-0.071503
49572		-0.126668	-0.110062	-0.985820	0.400973	0.903329	-0.152373	0.907290	-0.414588	-0.070291
49573		-0.125426	-0.113954	-0.985537	0.392984	0.906419	-0.154820	0.910951	-0.406718	-0.068906
49574		-0.123845	-0.118187	-0.985238	0.385357	0.909226	-0.157508	0.914419	-0.399175	-0.067059
49575		-0.122129	-0.122121	-0.984973	0.378965	0.911475	-0.159997	0.917317	-0.392811	-0.065038
49576		-0.120097	-0.126273	-0.984699	0.372934	0.913495	-0.162627	0.920053	-0.386759	-0.062617
49577		-0.117825	-0.130044	-0.984483	0.367562	0.915264	-0.164891	0.922505	-0.381287	-0.060041
49578		-0.115184	-0.133821	-0.984289	0.361823	0.917161	-0.167035	0.925104	-0.375378	-0.057223
49579		-0.112212	-0.137065	-0.984186	0.355538	0.919335	-0.168571	0.927901	-0.368831	-0.054428
49580		-0.108596	-0.140328	-0.984132	0.348003	0.921976	-0.169867	0.931182	-0.360928	-0.051288
49581		-0.104554	-0.143021	-0.984182	0.340212	0.924757	-0.170527	0.934518	-0.352660	-0.048030
49582		-0.100043	-0.145688	-0.984259	0.331223	0.927925	-0.171016	0.938234	-0.343119	-0.044578
49583		-0.095315	-0.147798	-0.984414	0.322574	0.930969	-0.171007	0.941733	-0.333845	-0.041059
49584		-0.090363	-0.149988	-0.984550	0.314037	0.933868	-0.171090	0.945101	-0.324645	-0.037286
49585		-0.085564	-0.151658	-0.984723	0.306213	0.936508	-0.170840	0.948110	-0.316153	-0.033692
49586		-0.080887	-0.153350	-0.984856	0.298081	0.939151	-0.170715	0.951107	-0.307375	-0.030255
49587		-0.076571	-0.154532	-0.985016	0.290290	0.941664	-0.170297	0.953870	-0.298981	-0.027245
49588		-0.072127	-0.155838	-0.985146	0.281988	0.944235	-0.170012	0.956703	-0.290062	-0.024161
49589		-0.067591	-0.156675	-0.985335	0.273838	0.946754	-0.169324	0.959398	-0.281266	-0.021088
49590		-0.062458	-0.157413	-0.985556	0.264409	0.949590	-0.168424	0.962386	-0.271109	-0.017688
49591		-0.056786	-0.157246	-0.985926	0.254542	0.952604	-0.166592	0.965393	-0.260420	-0.014069
49592		-0.049849	-0.156685	-0.986390	0.242929	0.956056	-0.164143	0.968762	-0.247805	-0.009595
49593		-0.042155	-0.154673	-0.987066	0.230701	0.959739	-0.160243	0.972111	-0.234473	-0.004774
49594		-0.033709	-0.151489	-0.987884	0.216970	0.963763	-0.155194	0.975596	-0.219572	0.000381
49595		-0.025295	-0.146212	-0.988930	0.202737	0.967939	-0.148294	0.978906	-0.204244	0.005158
49596		-0.017433	-0.139290	-0.990098	0.186945	0.972332	-0.140082	0.982216	-0.187535	0.009089
49597		-0.011095	-0.130150	-0.991432	0.170947	0.976650	-0.130123	0.985218	-0.170926	0.011413
49598		-0.006439	-0.119916	-0.992763	0.153786	0.980855	-0.119475	0.988083	-0.153442	0.012126
49599		-0.003723	-0.108316	-0.994110	0.136798	0.984715	-0.107805	0.990592	-0.136393	0.011151
49600		-0.002809	-0.096426	-0.995336	0.118801	0.988259	-0.096075	0.992914	-0.118517	0.008679
49601		-0.003570	-0.083881	-0.996469	0.101182	0.991331	-0.083811	0.994862	-0.101124	0.004948
49602		-0.005469	-0.071707	-0.997411	0.082786	0.993969	-0.071914	0.996552	-0.082965	0.000500
49603		-0.008487	-0.059186	-0.998211	0.064538	0.996133	-0.059612	0.997879	-0.064928	-0.004634
49604		-0.012846	-0.047245	-0.998801	0.045025	0.997843	-0.047779	0.998903	-0.045585	-0.010691
49605		-0.019029	-0.035361	-0.999193	0.025390	0.999035	-0.035839	0.999497	-0.026051	-0.018113
49606		-0.026825	-0.024727	-0.999334	0.004707	0.999680	-0.024862	0.999629	-0.005371	-0.026700
49607		-0.036724	-0.014787	-0.999216	-0.015164	0.999784	-0.014238	0.999210	0.014629	-0.036940
49608		-0.046381	-0.006326	-0.998904	-0.037788	0.999275	-0.004574	0.998209	0.037534	-0.046587
49609		-0.052928	0.002048	-0.998596	-0.064695	0.997890	0.005476	0.996500	0.064894	-0.052683
49610		-0.056666	0.010252	-0.998341	-0.096039	0.995254	0.015671	0.993763	0.096768	-0.055413
49611		-0.059987	0.019146	-0.998016	-0.128305	0.991374	0.026730	0.989919	0.129654	-0.057013
49612		-0.064442	0.027583	-0.997540	-0.160526	0.986314	0.037643	0.984926	0.162557	-0.059132
49613		-0.070847	0.036280	-0.996827	-0.190209	0.980510	0.049205	0.979184	0.193092	-0.062566
49614		-0.078710	0.044889	-0.995886	-0.216815	0.974302	0.061052	0.973034	0.220729	-0.066955
49615		-0.087363	0.054368	-0.994692	-0.240768	0.967755	0.074042	0.966643	0.245958	-0.071456
49616		-0.096925	0.063565	-0.993260	-0.263546	0.960698	0.087199	0.959765	0.270222	-0.076363
49617		-0.106766	0.072942	-0.991605	-0.285374	0.953097	0.100836	0.952451	0.293744	-0.080942
49618		-0.116253	0.081469	-0.989873	-0.308015	0.944537	0.113912	0.944252	0.318138	-0.084711
49619		-0.124895	0.089849	-0.988093	-0.328882	0.935837	0.126668	0.936076	0.340787	-0.087332
49620		-0.132825	0.097362	-0.986346	-0.348421	0.927060	0.138430	0.927880	0.362050	-0.089214
49621		-0.140685	0.104589	-0.984515	-0.366232	0.918371	0.149896	0.919827	0.381649	-0.090897
49622		-0.148359	0.110796	-0.982707	-0.383064	0.909690	0.160395	0.911730	0.400236	-0.092519
49623		-0.155747	0.116679	-0.980882	-0.398758	0.901067	0.170500	0.903734	0.417689	-0.093812
49624		-0.162681	0.121759	-0.979137	-0.414800	0.891964	0.179837	0.895252	0.435402	-0.094600
49625		-0.169018	0.126858	-0.977415	-0.431489	0.882076	0.189099	0.886143	0.453705	-0.094349
49626		-0.174644	0.131427	-0.975821	-0.449509	0.871107	0.197773	0.876037	0.473180	-0.093055
49628		-0.184530	0.140245	-0.972769	-0.485087	0.847813	0.214249	0.854774	0.511413	-0.088416
49629		-0.188711	0.144036	-0.971412	-0.501599	0.836278	0.221442	0.844267	0.529048	-0.085566
49631		-0.196224	0.150457	-0.968947	-0.529025	0.815762	0.233805	0.825608	0.558476	-0.080476
49632		-0.199340	0.152991	-0.967914	-0.541114	0.806305	0.238888	0.816982	0.571372	-0.077943
49633		-0.202085	0.155416	-0.966958	-0.551496	0.797849	0.243493	0.809329	0.582480	-0.075522
49634		-0.204151	0.157302	-0.966219	-0.561023	0.790042	0.247158	0.802231	0.592529	-0.073038
49635		-0.205640	0.159004	-0.965624	-0.568765	0.783539	0.250145	0.796378	0.600653	-0.070692
49636		-0.206487	0.159940	-0.965289	-0.575426	0.778060	0.252008	0.791359	0.607488	-0.068626
49637		-0.206736	0.160514	-0.965140	-0.580499	0.773939	0.253060	0.787579	0.612579	-0.066823
49638		-0.206412	0.160140	-0.965272	-0.584678	0.770836	0.252910	0.784567	0.616577	-0.065479
49639		-0.205490	0.159462	-0.965581	-0.588435	0.768238	0.252099	0.781996	0.619985	-0.064032
49641		-0.201261	0.157405	-0.966808	-0.599346	0.760894	0.248646	0.774776	0.629495	-0.058798
49642		-0.198200	0.156520	-0.967584	-0.606812	0.755645	0.246535	0.769738	0.636005	-0.054790
49643		-0.194590	0.155534	-0.968475	-0.615943	0.749035	0.244051	0.763380	0.644016	-0.049954
49644		-0.190748	0.154700	-0.969373	-0.625775	0.741676	0.241499	0.756320	0.652675	-0.044666
49645		-0.187106	0.153326	-0.970300	-0.636014	0.733861	0.238609	0.748650	0.661770	-0.039793
49646		-0.184007	0.151883	-0.971119	-0.645753	0.726181	0.235931	0.741043	0.670516	-0.035543
49647		-0.181706	0.149968	-0.971850	-0.654777	0.718896	0.233357	0.733655	0.678748	-0.032432
49648		-0.180357	0.148045	-0.972396	-0.661913	0.712995	0.231322	0.727559	0.685362	-0.030601
49649		-0.180077	0.145310	-0.972860	-0.667693	0.708219	0.229373	0.722328	0.690877	-0.030512
49650		-0.180864	0.141941	-0.973212	-0.671350	0.705317	0.227634	0.718733	0.694537	-0.032275
49651		-0.182288	0.137785	-0.973543	-0.674135	0.703260	0.225758	0.715760	0.697453	-0.035311
49652		-0.184047	0.133780	-0.973771	-0.677010	0.700975	0.224260	0.712590	0.700527	-0.038441
49653		-0.185754	0.129846	-0.973979	-0.680535	0.698006	0.222844	0.708779	0.704221	-0.041292
49654		-0.187386	0.126368	-0.974124	-0.684123	0.694843	0.221739	0.704884	0.707972	-0.043753
49655		-0.188751	0.122706	-0.974329	-0.687608	0.691843	0.220336	0.701119	0.711545	-0.046213
49656		-0.189896	0.119174	-0.974545	-0.689982	0.689959	0.218820	0.698473	0.713971	-0.048792
49657		-0.190415	0.115277	-0.974912	-0.691689	0.688960	0.216562	0.696641	0.715573	-0.051452
49658		-0.190666	0.111227	-0.975333	-0.692953	0.688497	0.213981	0.695314	0.716659	-0.054198
49659		-0.190909	0.106082	-0.975859	-0.694991	0.687456	0.210693	0.693211	0.718436	-0.057515
49660		-0.191223	0.099979	-0.976441	-0.697763	0.685808	0.206868	0.690334	0.720882	-0.061381
49661		-0.191206	0.092438	-0.977187	-0.701601	0.683361	0.201926	0.686437	0.724205	-0.065808
49662		-0.190549	0.084182	-0.978062	-0.704711	0.681889	0.195984	0.683428	0.726595	-0.070609
49663		-0.189084	0.074860	-0.979103	-0.708304	0.680193	0.188793	0.680112	0.729201	-0.075590
49664		-0.186938	0.064989	-0.980220	-0.711011	0.679579	0.180654	0.677877	0.730718	-0.080831
49665		-0.184266	0.054899	-0.981342	-0.713728	0.678976	0.172000	0.675750	0.732105	-0.085929
49666		-0.182435	0.044651	-0.982204	-0.715374	0.679282	0.163754	0.674505	0.732517	-0.091982
49667		-0.182602	0.034282	-0.982589	-0.716701	0.679502	0.156898	0.673050	0.732872	-0.099509
49668		-0.185050	0.024938	-0.982413	-0.717660	0.679507	0.152429	0.671358	0.733245	-0.107846
49669		-0.188675	0.016688	-0.981898	-0.718355	0.679405	0.149582	0.669602	0.733574	-0.116199
49670		-0.192177	0.010649	-0.981303	-0.719637	0.678330	0.148294	0.667226	0.734681	-0.122696
49671		-0.193981	0.006021	-0.980987	-0.723525	0.674419	0.147210	0.662482	0.738325	-0.126468
49672		-0.194076	0.002041	-0.980984	-0.728710	0.669175	0.145558	0.656747	0.743102	-0.128383
49673		-0.192380	-0.002754	-0.981317	-0.733294	0.664941	0.141891	0.652127	0.746891	-0.129941
49674		-0.188993	-0.008158	-0.981945	-0.734813	0.664514	0.135907	0.651407	0.747231	-0.131583
49675		-0.185098	-0.015902	-0.982591	-0.733222	0.667964	0.127312	0.654312	0.744023	-0.135298
49676		-0.181764	-0.025847	-0.983002	-0.729919	0.673400	0.117261	0.658923	0.738826	-0.141266
49677		-0.179126	-0.037699	-0.983104	-0.726760	0.678601	0.106397	0.663124	0.733539	-0.148954
49678		-0.177119	-0.049935	-0.982922	-0.724048	0.683069	0.095769	0.666621	0.728645	-0.157139
49679		-0.174526	-0.061182	-0.982750	-0.722181	0.686397	0.085519	0.669324	0.724649	-0.163978
49680		-0.171261	-0.070764	-0.982681	-0.721578	0.688127	0.076203	0.670817	0.722131	-0.168911
49681		-0.167338	-0.078746	-0.982750	-0.721909	0.688664	0.067742	0.671450	0.720792	-0.172087
49682		-0.163542	-0.085062	-0.982862	-0.722874	0.688307	0.060712	0.671347	0.720415	-0.174056
49683		-0.160242	-0.090497	-0.982921	-0.724497	0.687092	0.054852	0.670393	0.720913	-0.175666
49684		-0.157607	-0.094841	-0.982937	-0.727115	0.684654	0.050527	0.668179	0.722672	-0.176866
49685		-0.154955	-0.098259	-0.983023	-0.730419	0.681378	0.047029	0.665189	0.725306	-0.177353
49686		-0.152999	-0.101907	-0.982958	-0.733263	0.678534	0.043787	0.662508	0.727466	-0.178540
49687		-0.151386	-0.106201	-0.982753	-0.736647	0.675062	0.040524	0.659116	0.730077	-0.180428
49688		-0.149497	-0.110657	-0.982551	-0.739815	0.671797	0.036905	0.655991	0.732423	-0.182297
49689		-0.147188	-0.116070	-0.982275	-0.741808	0.669849	0.032003	0.654261	0.733369	-0.184695
49690		-0.144848	-0.122585	-0.981831	-0.741596	0.670354	0.025710	0.655023	0.731845	-0.188008
49691		-0.142292	-0.129969	-0.981255	-0.739722	0.672667	0.018171	0.657696	0.728442	-0.191856
49692		-0.139502	-0.137095	-0.980686	-0.736716	0.676124	0.010278	0.661656	0.723920	-0.195321
49693		-0.136484	-0.143936	-0.980130	-0.733415	0.679778	0.002301	0.665939	0.719156	-0.198343
49694		-0.133463	-0.150429	-0.979571	-0.729899	0.683532	-0.005521	0.670399	0.714251	-0.201024
49695		-0.130201	-0.156675	-0.979030	-0.726307	0.687240	-0.013388	0.674927	0.709333	-0.203273
49696		-0.126835	-0.162410	-0.978538	-0.722167	0.691395	-0.021147	0.679991	0.703985	-0.204981
49697		-0.123181	-0.167625	-0.978125	-0.718141	0.695305	-0.028717	0.684909	0.698894	-0.206027
49698		-0.119596	-0.172365	-0.977746	-0.714498	0.698722	-0.035780	0.689340	0.694319	-0.206719
49699		-0.116278	-0.177023	-0.977314	-0.710259	0.702640	-0.042767	0.694271	0.689173	-0.207434
49700		-0.113196	-0.181392	-0.976874	-0.705585	0.706894	-0.049500	0.699526	0.683665	-0.208005
49701		-0.110081	-0.185595	-0.976441	-0.700698	0.711242	-0.056194	0.704915	0.678004	-0.208340
49702		-0.107086	-0.189762	-0.975973	-0.695647	0.715633	-0.062815	0.710358	0.672206	-0.208641
49703		-0.103971	-0.194007	-0.975475	-0.690879	0.719624	-0.069484	0.715455	0.666711	-0.208855
49704		-0.101044	-0.198307	-0.974918	-0.686432	0.723215	-0.075964	0.720140	0.661539	-0.209201
49705		-0.098173	-0.202789	-0.974289	-0.682434	0.726287	-0.082406	0.724324	0.656798	-0.209692
49706		-0.095352	-0.207183	-0.973644	-0.678702	0.729042	-0.088667	0.728198	0.652359	-0.210131
49707		-0.092473	-0.211537	-0.972986	-0.675662	0.731099	-0.094733	0.731389	0.648649	-0.210535
49708		-0.089639	-0.215721	-0.972332	-0.673487	0.732350	-0.100390	0.733744	0.645854	-0.210932
49709		-0.086994	-0.220042	-0.971604	-0.671594	0.733306	-0.105942	0.735795	0.643307	-0.211572
49710		-0.084601	-0.224355	-0.970828	-0.670035	0.733950	-0.111224	0.737493	0.641079	-0.212419
49711		-0.082377	-0.228813	-0.969979	-0.668004	0.734959	-0.116642	0.739584	0.638341	-0.213392
49712		-0.080307	-0.233290	-0.969085	-0.665288	0.736523	-0.122173	0.742255	0.634909	-0.214353
49713		-0.078364	-0.237832	-0.968140	-0.661832	0.738663	-0.127888	0.745545	0.630724	-0.215289
49714		-0.076631	-0.242480	-0.967125	-0.657652	0.741351	-0.133764	0.749414	0.625781	-0.216278
49715		-0.074991	-0.247275	-0.966039	-0.652347	0.744874	-0.140024	0.754202	0.619692	-0.217168
49717		-0.072155	-0.256748	-0.963781	-0.637771	0.754810	-0.153331	0.766839	0.603608	-0.218210
49718		-0.070900	-0.261415	-0.962619	-0.629405	0.760397	-0.160141	0.773836	0.594523	-0.218448
49719		-0.069930	-0.266001	-0.961433	-0.620967	0.765898	-0.166736	0.780711	0.585358	-0.218737
49720		-0.068901	-0.270564	-0.960233	-0.612936	0.770908	-0.173237	0.787123	0.576625	-0.218954
49721		-0.068093	-0.274988	-0.959033	-0.605001	0.775734	-0.179473	0.793308	0.567995	-0.219190
49722		-0.067531	-0.279412	-0.957794	-0.598317	0.779556	-0.185230	0.798409	0.560555	-0.219821
49723		-0.067667	-0.283849	-0.956478	-0.592965	0.782431	-0.190248	0.802380	0.554284	-0.221257
49724		-0.068351	-0.288223	-0.955121	-0.588899	0.784435	-0.194573	0.805311	0.549171	-0.223352
49725		-0.069399	-0.292125	-0.953859	-0.585459	0.786112	-0.198156	0.807726	0.544694	-0.225582
49726		-0.070374	-0.295469	-0.952757	-0.583031	0.787179	-0.201056	0.809396	0.541338	-0.227665
49727		-0.071288	-0.298106	-0.951867	-0.582209	0.787298	-0.202963	0.809908	0.539717	-0.229685
49728		-0.071192	-0.299990	-0.951282	-0.582860	0.786447	-0.204388	0.809448	0.539913	-0.230841
49729		-0.070547	-0.301312	-0.950912	-0.584588	0.784915	-0.205343	0.808257	0.541406	-0.231516
49730		-0.069271	-0.302572	-0.950606	-0.586646	0.783074	-0.206498	0.806876	0.543365	-0.231747
49731		-0.068003	-0.303833	-0.950295	-0.587953	0.781731	-0.207865	0.806031	0.544594	-0.231800
49732		-0.066710	-0.305497	-0.949853	-0.588591	0.780742	-0.209768	0.805674	0.545082	-0.231896
49733		-0.065625	-0.307282	-0.949353	-0.588470	0.780265	-0.211873	0.805852	0.544761	-0.232031
49734		-0.064502	-0.309369	-0.948752	-0.587698	0.780147	-0.214435	0.806505	0.543748	-0.232137
49735		-0.063730	-0.311401	-0.948139	-0.586566	0.780329	-0.216859	0.807390	0.542325	-0.232387
49736		-0.063197	-0.313712	-0.947413	-0.584535	0.781074	-0.219642	0.808904	0.539915	-0.232737
49737		-0.062452	-0.315710	-0.946798	-0.580954	0.782870	-0.222728	0.811537	0.536136	-0.232305
49738		-0.060996	-0.317387	-0.946332	-0.576056	0.785460	-0.226303	0.815132	0.531336	-0.230743
49739		-0.059074	-0.318494	-0.946082	-0.570693	0.788364	-0.229765	0.819036	0.526350	-0.228335
49740		-0.056388	-0.319587	-0.945878	-0.564570	0.791580	-0.233797	0.823457	0.520831	-0.225065
49741		-0.053356	-0.320450	-0.945762	-0.558474	0.794717	-0.237765	0.827805	0.515497	-0.221366
49742		-0.050201	-0.321439	-0.945599	-0.553221	0.797221	-0.241631	0.831521	0.510995	-0.217849
49743		-0.047408	-0.322327	-0.945441	-0.549143	0.799047	-0.244881	0.834383	0.507573	-0.214884
49744		-0.044652	-0.322997	-0.945346	-0.546857	0.799824	-0.247446	0.836035	0.505920	-0.212347
49745		-0.041998	-0.323073	-0.945442	-0.545661	0.800105	-0.249170	0.836953	0.505427	-0.209891
49746		-0.039400	-0.322790	-0.945650	-0.544659	0.800370	-0.250507	0.837731	0.505187	-0.207345
49747		-0.037054	-0.321507	-0.946182	-0.543569	0.800993	-0.250886	0.838546	0.505019	-0.204442
49748		-0.035076	-0.319338	-0.946991	-0.541970	0.802214	-0.250443	0.839666	0.504456	-0.201210
49749		-0.034317	-0.315785	-0.948210	-0.538997	0.804810	-0.248521	0.841609	0.502553	-0.197826
49750		-0.034473	-0.310939	-0.949804	-0.534841	0.808565	-0.245290	0.844249	0.499539	-0.194177
49751		-0.035863	-0.303911	-0.952025	-0.529036	0.813979	-0.239914	0.847841	0.495052	-0.189972
49752		-0.037969	-0.294774	-0.954812	-0.521517	0.820898	-0.232693	0.852396	0.489116	-0.184898
49753		-0.040815	-0.282596	-0.958370	-0.511885	0.829648	-0.222840	0.858084	0.481480	-0.178519
49754		-0.043388	-0.267248	-0.962651	-0.501631	0.839120	-0.210344	0.863993	0.473769	-0.170467
49755		-0.046090	-0.248151	-0.967624	-0.492448	0.848417	-0.194124	0.869121	0.467557	-0.161305
49756		-0.048509	-0.226491	-0.972805	-0.487642	0.855359	-0.174831	0.871695	0.465899	-0.151939
49757		-0.051635	-0.202318	-0.977958	-0.490314	0.858248	-0.151665	0.870015	0.471675	-0.143514
49758		-0.055774	-0.177190	-0.982595	-0.500031	0.856775	-0.126118	0.864209	0.484294	-0.136386
49759		-0.062332	-0.151649	-0.986467	-0.511712	0.853450	-0.098867	0.856893	0.498624	-0.130798
49760		-0.070696	-0.127817	-0.989275	-0.522134	0.849778	-0.072481	0.849928	0.511410	-0.126814
49761		-0.079688	-0.105606	-0.991210	-0.527186	0.848393	-0.048007	0.846005	0.518727	-0.123280
49762		-0.087708	-0.085484	-0.992472	-0.526281	0.849892	-0.026694	0.845775	0.519978	-0.119531
49763		-0.093772	-0.066647	-0.993360	-0.521855	0.852997	-0.007967	0.847865	0.517643	-0.114767
49764		-0.097794	-0.050218	-0.993939	-0.513925	0.857805	0.007225	0.852243	0.511516	-0.109696
49765		-0.101319	-0.034768	-0.994246	-0.505656	0.862470	0.021369	0.856765	0.504912	-0.104965
49766		-0.107458	-0.020522	-0.993998	-0.500489	0.864984	0.036248	0.859048	0.501380	-0.103220
49767		-0.115767	-0.006517	-0.993255	-0.494233	0.867778	0.051910	0.861587	0.496908	-0.103681
49768		-0.123769	0.007932	-0.992279	-0.487115	0.870708	0.067719	0.864523	0.491736	-0.103903
49769		-0.131160	0.023450	-0.991084	-0.480624	0.872869	0.084258	0.867063	0.487390	-0.103215
49770		-0.138304	0.039143	-0.989616	-0.474803	0.874285	0.100937	0.869157	0.483833	-0.102332
49771		-0.146585	0.054737	-0.987682	-0.469002	0.875264	0.118113	0.870948	0.480538	-0.102629
49772		-0.154834	0.069775	-0.985473	-0.466430	0.874168	0.135178	0.870901	0.480584	-0.102806
49773		-0.162096	0.084623	-0.983140	-0.467412	0.870870	0.152025	0.869052	0.484174	-0.101611
49774		-0.168764	0.098092	-0.980763	-0.473261	0.864768	0.167927	0.864605	0.492497	-0.099518
49775		-0.175571	0.110706	-0.978222	-0.482157	0.856655	0.183486	0.858312	0.503871	-0.097026
49776		-0.182106	0.122224	-0.975653	-0.492895	0.847229	0.198135	0.850818	0.516976	-0.094042
49777		-0.188952	0.132711	-0.972977	-0.503631	0.837494	0.212037	0.843002	0.530087	-0.091408
49778		-0.196255	0.141449	-0.970297	-0.513394	0.828245	0.224581	0.835410	0.542220	-0.089928
49779		-0.204180	0.149010	-0.967526	-0.521784	0.819682	0.236354	0.828282	0.553099	-0.089612
49780		-0.212189	0.155250	-0.964818	-0.529114	0.811808	0.246995	0.821593	0.562908	-0.090111
49781		-0.219444	0.161294	-0.962200	-0.536779	0.803589	0.257126	0.814686	0.572913	-0.089763
49782		-0.225380	0.166958	-0.959859	-0.545575	0.794620	0.266321	0.807188	0.583698	-0.088003
49783		-0.230823	0.171926	-0.957686	-0.554801	0.785325	0.274702	0.799323	0.594733	-0.085887
49784		-0.235812	0.175786	-0.955768	-0.564657	0.775663	0.281976	0.790921	0.606174	-0.083652
49785		-0.240603	0.178673	-0.954037	-0.573692	0.766669	0.288264	0.782935	0.616681	-0.081960
49786		-0.245151	0.180038	-0.952621	-0.581315	0.759072	0.293057	0.775870	0.625616	-0.081428
49787		-0.249220	0.180755	-0.951429	-0.587667	0.752650	0.296926	0.769764	0.633123	-0.081352
49788		-0.252352	0.180999	-0.950556	-0.593372	0.747025	0.299772	0.764348	0.639681	-0.081114
49789		-0.255002	0.180863	-0.949875	-0.598660	0.741900	0.301978	0.759329	0.645658	-0.080910
49790		-0.256773	0.180166	-0.949530	-0.604339	0.736770	0.303222	0.754216	0.651698	-0.080301
49791		-0.257756	0.179297	-0.949428	-0.610406	0.731489	0.303856	0.748977	0.657858	-0.079101
49793		-0.255715	0.176505	-0.950503	-0.622167	0.722481	0.301545	0.739945	0.668481	-0.074934
49794		-0.252942	0.175114	-0.951502	-0.626977	0.719349	0.299061	0.736831	0.672215	-0.072161
49795		-0.249049	0.173668	-0.952793	-0.631731	0.716558	0.295736	0.734091	0.675562	-0.068747
49796		-0.244254	0.172336	-0.954275	-0.636623	0.713813	0.291859	0.731471	0.678801	-0.064639
49797		-0.238690	0.170944	-0.955932	-0.641577	0.711192	0.287376	0.728976	0.681897	-0.060080
49798		-0.232484	0.169662	-0.957688	-0.647036	0.708181	0.282531	0.726151	0.685343	-0.054864
49799		-0.225517	0.168351	-0.959583	-0.653915	0.703963	0.277185	0.722176	0.689995	-0.048669
49800		-0.218428	0.166954	-0.961465	-0.661365	0.699143	0.271653	0.717555	0.695216	-0.042295
49801		-0.212073	0.164784	-0.963261	-0.668396	0.694622	0.265983	0.712932	0.700248	-0.037169
49802		-0.207081	0.161908	-0.964833	-0.674093	0.691127	0.260658	0.709025	0.704364	-0.033979
49803		-0.203282	0.158487	-0.966208	-0.679156	0.688000	0.255742	0.705283	0.708193	-0.032221
49804		-0.200812	0.154433	-0.967380	-0.685487	0.683313	0.251380	0.699845	0.713606	-0.031356
49805		-0.198446	0.150346	-0.968512	-0.694459	0.675739	0.247191	0.691626	0.721646	-0.029689
49806		-0.195579	0.146701	-0.969653	-0.704145	0.667193	0.242967	0.682590	0.730296	-0.027190
49807		-0.192985	0.143075	-0.970714	-0.712700	0.659534	0.238900	0.674400	0.737932	-0.025310
49808		-0.192208	0.138490	-0.971533	-0.719164	0.653727	0.235467	0.667727	0.743950	-0.026054
49809		-0.193338	0.132742	-0.972111	-0.723573	0.649860	0.232646	0.662618	0.748373	-0.029594
49810		-0.195716	0.126948	-0.972409	-0.725730	0.648152	0.230683	0.659553	0.750855	-0.034724
49811		-0.198396	0.121414	-0.972573	-0.724901	0.649683	0.228978	0.659665	0.750447	-0.040881
49812		-0.201248	0.116316	-0.972610	-0.721774	0.653665	0.227519	0.662225	0.747792	-0.047594
49813		-0.203675	0.111467	-0.972672	-0.718312	0.658051	0.225825	0.665240	0.744677	-0.053961
49814		-0.205676	0.107107	-0.972741	-0.715454	0.661731	0.224137	0.667700	0.742051	-0.059472
49815		-0.207295	0.102193	-0.972926	-0.713647	0.664449	0.221843	0.669131	0.740313	-0.064807
49816		-0.208653	0.096466	-0.973221	-0.712448	0.666732	0.218831	0.669987	0.739028	-0.070389
49817		-0.209269	0.089637	-0.973741	-0.711841	0.668769	0.214547	0.670439	0.738047	-0.076145
49818		-0.209043	0.082089	-0.974455	-0.711820	0.670488	0.209184	0.670532	0.737365	-0.081728
49819		-0.207773	0.073270	-0.975429	-0.712661	0.671718	0.202258	0.670033	0.737174	-0.087348
49820		-0.205515	0.063609	-0.976585	-0.714139	0.672558	0.194091	0.669156	0.737306	-0.092795
49821		-0.201784	0.054019	-0.977939	-0.716643	0.672453	0.185014	0.667612	0.738166	-0.096978
49822		-0.196947	0.045436	-0.979361	-0.720689	0.670536	0.176037	0.664695	0.740484	-0.099315
49823		-0.192012	0.037790	-0.980665	-0.725096	0.667913	0.167711	0.661337	0.743279	-0.100846
49824		-0.189224	0.031358	-0.981433	-0.727727	0.666556	0.161606	0.659248	0.744795	-0.103309
49825		-0.190206	0.025003	-0.981426	-0.728300	0.666762	0.158136	0.658331	0.744851	-0.108612
49826		-0.194835	0.018626	-0.980659	-0.728688	0.666505	0.157433	0.656546	0.745268	-0.116285
49827		-0.200982	0.013255	-0.979505	-0.732860	0.661462	0.159325	0.650017	0.749861	-0.123228
49828		-0.207376	0.010366	-0.978206	-0.741476	0.650607	0.164084	0.638129	0.759344	-0.127234
49829		-0.213329	0.009055	-0.976938	-0.754066	0.634272	0.170541	0.621189	0.773057	-0.128480
49830		-0.217630	0.008409	-0.975995	-0.766319	0.617826	0.176199	0.604477	0.786270	-0.128013
49831		-0.219768	0.005398	-0.975537	-0.773350	0.608599	0.177588	0.594669	0.793460	-0.129576
49832		-0.219718	0.000180	-0.975563	-0.774493	0.608025	0.174545	0.593198	0.793918	-0.133455
49833		-0.216947	-0.006572	-0.976161	-0.771371	0.614001	0.167299	0.598264	0.789278	-0.138275
49834		-0.213105	-0.015390	-0.976908	-0.765223	0.624304	0.157092	0.607470	0.781030	-0.144819
49835		-0.209778	-0.026799	-0.977382	-0.757957	0.635928	0.145246	0.617652	0.771283	-0.153716
49836		-0.207952	-0.039321	-0.977348	-0.750862	0.646777	0.133741	0.626867	0.761665	-0.164023
49837		-0.206524	-0.050933	-0.977115	-0.745488	0.654992	0.123425	0.633716	0.753917	-0.173242
49838		-0.204820	-0.060453	-0.976931	-0.742639	0.659766	0.114873	0.637602	0.749036	-0.180028
49839		-0.201983	-0.067716	-0.977045	-0.741866	0.661877	0.107492	0.639404	0.746548	-0.183924
49840		-0.198534	-0.073271	-0.977351	-0.741777	0.663001	0.100976	0.640586	0.745024	-0.185979
49841		-0.195214	-0.078115	-0.977645	-0.741918	0.663710	0.095113	0.641443	0.743900	-0.187520
49842		-0.192067	-0.082255	-0.977929	-0.742632	0.663620	0.090036	0.641567	0.743534	-0.188545
49843		-0.188580	-0.085473	-0.978331	-0.744378	0.662245	0.085626	0.640577	0.744396	-0.188511
49844		-0.184946	-0.088471	-0.978758	-0.748115	0.658503	0.081841	0.637275	0.747360	-0.187974
49845		-0.181449	-0.092062	-0.979082	-0.752226	0.654286	0.077885	0.633429	0.750623	-0.187971
49846		-0.178151	-0.096423	-0.979268	-0.755783	0.650693	0.073424	0.630123	0.753194	-0.188796
49847		-0.174882	-0.101778	-0.979315	-0.756698	0.650265	0.067547	0.629940	0.752859	-0.190735
49848		-0.171618	-0.108138	-0.979211	-0.754843	0.653141	0.060166	0.633056	0.749475	-0.193718
49849		-0.167357	-0.114660	-0.979206	-0.751328	0.657926	0.051370	0.638355	0.744302	-0.196256
49850		-0.161940	-0.121045	-0.979349	-0.747315	0.663166	0.041607	0.644435	0.738620	-0.197852
49851		-0.156302	-0.127563	-0.979437	-0.742065	0.669601	0.031212	0.651850	0.731685	-0.199320
49852		-0.151091	-0.134182	-0.979371	-0.736758	0.675828	0.021068	0.659059	0.724743	-0.200971
49853		-0.146170	-0.140468	-0.979236	-0.731817	0.681404	0.011493	0.665641	0.718301	-0.202398
49854		-0.141711	-0.146897	-0.978948	-0.726578	0.687080	0.002078	0.672311	0.711577	-0.204099
49855		-0.137276	-0.153026	-0.978641	-0.721163	0.692729	-0.007160	0.679029	0.704776	-0.205452
49856		-0.132732	-0.159059	-0.978306	-0.715939	0.697971	-0.016345	0.685429	0.698238	-0.206520
49857		-0.128200	-0.164729	-0.977972	-0.710873	0.702869	-0.025205	0.691538	0.691982	-0.207209
49858		-0.123607	-0.169863	-0.977685	-0.706351	0.707066	-0.033544	0.696986	0.686443	-0.207381
49859		-0.119011	-0.174273	-0.977479	-0.702308	0.710680	-0.041198	0.701854	0.681589	-0.206972
49860		-0.114802	-0.178392	-0.977239	-0.698730	0.713759	-0.048210	0.706114	0.677292	-0.206589
49861		-0.111064	-0.182293	-0.976951	-0.695818	0.716146	-0.054525	0.709579	0.673724	-0.206381
49862		-0.107794	-0.186117	-0.976597	-0.693758	0.717688	-0.060199	0.712095	0.671033	-0.206483
49863		-0.104873	-0.189907	-0.976185	-0.692525	0.718427	-0.065364	0.713730	0.669177	-0.206858
49864		-0.102150	-0.193783	-0.975712	-0.692421	0.718078	-0.070124	0.714226	0.668440	-0.207531
49865		-0.099383	-0.197656	-0.975221	-0.693773	0.716331	-0.074484	0.713303	0.669180	-0.208320
49866		-0.096551	-0.201658	-0.974686	-0.695582	0.714108	-0.078842	0.711930	0.670361	-0.209218
49867		-0.093705	-0.205777	-0.974102	-0.696775	0.712417	-0.083469	0.711143	0.670908	-0.210137
49868		-0.090624	-0.209876	-0.973519	-0.697035	0.711553	-0.088513	0.711287	0.670555	-0.210774
49869		-0.087431	-0.214043	-0.972904	-0.696548	0.711339	-0.093901	0.712163	0.669464	-0.211284
49870		-0.084471	-0.218689	-0.972132	-0.695741	0.711358	-0.099571	0.713308	0.667941	-0.212240
49871		-0.081729	-0.223545	-0.971261	-0.694829	0.711428	-0.105273	0.714516	0.666256	-0.213470
49872		-0.079036	-0.228525	-0.970325	-0.694104	0.711270	-0.110977	0.715523	0.664735	-0.214836
49873		-0.076188	-0.233278	-0.969421	-0.693289	0.711157	-0.116644	0.716621	0.663202	-0.215911
49874		-0.073169	-0.237831	-0.968547	-0.692476	0.711003	-0.122277	0.717721	0.661749	-0.216716
49875		-0.070082	-0.242026	-0.967735	-0.692125	0.710418	-0.127549	0.718367	0.660855	-0.217300
49876		-0.066962	-0.245872	-0.966987	-0.692058	0.709577	-0.132498	0.718729	0.660338	-0.217672
49877		-0.063820	-0.249296	-0.966322	-0.692553	0.708243	-0.136976	0.718539	0.660487	-0.217851
49878		-0.060872	-0.252648	-0.965642	-0.693235	0.706743	-0.141210	0.718137	0.660821	-0.218165
49879		-0.057775	-0.255654	-0.965040	-0.694370	0.704827	-0.145150	0.717295	0.661709	-0.218240
49880		-0.054846	-0.258466	-0.964462	-0.696176	0.702318	-0.148625	0.715773	0.663284	-0.218457
49881		-0.051812	-0.260970	-0.963956	-0.698935	0.698923	-0.151650	0.713306	0.665885	-0.218613
49882		-0.049224	-0.263295	-0.963459	-0.702880	0.694466	-0.153874	0.709603	0.669621	-0.219249
49883		-0.046998	-0.265374	-0.962999	-0.707184	0.689707	-0.155549	0.705466	0.673707	-0.220083
49884		-0.045383	-0.266989	-0.962631	-0.710728	0.685792	-0.156699	0.702002	0.677057	-0.220880
49885		-0.043852	-0.267815	-0.962472	-0.713205	0.683018	-0.157560	0.699582	0.679530	-0.220959
49886		-0.043188	-0.268478	-0.962317	-0.715661	0.680410	-0.157710	0.697112	0.681881	-0.221525
49887		-0.042512	-0.268656	-0.962298	-0.718566	0.677418	-0.157378	0.694158	0.684784	-0.221845
49888		-0.042092	-0.268615	-0.962327	-0.721649	0.674302	-0.156654	0.690979	0.687868	-0.222229
49889		-0.041427	-0.268253	-0.962457	-0.724162	0.671741	-0.156055	0.688384	0.690510	-0.222087
49890		-0.040689	-0.267973	-0.962567	-0.725473	0.670348	-0.155954	0.687046	0.691971	-0.221684
49891		-0.039721	-0.267892	-0.962630	-0.725573	0.670103	-0.156545	0.686998	0.692240	-0.220992
49892		-0.038581	-0.268177	-0.962597	-0.724502	0.670946	-0.157886	0.688192	0.691312	-0.220180
49893		-0.037282	-0.268962	-0.962429	-0.722766	0.672342	-0.159895	0.690087	0.689649	-0.219463
49894		-0.035687	-0.270190	-0.962145	-0.720113	0.674510	-0.162707	0.692939	0.687047	-0.218638
49895		-0.033717	-0.271749	-0.961777	-0.717012	0.676972	-0.166141	0.696245	0.684004	-0.217673
49896		-0.031595	-0.273696	-0.961297	-0.713779	0.679429	-0.169984	0.699658	0.680784	-0.216825
49897		-0.028865	-0.275463	-0.960878	-0.710223	0.682083	-0.174203	0.703385	0.677409	-0.215329
49898		-0.025790	-0.277024	-0.960517	-0.706061	0.685240	-0.178673	0.707681	0.673575	-0.213268
49899		-0.022341	-0.278293	-0.960236	-0.701550	0.688653	-0.183261	0.712270	0.669560	-0.210622
49900		-0.019071	-0.279523	-0.959949	-0.697534	0.691579	-0.187520	0.716297	0.666022	-0.208166
49901		-0.015710	-0.280327	-0.959776	-0.693972	0.694104	-0.191372	0.719831	0.663051	-0.205444
49902		-0.012414	-0.280710	-0.959712	-0.689825	0.697218	-0.195009	0.723870	0.659613	-0.202296
49903		-0.009411	-0.280574	-0.959786	-0.685722	0.700408	-0.198026	0.727803	0.656283	-0.198987
49904		-0.006842	-0.279852	-0.960019	-0.682564	0.702916	-0.200040	0.730794	0.653905	-0.195826
49905		-0.004431	-0.278148	-0.960528	-0.680660	0.704522	-0.200874	0.732586	0.652903	-0.192446
49906		-0.002458	-0.275213	-0.961380	-0.680316	0.705074	-0.200102	0.732915	0.653550	-0.188965
49907		-0.000855	-0.270971	-0.962587	-0.681514	0.704584	-0.197737	0.731805	0.655847	-0.185273
49908		-0.000253	-0.265454	-0.964123	-0.683066	0.704200	-0.193710	0.730357	0.658510	-0.181501
49909		-0.000575	-0.258542	-0.966000	-0.683974	0.704805	-0.188229	0.729506	0.660610	-0.177241
49910		-0.002200	-0.249944	-0.968258	-0.683412	0.707237	-0.181011	0.730030	0.661320	-0.172370
49911		-0.004643	-0.239497	-0.970886	-0.681139	0.711597	-0.172279	0.732140	0.660508	-0.166435
49912		-0.008033	-0.226718	-0.973927	-0.677423	0.717652	-0.161473	0.735550	0.658464	-0.159349
49913		-0.012106	-0.211699	-0.977260	-0.673064	0.724500	-0.148607	0.739485	0.655959	-0.151258
49914		-0.017185	-0.194049	-0.980841	-0.668869	0.731390	-0.132979	0.743182	0.653769	-0.142362
49915		-0.022778	-0.174740	-0.984351	-0.665762	0.737177	-0.115456	0.745816	0.652714	-0.133127
49916		-0.029391	-0.154291	-0.987588	-0.664599	0.741009	-0.095990	0.746622	0.653529	-0.124320
49917		-0.036983	-0.133635	-0.990340	-0.664056	0.743853	-0.075576	0.746767	0.654847	-0.116251
49918		-0.046106	-0.113088	-0.992515	-0.662371	0.747201	-0.054367	0.747756	0.654906	-0.109357
49919		-0.055715	-0.093250	-0.994083	-0.658290	0.752012	-0.033647	0.750700	0.652520	-0.103283
49920		-0.065576	-0.073951	-0.995104	-0.651759	0.758307	-0.013403	0.755586	0.647689	-0.097925
49921		-0.074862	-0.055779	-0.995633	-0.642737	0.766068	0.005410	0.762420	0.640335	-0.093200
49922		-0.083863	-0.039188	-0.995706	-0.631575	0.774983	0.022693	0.770766	0.630766	-0.089743
49923		-0.091696	-0.024040	-0.995497	-0.619716	0.783898	0.038153	0.779451	0.620424	-0.086778
49924		-0.099129	-0.010264	-0.995022	-0.608612	0.791732	0.052466	0.787252	0.610783	-0.084730
49925		-0.106681	0.002446	-0.994290	-0.599108	0.797923	0.066243	0.793529	0.602754	-0.083658
49926		-0.114252	0.014965	-0.993339	-0.590721	0.802897	0.080040	0.798746	0.595931	-0.082893
49927		-0.121701	0.027680	-0.992181	-0.582539	0.807351	0.093978	0.803640	0.589422	-0.082131
49928		-0.129504	0.040517	-0.990751	-0.574118	0.811588	0.108234	0.808466	0.582824	-0.081842
49929		-0.137151	0.053007	-0.989131	-0.566904	0.814661	0.122263	0.812287	0.577510	-0.081681
49930		-0.144633	0.065183	-0.987336	-0.562438	0.815539	0.136231	0.814091	0.575019	-0.081293
49931		-0.151423	0.077039	-0.985462	-0.561739	0.813617	0.149920	0.813339	0.576274	-0.079925
49932		-0.157972	0.088089	-0.983507	-0.564808	0.808929	0.163173	0.809961	0.581269	-0.078035
49933		-0.164026	0.098182	-0.981558	-0.571529	0.801554	0.175684	0.804021	0.589806	-0.075362
49934		-0.170092	0.107321	-0.979567	-0.580583	0.792290	0.187616	0.796236	0.600631	-0.072453
49935		-0.176121	0.115265	-0.977597	-0.591050	0.781789	0.198660	0.787173	0.612797	-0.069562
49936		-0.182945	0.122073	-0.975515	-0.601226	0.771193	0.209257	0.777855	0.624787	-0.067692
49937		-0.190091	0.127786	-0.973415	-0.610096	0.761432	0.219099	0.769187	0.635525	-0.066779
49938		-0.196993	0.132916	-0.971353	-0.617641	0.752612	0.228244	0.761389	0.644910	-0.066165
49939		-0.203235	0.137622	-0.969410	-0.624776	0.744088	0.236617	0.753890	0.653754	-0.065242
49940		-0.208945	0.141960	-0.967569	-0.631723	0.735674	0.244356	0.746504	0.662293	-0.064036
49941		-0.214258	0.145450	-0.965887	-0.639083	0.726948	0.251234	0.738692	0.671111	-0.062799
49942		-0.218979	0.148343	-0.964387	-0.646987	0.717771	0.257317	0.730381	0.680293	-0.061201
49943		-0.223293	0.150468	-0.963068	-0.654934	0.708606	0.262561	0.721943	0.689374	-0.059680
49944		-0.227219	0.152372	-0.961850	-0.663490	0.698757	0.267431	0.712848	0.698943	-0.057673
49945		-0.230650	0.154112	-0.960755	-0.672240	0.688617	0.271846	0.703487	0.708559	-0.055229
49946		-0.234136	0.155483	-0.959690	-0.680400	0.678887	0.275986	0.694433	0.717591	-0.053161
49947		-0.237629	0.156440	-0.958676	-0.688301	0.669283	0.279826	0.685401	0.726352	-0.051364
49948		-0.241178	0.157143	-0.957674	-0.694931	0.660854	0.283448	0.677425	0.733879	-0.050180
49949		-0.244272	0.157748	-0.956790	-0.701972	0.651948	0.286705	0.669004	0.741673	-0.048518
49950		-0.247471	0.157957	-0.955933	-0.708655	0.643311	0.289755	0.660731	0.749133	-0.047264
49951		-0.250207	0.157960	-0.955220	-0.716393	0.633468	0.292403	0.651289	0.757474	-0.045337
49952		-0.252764	0.157423	-0.954635	-0.724853	0.622728	0.294613	0.640857	0.766438	-0.043294
49953		-0.255184	0.156298	-0.954176	-0.733654	0.611486	0.296372	0.629788	0.775664	-0.041373
49954		-0.257545	0.154497	-0.953835	-0.742410	0.600182	0.297672	0.618464	0.784801	-0.039873
49955		-0.259571	0.152150	-0.953663	-0.750756	0.589356	0.298371	0.607444	0.793417	-0.038752
49956		-0.261321	0.149742	-0.953566	-0.759064	0.578373	0.298843	0.596266	0.801912	-0.037478
49957		-0.262312	0.147882	-0.953585	-0.767157	0.567493	0.299036	0.585374	0.809989	-0.035411
49958		-0.262632	0.146512	-0.953708	-0.775464	0.556117	0.298980	0.574177	0.818088	-0.032439
49959		-0.262290	0.145501	-0.953957	-0.784467	0.543555	0.298594	0.561974	0.826666	-0.028429
49960		-0.261558	0.144653	-0.954287	-0.794107	0.529734	0.297953	0.548618	0.835738	-0.023686
49961		-0.260379	0.143805	-0.954737	-0.804440	0.514522	0.296888	0.533927	0.845333	-0.018288
49962		-0.259029	0.142981	-0.955228	-0.815554	0.497475	0.295617	0.517470	0.855614	-0.012252
49963		-0.257233	0.142367	-0.955805	-0.827348	0.478630	0.293953	0.499326	0.866398	-0.005332
49964		-0.255273	0.141899	-0.956400	-0.839572	0.458066	0.292053	0.479536	0.877519	0.002203
49965		-0.253231	0.141276	-0.957035	-0.852100	0.435822	0.289801	0.458038	0.888876	0.010018
49966		-0.251422	0.140260	-0.957661	-0.864664	0.412047	0.287356	0.434906	0.900302	0.017680
49967		-0.249778	0.138698	-0.958318	-0.876877	0.387401	0.284619	0.410729	0.911418	0.024857
49968		-0.248390	0.136512	-0.958993	-0.888287	0.362744	0.281713	0.386326	0.921836	0.031160
49969		-0.247070	0.133820	-0.959713	-0.898885	0.338235	0.278573	0.361888	0.931498	0.036721
49970		-0.245983	0.130549	-0.960442	-0.908681	0.313793	0.275379	0.337331	0.940474	0.041439
49971		-0.244979	0.126814	-0.961199	-0.917493	0.290103	0.272114	0.313355	0.948556	0.045282
49972		-0.244387	0.122534	-0.961905	-0.925332	0.267089	0.269118	0.289890	0.955850	0.048111
49973		-0.244064	0.117508	-0.962613	-0.931973	0.245965	0.266321	0.268064	0.962129	0.049483
49974		-0.244067	0.111546	-0.963322	-0.937495	0.226960	0.263804	0.248061	0.967495	0.049180
49975		-0.244047	0.105190	-0.964041	-0.942159	0.209781	0.261398	0.229734	0.972073	0.047910
49976		-0.243893	0.098551	-0.964782	-0.946333	0.193348	0.258980	0.212061	0.976168	0.046105
49977		-0.243385	0.091488	-0.965605	-0.950259	0.176988	0.256286	0.194348	0.979952	0.043861
49978		-0.242639	0.083717	-0.966498	-0.953973	0.160405	0.253389	0.176244	0.983495	0.040943
49979		-0.241358	0.075244	-0.967515	-0.957565	0.143375	0.250026	0.157530	0.986804	0.037446
49980		-0.239707	0.066142	-0.968589	-0.961003	0.125532	0.246402	0.137887	0.989882	0.033472
49981		-0.237512	0.056722	-0.969727	-0.964165	0.107721	0.242451	0.118212	0.992562	0.029104
49982		-0.234974	0.046566	-0.970886	-0.966827	0.091735	0.238391	0.100165	0.994694	0.023466
49983		-0.231955	0.036243	-0.972051	-0.969170	0.076762	0.234129	0.083102	0.996390	0.017321
49984		-0.228442	0.025504	-0.973223	-0.971325	0.061690	0.229613	0.065894	0.997769	0.010680
49985		-0.224150	0.014893	-0.974441	-0.973482	0.043475	0.224594	0.045709	0.998944	0.004753
49986		-0.218892	0.004828	-0.975737	-0.975549	0.019145	0.218945	0.019738	0.999805	0.000519
49987		-0.212830	-0.005873	-0.977072	-0.977037	-0.009013	0.212877	-0.010056	0.999942	-0.003820
49988		-0.207064	-0.017855	-0.978164	-0.977373	-0.040371	0.207634	-0.043197	0.999025	-0.009092
49989		-0.202259	-0.028575	-0.978915	-0.976342	-0.072171	0.203834	-0.076474	0.996983	-0.013302
49990		-0.198900	-0.036923	-0.979324	-0.974391	-0.099496	0.201650	-0.104884	0.994353	-0.016188
49991		-0.196271	-0.044143	-0.979555	-0.972045	-0.122532	0.200288	-0.128868	0.991482	-0.018860
49992		-0.194675	-0.050379	-0.979573	-0.968744	-0.146659	0.200065	-0.153742	0.987903	-0.020254
49993		-0.194456	-0.056457	-0.979285	-0.963779	-0.174776	0.201453	-0.182529	0.982988	-0.020426
49994		-0.195152	-0.064036	-0.978680	-0.957436	-0.203948	0.204260	-0.212680	0.976885	-0.021510
49995		-0.195926	-0.069987	-0.978118	-0.949578	-0.235433	0.207056	-0.244773	0.969367	-0.020331
49996		-0.196119	-0.073166	-0.977847	-0.941065	-0.266193	0.208659	-0.275563	0.961139	-0.016649
49997		-0.194418	-0.074685	-0.978071	-0.934304	-0.289623	0.207834	-0.298794	0.954222	-0.013471
49998		-0.190316	-0.076760	-0.978717	-0.930576	-0.303484	0.204757	-0.312742	0.949740	-0.013673
49999		-0.183273	-0.080556	-0.979756	-0.930322	-0.307841	0.199337	-0.317667	0.948022	-0.018524
50000		-0.173159	-0.086794	-0.981062	-0.932586	-0.305857	0.191662	-0.316700	0.948113	-0.027981
50001		-0.160965	-0.093984	-0.982475	-0.935891	-0.301527	0.182177	-0.313365	0.948814	-0.039424
50002		-0.148198	-0.100911	-0.983796	-0.939376	-0.296665	0.171937	-0.309208	0.949635	-0.050829
50003		-0.135954	-0.107656	-0.984849	-0.942497	-0.292294	0.162059	-0.305312	0.950250	-0.061727
50004		-0.124922	-0.113756	-0.985624	-0.945093	-0.288718	0.153107	-0.301984	0.950632	-0.071443
50005		-0.115405	-0.117630	-0.986329	-0.946513	-0.288193	0.145116	-0.301323	0.950320	-0.078079
50006		-0.107350	-0.119389	-0.987027	-0.946574	-0.291375	0.138195	-0.304094	0.949130	-0.081731
50007		-0.100466	-0.120890	-0.987569	-0.945831	-0.296389	0.132501	-0.308723	0.947385	-0.084564
50008		-0.094566	-0.121938	-0.988022	-0.944194	-0.303570	0.127837	-0.315522	0.944974	-0.086426
50009		-0.089111	-0.122073	-0.988513	-0.941249	-0.314260	0.123658	-0.325745	0.941456	-0.086897
50010		-0.083275	-0.121340	-0.989112	-0.937086	-0.328137	0.119149	-0.339022	0.936805	-0.086380
50011		-0.076637	-0.120266	-0.989779	-0.932112	-0.343780	0.113944	-0.353970	0.931317	-0.085755
50012		-0.069148	-0.119950	-0.990369	-0.926972	-0.359180	0.108224	-0.368702	0.925528	-0.086354
50013		-0.061151	-0.120152	-0.990870	-0.922405	-0.372487	0.102093	-0.381353	0.920227	-0.088051
50014		-0.052896	-0.120085	-0.991353	-0.918412	-0.383924	0.095510	-0.392073	0.915523	-0.089979
50015		-0.044569	-0.119119	-0.991879	-0.914572	-0.394624	0.088487	-0.401960	0.911089	-0.091355
50016		-0.035880	-0.117975	-0.992368	-0.910294	-0.405927	0.081170	-0.412405	0.906259	-0.092828
50017		-0.026841	-0.117136	-0.992753	-0.905623	-0.417619	0.073761	-0.423232	0.901040	-0.094872
50018		-0.017848	-0.116685	-0.993009	-0.900253	-0.430222	0.066735	-0.435001	0.895150	-0.097367
50019		-0.009475	-0.115531	-0.993259	-0.894155	-0.443701	0.060138	-0.447658	0.888697	-0.099098
50020		-0.001800	-0.113555	-0.993530	-0.887475	-0.457690	0.053919	-0.460852	0.881830	-0.099953
50021		0.005280	-0.111015	-0.993805	-0.880323	-0.471936	0.048041	-0.474346	0.874615	-0.100221
50022		0.012269	-0.108423	-0.994029	-0.873040	-0.485818	0.042215	-0.487494	0.867309	-0.100618
50023		0.019155	-0.105536	-0.994231	-0.865526	-0.499543	0.036351	-0.500497	0.859837	-0.100913
50024		0.026082	-0.102565	-0.994384	-0.857880	-0.512949	0.030406	-0.513187	0.852270	-0.101367
50025		0.032990	-0.099272	-0.994513	-0.849888	-0.526400	0.024352	-0.525929	0.844422	-0.101736
50026		0.039929	-0.095809	-0.994599	-0.841248	-0.540340	0.018278	-0.539173	0.835974	-0.102174
50027		0.046696	-0.092342	-0.994632	-0.832385	-0.554059	0.012360	-0.552226	0.827340	-0.102736
50028		0.053368	-0.089015	-0.994600	-0.823320	-0.567538	0.006617	-0.565062	0.818521	-0.103576
50029		0.059776	-0.085746	-0.994522	-0.813844	-0.581082	0.001184	-0.578000	0.809316	-0.104519
50030		0.065941	-0.082325	-0.994422	-0.803854	-0.594813	-0.004062	-0.591161	0.799637	-0.105400
50031		0.071706	-0.078640	-0.994321	-0.794081	-0.607743	-0.009200	-0.603568	0.790231	-0.106025
50032		0.077354	-0.074937	-0.994184	-0.784536	-0.619918	-0.014315	-0.615239	0.781080	-0.106744
50033		0.082820	-0.071037	-0.994029	-0.775192	-0.631426	-0.019463	-0.626274	0.772175	-0.107362
50034		0.088307	-0.067118	-0.993829	-0.765557	-0.642897	-0.024606	-0.637278	0.763006	-0.108155
50035		0.093454	-0.062538	-0.993658	-0.755297	-0.654703	-0.029831	-0.648685	0.753295	-0.108419
50036		0.098779	-0.058090	-0.993412	-0.744328	-0.666895	-0.035015	-0.660468	0.742884	-0.109113
50037		0.103960	-0.053419	-0.993146	-0.732368	-0.679728	-0.040101	-0.672926	0.731517	-0.109786
50038		0.108993	-0.048536	-0.992857	-0.719426	-0.693104	-0.045094	-0.685964	0.719202	-0.110461
50039		0.113134	-0.042897	-0.992653	-0.705687	-0.706765	-0.049885	-0.699433	0.706146	-0.110231
50040		0.116305	-0.036880	-0.992529	-0.690760	-0.721054	-0.054151	-0.713669	0.691897	-0.109338
50041		0.118897	-0.031015	-0.992422	-0.674923	-0.735616	-0.057869	-0.728246	0.676689	-0.108396
50042		0.121156	-0.025841	-0.992297	-0.658505	-0.750111	-0.060867	-0.742760	0.660807	-0.107897
50043		0.122983	-0.021299	-0.992180	-0.641888	-0.764193	-0.063159	-0.756872	0.644636	-0.107654
50044		0.124945	-0.017673	-0.992006	-0.625736	-0.777325	-0.064964	-0.769963	0.628851	-0.108182
50045		0.126842	-0.014259	-0.991820	-0.610326	-0.789337	-0.066705	-0.781930	0.613794	-0.108824
50046		0.128221	-0.010547	-0.991690	-0.595379	-0.800523	-0.068466	-0.793148	0.599210	-0.108923
50047		0.128928	-0.006232	-0.991634	-0.580539	-0.811185	-0.070381	-0.803960	0.584756	-0.108203
50048		0.129698	-0.001623	-0.991552	-0.566191	-0.821061	-0.072715	-0.814007	0.570838	-0.107409
50049		0.130403	0.003538	-0.991455	-0.551864	-0.830505	-0.075549	-0.823675	0.557000	-0.106348
50050		0.131173	0.008850	-0.991320	-0.538037	-0.839241	-0.078686	-0.832653	0.543688	-0.105324
50051		0.132066	0.014178	-0.991140	-0.524532	-0.847431	-0.082014	-0.841085	0.530716	-0.104480
50052		0.133048	0.019197	-0.990924	-0.512045	-0.854712	-0.085309	-0.848592	0.518747	-0.103888
50053		0.133783	0.024127	-0.990717	-0.500335	-0.861293	-0.088538	-0.855434	0.507535	-0.103154
50054		0.134636	0.028743	-0.990478	-0.488365	-0.867822	-0.091567	-0.862191	0.496043	-0.102803
50055		0.135326	0.033431	-0.990237	-0.476323	-0.874166	-0.094607	-0.868794	0.484476	-0.102373
50056		0.135726	0.038242	-0.990008	-0.463645	-0.880631	-0.097581	-0.875564	0.472257	-0.101794
50057		0.135948	0.043236	-0.989772	-0.450261	-0.887212	-0.100600	-0.882487	0.459332	-0.101147
50058		0.136261	0.048106	-0.989504	-0.437264	-0.893341	-0.103645	-0.888951	0.446797	-0.100693
50059		0.136467	0.053007	-0.989225	-0.423405	-0.899645	-0.106617	-0.895603	0.433392	-0.100329
50060		0.136581	0.057714	-0.988946	-0.408195	-0.906332	-0.109268	-0.902620	0.418607	-0.100229
50061		0.136721	0.062515	-0.988635	-0.392834	-0.912758	-0.112043	-0.909389	0.403688	-0.100235
50062		0.136981	0.067156	-0.988295	-0.377113	-0.919035	-0.114719	-0.915981	0.388413	-0.100565
50063		0.136762	0.072175	-0.987971	-0.361957	-0.924739	-0.117660	-0.922108	0.373695	-0.100345
50064		0.136180	0.077154	-0.987675	-0.347761	-0.929797	-0.120582	-0.927641	0.359895	-0.099789
50065		0.135081	0.082204	-0.987419	-0.334854	-0.934132	-0.123577	-0.932537	0.347334	-0.098657
50066		0.133806	0.086833	-0.987196	-0.323128	-0.937890	-0.126293	-0.936848	0.335890	-0.097438
50067		0.132218	0.091312	-0.987006	-0.311890	-0.941338	-0.128868	-0.940874	0.324875	-0.095982
50068		0.130414	0.095192	-0.986879	-0.300148	-0.944882	-0.130805	-0.944936	0.313269	-0.094654
50069		0.128076	0.098611	-0.986850	-0.287669	-0.948573	-0.132121	-0.949128	0.300808	-0.093122
50070		0.125494	0.101141	-0.986925	-0.274970	-0.952272	-0.132553	-0.953228	0.288009	-0.091694
50071		0.122532	0.102936	-0.987112	-0.262693	-0.955770	-0.132276	-0.957068	0.275515	-0.090072
50072		0.119229	0.103681	-0.987438	-0.249978	-0.959360	-0.130917	-0.960883	0.262447	-0.088465
50073		0.115773	0.103610	-0.987857	-0.238545	-0.962537	-0.128911	-0.964206	0.250573	-0.086720
50074		0.112852	0.102288	-0.988333	-0.229129	-0.965199	-0.126057	-0.966832	0.240681	-0.085488
50075		0.109762	0.100171	-0.988897	-0.222434	-0.967201	-0.122662	-0.968749	0.233428	-0.083881
50076		0.106437	0.097011	-0.989576	-0.218495	-0.968621	-0.118458	-0.970016	0.228826	-0.081901
50077		0.102360	0.093156	-0.990376	-0.216638	-0.969621	-0.113594	-0.970871	0.226181	-0.079069
50078		0.097577	0.088451	-0.991290	-0.215377	-0.970563	-0.107802	-0.971644	0.224020	-0.075655
50079		0.091838	0.083120	-0.992299	-0.213760	-0.971633	-0.101172	-0.972560	0.221405	-0.071465
50080		0.085078	0.077000	-0.993395	-0.211438	-0.972907	-0.093520	-0.973682	0.217998	-0.066492
50081		0.077021	0.070357	-0.994544	-0.208150	-0.974392	-0.085052	-0.975060	0.213565	-0.060404
50082		0.068040	0.062607	-0.995716	-0.203336	-0.976211	-0.075275	-0.976742	0.207586	-0.053691
50083		0.058220	0.053776	-0.996854	-0.197306	-0.978231	-0.064295	-0.978612	0.200428	-0.046343
50084		0.048079	0.043415	-0.997900	-0.188780	-0.980654	-0.051760	-0.980842	0.190872	-0.038953
50085		0.037536	0.031970	-0.998784	-0.176630	-0.983539	-0.038120	-0.983561	0.177846	-0.031272
50086		0.026668	0.019207	-0.999460	-0.160494	-0.986763	-0.023245	-0.986676	0.161028	-0.023232
50087		0.015538	0.005621	-0.999863	-0.140934	-0.989989	-0.007755	-0.989897	0.141036	-0.014591
50088		0.004882	-0.009116	-0.999947	-0.119259	-0.992827	0.008469	-0.992851	0.119211	-0.005934
50089		-0.005292	-0.024182	-0.999694	-0.097081	-0.994973	0.024582	-0.995262	0.097181	0.002918
50090		-0.014631	-0.039684	-0.999105	-0.075784	-0.996294	0.040682	-0.997017	0.076311	0.011569
50091		-0.023070	-0.054865	-0.998227	-0.056798	-0.996808	0.056100	-0.998119	0.057992	0.019880
50092		-0.030210	-0.069870	-0.997099	-0.038510	-0.996732	0.071012	-0.998801	0.040543	0.027421
50093		-0.036573	-0.083820	-0.995810	-0.019362	-0.996230	0.084566	-0.999143	0.022374	0.034812
50094		-0.042197	-0.097037	-0.994386	0.002038	-0.995279	0.097038	-0.999107	0.002068	0.042196
50095		-0.045961	-0.109158	-0.992961	0.024552	-0.993835	0.108117	-0.998641	-0.019410	0.048358
50096		-0.046653	-0.120579	-0.991607	0.046569	-0.991871	0.118420	-0.997825	-0.040653	0.051889
50097		-0.044481	-0.130655	-0.990430	0.067109	-0.989562	0.127527	-0.996754	-0.060795	0.052784
50098		-0.040088	-0.139537	-0.989405	0.087369	-0.986898	0.135643	-0.995369	-0.081005	0.051754
50099		-0.034868	-0.146753	-0.988558	0.108660	-0.983853	0.142222	-0.993467	-0.102458	0.050251
50100		-0.028700	-0.152638	-0.987865	0.131873	-0.980213	0.147625	-0.990851	-0.126036	0.048261
50101		-0.022181	-0.156997	-0.987350	0.155970	-0.976044	0.151695	-0.987513	-0.150632	0.046137
50102		-0.015363	-0.160432	-0.986927	0.180130	-0.971339	0.155094	-0.983523	-0.175392	0.043821
50103		-0.008393	-0.162685	-0.986642	0.204083	-0.966188	0.157577	-0.978918	-0.200035	0.041311
50104		-0.000640	-0.164239	-0.986420	0.228505	-0.960347	0.159749	-0.973542	-0.225300	0.038144
50105		0.007293	-0.164680	-0.986320	0.254123	-0.953659	0.161106	-0.967144	-0.251821	0.034894
50106		0.016079	-0.164596	-0.986230	0.281799	-0.945627	0.162414	-0.959339	-0.280530	0.031179
50107		0.024150	-0.164188	-0.986133	0.310247	-0.936487	0.163519	-0.950349	-0.309894	0.028323
50108		0.032907	-0.163486	-0.985997	0.339262	-0.926129	0.164882	-0.940116	-0.339937	0.024989
50109		0.042090	-0.162111	-0.985874	0.369045	-0.914445	0.166121	-0.928458	-0.370824	0.021337
50110		0.051943	-0.160312	-0.985699	0.398856	-0.901559	0.167646	-0.915541	-0.401860	0.017111
50111		0.061812	-0.157604	-0.985566	0.428299	-0.887727	0.168820	-0.901520	-0.432552	0.012630
50112		0.071914	-0.154211	-0.985417	0.457506	-0.872809	0.169976	-0.886294	-0.463058	0.007786
50113		0.081524	-0.149942	-0.985328	0.486385	-0.856919	0.170644	-0.869933	-0.493161	0.003071
50114		0.091262	-0.144886	-0.985231	0.515093	-0.839859	0.171221	-0.852262	-0.523111	-0.002018
50115		0.099972	-0.139239	-0.985200	0.543420	-0.821800	0.171289	-0.833487	-0.552501	-0.006492
50116		0.108325	-0.133472	-0.985115	0.571587	-0.802404	0.171570	-0.813360	-0.581664	-0.010629
50117		0.115918	-0.127405	-0.985054	0.599285	-0.781916	0.171654	-0.792099	-0.610226	-0.014286
50118		0.123490	-0.121235	-0.984912	0.625759	-0.760792	0.172106	-0.770179	-0.637572	-0.018086
50119		0.130658	-0.114552	-0.984788	0.650752	-0.739469	0.172355	-0.747964	-0.663372	-0.022073
50120		0.138104	-0.107528	-0.984563	0.674727	-0.717504	0.173005	-0.725031	-0.688204	-0.026538
50121		0.145142	-0.099922	-0.984352	0.697903	-0.694873	0.173442	-0.701331	-0.712156	-0.031119
50122		0.152324	-0.092119	-0.984028	0.720777	-0.670875	0.174377	-0.676223	-0.735827	-0.035794
50123		0.159105	-0.083817	-0.983697	0.743963	-0.644825	0.175273	-0.649003	-0.759721	-0.040238
50124		0.165791	-0.075224	-0.983288	0.767270	-0.616548	0.176536	-0.619524	-0.783715	-0.044501
50125		0.171716	-0.066274	-0.982915	0.790640	-0.585948	0.177633	-0.587709	-0.807634	-0.048218
50126		0.177589	-0.057107	-0.982446	0.813840	-0.552754	0.179242	-0.553287	-0.831386	-0.051687
50127		0.182739	-0.047874	-0.981995	0.836390	-0.517434	0.180869	-0.516777	-0.854383	-0.054515
50128		0.187705	-0.038872	-0.981456	0.858033	-0.479846	0.183105	-0.478065	-0.876491	-0.056717
50129		0.191956	-0.029653	-0.980955	0.878138	-0.441118	0.185171	-0.438208	-0.896959	-0.058636
50130		0.196295	-0.020254	-0.980336	0.896223	-0.401911	0.187756	-0.397810	-0.915455	-0.060741
50131		0.200090	-0.010943	-0.979716	0.912459	-0.362169	0.190399	-0.356906	-0.932048	-0.062482
50132		0.203998	-0.001697	-0.978970	0.926956	-0.321288	0.193716	-0.314860	-0.946980	-0.063969
50133		0.207303	0.007590	-0.978247	0.939691	-0.279620	0.196963	-0.272042	-0.960081	-0.065099
50134		0.210467	0.017138	-0.977451	0.950521	-0.237291	0.200508	-0.228504	-0.971287	-0.066232
50135		0.212759	0.027028	-0.976731	0.959568	-0.194314	0.203644	-0.184289	-0.980567	-0.067277
50136		0.214645	0.037371	-0.975977	0.966750	-0.150347	0.206859	-0.139005	-0.987927	-0.068400
50137		0.215408	0.047777	-0.975355	0.972046	-0.106032	0.209483	-0.093410	-0.993214	-0.069282
50138		0.215673	0.058293	-0.974724	0.975301	-0.061598	0.212117	-0.047676	-0.996397	-0.070138
50139		0.214979	0.068852	-0.974189	0.976616	-0.017399	0.214285	-0.002196	-0.997475	-0.070982
50140		0.213876	0.079525	-0.973618	0.975918	0.026388	0.216536	0.042912	-0.996484	-0.071966
50141		0.211894	0.090179	-0.973123	0.973399	0.069324	0.218378	0.087154	-0.993510	-0.073091
50142		0.209663	0.100557	-0.972589	0.968980	0.111735	0.220438	0.130839	-0.988637	-0.074011
50143		0.206762	0.110566	-0.972124	0.962901	0.153110	0.222215	0.173411	-0.982004	-0.074807
50144		0.203560	0.120537	-0.971614	0.955248	0.193096	0.224086	0.214626	-0.973748	-0.075836
50145		0.199598	0.130199	-0.971189	0.946280	0.231700	0.225541	0.254390	-0.964035	-0.076958
50146		0.195186	0.139715	-0.970764	0.936001	0.269088	0.226924	0.292926	-0.952928	-0.078251
50147		0.189870	0.148820	-0.970465	0.924372	0.306026	0.227781	0.330886	-0.940319	-0.079460
50148		0.183990	0.157506	-0.970227	0.911231	0.342743	0.228443	0.368519	-0.926131	-0.080463
50149		0.176859	0.166040	-0.970130	0.897079	0.378328	0.228293	0.404933	-0.910658	-0.082040
50150		0.168864	0.174762	-0.970022	0.881974	0.412553	0.227863	0.440007	-0.894012	-0.084471
50151		0.159928	0.183171	-0.969985	0.865735	0.446076	0.226977	0.474263	-0.876050	-0.087238
50152		0.150507	0.191448	-0.969894	0.847828	0.479591	0.226232	0.508464	-0.856353	-0.090133
50153		0.140361	0.199322	-0.969830	0.828064	0.513350	0.225349	0.542779	-0.834711	-0.092997
50154		0.129867	0.207046	-0.969673	0.806255	0.547183	0.224816	0.577137	-0.811001	-0.095871
50155		0.118973	0.214045	-0.969552	0.781938	0.581586	0.224346	0.611897	-0.784820	-0.098176
50156		0.107950	0.220566	-0.969380	0.754897	0.616297	0.224294	0.646898	-0.755995	-0.099976
50157		0.096311	0.226134	-0.969323	0.725231	0.651067	0.223946	0.681736	-0.724552	-0.101295
50158		0.084977	0.230665	-0.969316	0.692756	0.685545	0.223868	0.716148	-0.690523	-0.101539
50159		0.074019	0.233424	-0.969554	0.658042	0.719090	0.223361	0.749334	-0.654540	-0.100376
50160		0.063469	0.235349	-0.969836	0.621045	0.751387	0.222982	0.781201	-0.616464	-0.098473
50161		0.052867	0.236094	-0.970291	0.581582	0.782580	0.222108	0.811768	-0.576046	-0.095935
50162		0.042311	0.236243	-0.970772	0.539639	0.812317	0.221202	0.840832	-0.533226	-0.093116
50163		0.031634	0.235374	-0.971390	0.495334	0.840442	0.219775	0.868127	-0.488115	-0.090002
50164		0.020649	0.233576	-0.972119	0.449046	0.866569	0.217753	0.893270	-0.441023	-0.086993
50165		0.009109	0.230322	-0.973072	0.400236	0.890925	0.214625	0.916367	-0.391414	-0.084068
50166		-0.002489	0.225660	-0.974203	0.348328	0.913390	0.210683	0.937370	-0.338817	-0.080877
50167		-0.014059	0.219339	-0.975548	0.294180	0.933370	0.205616	0.955646	-0.284096	-0.077648
50168		-0.025285	0.211835	-0.976978	0.237633	0.950552	0.199955	0.971026	-0.227107	-0.074374
50169		-0.035570	0.202837	-0.978566	0.179654	0.964532	0.193398	0.983087	-0.168924	-0.070749
50170		-0.045168	0.192999	-0.980159	0.122063	0.974875	0.186333	0.991494	-0.111224	-0.067591
50171		-0.054787	0.182240	-0.981726	0.066604	0.981680	0.178515	0.996274	-0.055606	-0.065922
50172		-0.064727	0.170955	-0.983150	0.013711	0.985276	0.170422	0.997809	-0.002449	-0.066118
50173		-0.074973	0.158872	-0.984448	-0.036399	0.986133	0.161916	0.996521	0.047972	-0.068150
50174		-0.085282	0.146413	-0.985541	-0.082644	0.984696	0.153439	0.992923	0.094535	-0.071876
50175		-0.095219	0.133448	-0.986471	-0.125098	0.981513	0.144853	0.987565	0.137199	-0.076764
50176		-0.104570	0.120094	-0.987240	-0.164298	0.976956	0.136246	0.980852	0.176449	-0.082430
50177		-0.113367	0.105969	-0.987886	-0.200301	0.971443	0.127191	0.973153	0.212294	-0.088904
50178		-0.121723	0.091184	-0.988367	-0.232847	0.965360	0.117738	0.964866	0.244470	-0.096274
50179		-0.129591	0.076164	-0.988638	-0.264904	0.958147	0.108539	0.955527	0.275960	-0.103991
50180		-0.135016	0.062961	-0.988841	-0.300658	0.948323	0.101433	0.944127	0.310998	-0.109109
50181		-0.136327	0.054296	-0.989175	-0.339680	0.935405	0.098159	0.930609	0.349385	-0.109077
50182		-0.134976	0.050202	-0.989576	-0.380534	0.919501	0.098551	0.914863	0.389870	-0.105007
50183		-0.133249	0.049308	-0.989855	-0.420936	0.901386	0.101565	0.897250	0.430200	-0.099353
50184		-0.132553	0.049821	-0.989923	-0.458986	0.882115	0.105854	0.878500	0.468392	-0.094060
50185		-0.131714	0.049947	-0.990029	-0.493226	0.863025	0.109158	0.859872	0.502686	-0.089037
50186		-0.131056	0.048294	-0.990198	-0.522303	0.845587	0.110369	0.842629	0.531648	-0.085595
50187		-0.130892	0.044341	-0.990405	-0.545799	0.830753	0.109327	0.827629	0.554872	-0.084537
50188		-0.130357	0.038536	-0.990718	-0.562749	0.819812	0.105934	0.816285	0.571334	-0.085182
50189		-0.131260	0.029175	-0.990919	-0.571170	0.814761	0.099648	0.810269	0.579063	-0.090281
50190		-0.133969	0.016045	-0.990856	-0.573339	0.814282	0.090705	0.808291	0.580248	-0.099889
50191		-0.137505	0.000802	-0.990501	-0.574377	0.814634	0.080396	0.806960	0.579975	-0.111555
50192		-0.140898	-0.014686	-0.989915	-0.577453	0.813407	0.070124	0.804174	0.581510	-0.123088
50193		-0.143693	-0.029218	-0.989191	-0.584077	0.809408	0.060938	0.798878	0.586520	-0.133372
50194		-0.145578	-0.042273	-0.988443	-0.594178	0.802573	0.053187	0.791050	0.595054	-0.141954
50195		-0.145370	-0.053396	-0.987935	-0.607533	0.792930	0.046539	0.780878	0.606969	-0.147708
50196		-0.142492	-0.061990	-0.987853	-0.624774	0.779718	0.041190	0.767693	0.623054	-0.149834
50197		-0.138506	-0.068773	-0.987971	-0.644731	0.763502	0.037239	0.751757	0.642133	-0.150090
50198		-0.134618	-0.074608	-0.988085	-0.666362	0.744827	0.034546	0.733375	0.663073	-0.149983
50199		-0.130737	-0.079578	-0.988218	-0.688513	0.724484	0.032747	0.713342	0.684683	-0.149507
50200		-0.126734	-0.084149	-0.988361	-0.710771	0.702726	0.031309	0.691912	0.706467	-0.148870
50201		-0.122169	-0.088331	-0.988571	-0.732458	0.680162	0.029744	0.669761	0.727720	-0.147793
50202		-0.117119	-0.092423	-0.988808	-0.752675	0.657811	0.027665	0.647892	0.747491	-0.146607
50203		-0.111328	-0.096666	-0.989071	-0.771786	0.635399	0.024771	0.626061	0.766109	-0.145343
50204		-0.104778	-0.100751	-0.989379	-0.789625	0.613224	0.021177	0.604578	0.783457	-0.143807
50205		-0.098318	-0.105503	-0.989547	-0.805549	0.592289	0.016889	0.584315	0.798789	-0.143220
50206		-0.092326	-0.110728	-0.989553	-0.819935	0.572321	0.012460	0.564963	0.812519	-0.143629
50207		-0.086576	-0.116108	-0.989456	-0.833743	0.552092	0.008166	0.545322	0.825660	-0.144602
50208		-0.080768	-0.121204	-0.989336	-0.847114	0.531396	0.004055	0.525238	0.838408	-0.145593
50209		-0.074801	-0.126144	-0.989188	-0.859621	0.510933	-0.000152	0.505428	0.850315	-0.146654
50210		-0.068833	-0.130958	-0.988995	-0.871493	0.490389	-0.004280	0.485553	0.861608	-0.147884
50211		-0.062955	-0.135860	-0.988726	-0.883084	0.469142	-0.008237	0.464972	0.872609	-0.149511
50212		-0.056816	-0.140501	-0.988449	-0.894384	0.447136	-0.012148	0.443678	0.883362	-0.151066
50213		-0.049913	-0.143757	-0.988354	-0.905805	0.423399	-0.015839	0.420745	0.894465	-0.151349
50214		-0.043061	-0.146373	-0.988292	-0.917139	0.398115	-0.019003	0.396235	0.905582	-0.151387
50215		-0.036439	-0.149045	-0.988159	-0.927822	0.372377	-0.021952	0.371239	0.916036	-0.151856
50216		-0.029867	-0.151285	-0.988039	-0.938121	0.345438	-0.024534	0.345017	0.926167	-0.152241
50217		-0.023192	-0.152876	-0.987973	-0.947856	0.317563	-0.026889	0.317854	0.935833	-0.152269
50218		-0.016686	-0.154495	-0.987853	-0.956585	0.289988	-0.029195	0.290976	0.944478	-0.152627
50219		-0.010247	-0.156122	-0.987685	-0.964231	0.263173	-0.031595	0.264864	0.952033	-0.153234
50220		-0.004043	-0.157528	-0.987506	-0.970916	0.237019	-0.033834	0.239387	0.958649	-0.153905
50221		0.001916	-0.158515	-0.987355	-0.976775	0.211254	-0.035811	0.214260	0.964492	-0.154429
50222		0.007395	-0.159089	-0.987237	-0.981928	0.185554	-0.037256	0.189113	0.969670	-0.154842
50223		0.012692	-0.159270	-0.987154	-0.986369	0.159985	-0.038494	0.164061	0.974186	-0.155068
50224		0.017539	-0.158792	-0.987156	-0.990226	0.133872	-0.039128	0.138366	0.978194	-0.154892
50225		0.022019	-0.157582	-0.987260	-0.993538	0.106533	-0.039163	0.111347	0.981743	-0.154218
50226		0.026020	-0.155790	-0.987447	-0.996172	0.078417	-0.038622	0.083449	0.984673	-0.153153
50227		0.029807	-0.153275	-0.987734	-0.997990	0.050722	-0.037987	0.055923	0.986881	-0.151456
50228		0.033037	-0.150632	-0.988038	-0.999015	0.024328	-0.037113	0.029627	0.988290	-0.149680
50229		0.036047	-0.148183	-0.988303	-0.999340	-0.000836	-0.036324	0.004557	0.988960	-0.148115
50230		0.039303	-0.146590	-0.988416	-0.999033	-0.025257	-0.035979	-0.019690	0.988875	-0.147441
50231		0.043317	-0.144884	-0.988500	-0.998139	-0.048794	-0.036588	-0.042932	0.988245	-0.146728
50232		0.047540	-0.142432	-0.988662	-0.996754	-0.071149	-0.037679	-0.064975	0.987244	-0.145352
