// Start Time: Unknown
// Update Rate: 100.0Hz
// Filter Profile: human (46.1)
// Option Flags: AHS Disabled ICC Disabled 
// Firmware Version: 4.0.2
PacketCounter	SampleTimeFine	Mat[1][1]	Mat[2][1]	Mat[3][1]	Mat[1][2]	Mat[2][2]	Mat[3][2]	Mat[1][3]	Mat[2][3]	Mat[3][3]
48935		-0.223751	0.004139	-0.974638	-0.606735	0.782006	0.142611	0.762763	0.623257	-0.172463
48936		-0.223662	0.004347	-0.974657	-0.606379	0.782278	0.142640	0.763073	0.622915	-0.172330
48937		-0.223537	0.004493	-0.974685	-0.606003	0.782578	0.142590	0.763408	0.622536	-0.172212
48938		-0.223414	0.004659	-0.974712	-0.605723	0.782797	0.142580	0.763666	0.622260	-0.172066
48939		-0.223308	0.004760	-0.974736	-0.605431	0.783032	0.142526	0.763928	0.621963	-0.171976
48940		-0.223221	0.004896	-0.974756	-0.605301	0.783128	0.142548	0.764057	0.621841	-0.171847
48941		-0.223152	0.004979	-0.974771	-0.605135	0.783260	0.142533	0.764209	0.621675	-0.171773
48942		-0.223015	0.005063	-0.974802	-0.604948	0.783416	0.142469	0.764397	0.621477	-0.171650
48943		-0.222935	0.005211	-0.974819	-0.604616	0.783674	0.142461	0.764683	0.621150	-0.171558
48944		-0.222825	0.005353	-0.974844	-0.604219	0.783988	0.142414	0.765028	0.620753	-0.171458
48945		-0.222663	0.005528	-0.974880	-0.603670	0.784427	0.142326	0.765509	0.620197	-0.171326
48946		-0.222490	0.005754	-0.974918	-0.602973	0.784979	0.142240	0.766108	0.619496	-0.171180
48947		-0.222312	0.005942	-0.974958	-0.602163	0.785626	0.142094	0.766796	0.618673	-0.171076
48948		-0.222114	0.006158	-0.975001	-0.601428	0.786211	0.141976	0.767431	0.617928	-0.170925
48949		-0.221983	0.006361	-0.975030	-0.600808	0.786695	0.141917	0.767954	0.617309	-0.170812
48950		-0.221917	0.006567	-0.975043	-0.600280	0.787097	0.141923	0.768386	0.616794	-0.170729
48951		-0.221884	0.006785	-0.975050	-0.599860	0.787406	0.141984	0.768723	0.616397	-0.170643
48952		-0.221882	0.006920	-0.975049	-0.599529	0.787652	0.142019	0.768982	0.616081	-0.170617
48953		-0.221825	0.007088	-0.975061	-0.599339	0.787786	0.142076	0.769146	0.615908	-0.170503
48954		-0.221751	0.007283	-0.975076	-0.599153	0.787916	0.142143	0.769313	0.615740	-0.170357
48955		-0.221628	0.007434	-0.975103	-0.598997	0.788033	0.142152	0.769470	0.615589	-0.170198
48956		-0.221435	0.007581	-0.975146	-0.598894	0.788116	0.142123	0.769605	0.615480	-0.169977
48957		-0.221189	0.007720	-0.975200	-0.598902	0.788118	0.142078	0.769670	0.615475	-0.169699
48958		-0.221012	0.007823	-0.975240	-0.598987	0.788056	0.142066	0.769655	0.615554	-0.169484
48959		-0.220674	0.007876	-0.975316	-0.599227	0.787896	0.141943	0.769565	0.615758	-0.169148
48960		-0.220429	0.007942	-0.975371	-0.599402	0.787774	0.141877	0.769498	0.615913	-0.168887
48961		-0.220183	0.008013	-0.975426	-0.599708	0.787547	0.141842	0.769330	0.616202	-0.168600
48962		-0.219987	0.008080	-0.975469	-0.599868	0.787433	0.141804	0.769262	0.616347	-0.168378
48963		-0.219858	0.008128	-0.975498	-0.600016	0.787322	0.141792	0.769184	0.616488	-0.168223
48964		-0.219754	0.008127	-0.975522	-0.600342	0.787073	0.141794	0.768959	0.616806	-0.168083
48965		-0.219649	0.008167	-0.975545	-0.600981	0.786566	0.141899	0.768489	0.617452	-0.167861
48966		-0.219549	0.008141	-0.975568	-0.601866	0.785870	0.142006	0.767825	0.618338	-0.167637
48967		-0.219529	0.007962	-0.975573	-0.603124	0.784884	0.142124	0.766843	0.619592	-0.167503
48968		-0.219546	0.007784	-0.975571	-0.604474	0.783815	0.142287	0.765775	0.620946	-0.167378
48969		-0.219501	0.007674	-0.975582	-0.605872	0.782700	0.142475	0.764682	0.622351	-0.167154
48970		-0.219288	0.007664	-0.975630	-0.607015	0.781796	0.142577	0.763836	0.623487	-0.166786
48971		-0.218984	0.007741	-0.975698	-0.607902	0.781096	0.142633	0.763218	0.624363	-0.166342
48972		-0.218674	0.007908	-0.975766	-0.608564	0.780567	0.142708	0.762779	0.625022	-0.165877
48973		-0.218309	0.008076	-0.975846	-0.609210	0.780056	0.142744	0.762367	0.625658	-0.165373
48974		-0.218008	0.008261	-0.975912	-0.609988	0.779426	0.142862	0.761831	0.626440	-0.164882
48975		-0.217783	0.008345	-0.975962	-0.611058	0.778560	0.143013	0.761038	0.627515	-0.164458
48976		-0.217731	0.008332	-0.975973	-0.612201	0.777625	0.143215	0.760134	0.628674	-0.164212
48977		-0.217731	0.008257	-0.975974	-0.613510	0.776550	0.143438	0.759077	0.630001	-0.164014
48978		-0.217707	0.008227	-0.975979	-0.614793	0.775491	0.143676	0.758045	0.631305	-0.163772
48979		-0.217655	0.008191	-0.975991	-0.616057	0.774448	0.143886	0.757033	0.632584	-0.163516
48980		-0.217548	0.008101	-0.976016	-0.617340	0.773401	0.144020	0.756019	0.633865	-0.163251
48981		-0.217464	0.008111	-0.976035	-0.618566	0.772381	0.144238	0.755040	0.635108	-0.162948
48982		-0.217200	0.008162	-0.976093	-0.619667	0.771479	0.144339	0.754213	0.636203	-0.162507
48983		-0.216949	0.008162	-0.976149	-0.620759	0.770587	0.144407	0.753386	0.637282	-0.162111
48984		-0.216581	0.008208	-0.976230	-0.621797	0.769747	0.144420	0.752636	0.638296	-0.161609
48985		-0.216262	0.008199	-0.976301	-0.622911	0.768843	0.144439	0.751806	0.639385	-0.161165
48986		-0.216064	0.008085	-0.976346	-0.624020	0.767940	0.144454	0.750943	0.640471	-0.160879
48987		-0.215902	0.007903	-0.976383	-0.625136	0.767034	0.144442	0.750061	0.641558	-0.160663
48988		-0.215735	0.007772	-0.976421	-0.625950	0.766378	0.144400	0.749430	0.642343	-0.160469
48989		-0.215426	0.007667	-0.976490	-0.626633	0.765846	0.144256	0.748947	0.642978	-0.160179
48990		-0.215051	0.007664	-0.976573	-0.627130	0.765468	0.144107	0.748639	0.643429	-0.159809
48991		-0.214567	0.007642	-0.976679	-0.627857	0.764907	0.143919	0.748169	0.644095	-0.159326
48992		-0.214113	0.007560	-0.976780	-0.628731	0.764223	0.143735	0.747564	0.644907	-0.158877
48993		-0.213732	0.007432	-0.976864	-0.629801	0.763367	0.143605	0.746773	0.645923	-0.158475
48994		-0.213323	0.007277	-0.976955	-0.630541	0.762801	0.143364	0.746265	0.646592	-0.158134
48995		-0.212974	0.007158	-0.977032	-0.631132	0.762350	0.143160	0.745865	0.647125	-0.157843
48996		-0.212567	0.007134	-0.977120	-0.631611	0.761990	0.142967	0.745575	0.647550	-0.157468
48997		-0.212230	0.007227	-0.977193	-0.632126	0.761571	0.142920	0.745235	0.648041	-0.157060
48998		-0.211880	0.007457	-0.977267	-0.632517	0.761242	0.142944	0.745003	0.648425	-0.156576
48999		-0.211587	0.007866	-0.977327	-0.632925	0.760864	0.143150	0.744740	0.648863	-0.156011
49000		-0.211432	0.008361	-0.977357	-0.633350	0.760441	0.143518	0.744422	0.649354	-0.155486
49001		-0.211366	0.008899	-0.977367	-0.633794	0.759983	0.143984	0.744063	0.649882	-0.154994
49002		-0.211359	0.009496	-0.977362	-0.634193	0.759547	0.144527	0.743725	0.650383	-0.154515
49003		-0.211353	0.010078	-0.977358	-0.634486	0.759205	0.145036	0.743476	0.650774	-0.154066
49004		-0.211244	0.010789	-0.977374	-0.634545	0.759062	0.145526	0.743457	0.650929	-0.153502
49005		-0.211010	0.011584	-0.977415	-0.634566	0.758956	0.145988	0.743506	0.651039	-0.152796
49006		-0.210747	0.012396	-0.977462	-0.634401	0.759013	0.146406	0.743721	0.650957	-0.152096
49007		-0.210449	0.013244	-0.977515	-0.634318	0.758997	0.146845	0.743876	0.650959	-0.151329
49008		-0.210149	0.014148	-0.977567	-0.634276	0.758937	0.147336	0.743996	0.651010	-0.150516
49009		-0.209868	0.015004	-0.977615	-0.634256	0.758863	0.147805	0.744093	0.651078	-0.149745
49010		-0.209599	0.015951	-0.977657	-0.634315	0.758703	0.148368	0.744119	0.651241	-0.148905
49011		-0.209257	0.016992	-0.977713	-0.634425	0.758495	0.148966	0.744122	0.651457	-0.147940
49012		-0.208825	0.018258	-0.977783	-0.634462	0.758327	0.149662	0.744211	0.651619	-0.146774
49013		-0.208452	0.019526	-0.977838	-0.634467	0.758178	0.150393	0.744311	0.651755	-0.145655
49014		-0.208049	0.020903	-0.977895	-0.634508	0.757984	0.151195	0.744389	0.651938	-0.144435
49015		-0.207724	0.022251	-0.977934	-0.634592	0.757746	0.152035	0.744408	0.652171	-0.143282
49016		-0.207344	0.023565	-0.977984	-0.634510	0.757664	0.152780	0.744584	0.652219	-0.142145
49017		-0.206947	0.024794	-0.978038	-0.634519	0.757519	0.153464	0.744687	0.652343	-0.141034
49018		-0.206390	0.026106	-0.978121	-0.634382	0.757509	0.154077	0.744958	0.652302	-0.139782
49019		-0.205726	0.027408	-0.978226	-0.634152	0.757596	0.154592	0.745337	0.652148	-0.138476
49020		-0.204965	0.028751	-0.978347	-0.633731	0.757858	0.155039	0.745906	0.651786	-0.137114
49021		-0.204192	0.029953	-0.978472	-0.633471	0.758001	0.155400	0.746338	0.651566	-0.135803
49022		-0.203331	0.031077	-0.978617	-0.633219	0.758162	0.155642	0.746787	0.651325	-0.134479
49023		-0.202412	0.032014	-0.978777	-0.633128	0.758220	0.155731	0.747113	0.651213	-0.133204
49024		-0.201330	0.032955	-0.978969	-0.632805	0.758501	0.155673	0.747679	0.650838	-0.131855
49025		-0.200014	0.033828	-0.979209	-0.632219	0.759053	0.155360	0.748527	0.650149	-0.130435
49026		-0.198364	0.034761	-0.979512	-0.631019	0.760172	0.154766	0.749978	0.648791	-0.128856
49027		-0.196325	0.035672	-0.979890	-0.629653	0.761485	0.153875	0.751661	0.647200	-0.127038
49028		-0.193963	0.036485	-0.980330	-0.628161	0.762957	0.152679	0.753520	0.645419	-0.125067
49029		-0.191559	0.036944	-0.980786	-0.627026	0.764174	0.151250	0.755079	0.643951	-0.123220
49030		-0.189226	0.036973	-0.981237	-0.626353	0.765047	0.149615	0.756225	0.642912	-0.121608
49031		-0.187002	0.036560	-0.981679	-0.626047	0.765655	0.147772	0.757030	0.642211	-0.120291
49032		-0.184551	0.035934	-0.982166	-0.625680	0.766370	0.145606	0.757935	0.641394	-0.118951
49033		-0.181574	0.035076	-0.982752	-0.625191	0.767279	0.142896	0.759057	0.640353	-0.117388
49034		-0.177954	0.033956	-0.983453	-0.624548	0.768419	0.139542	0.760442	0.639045	-0.115536
49035		-0.173727	0.032105	-0.984270	-0.624160	0.769498	0.135266	0.761737	0.637842	-0.113644
49036		-0.168980	0.029689	-0.985172	-0.624221	0.770308	0.130282	0.762755	0.636980	-0.111634
49037		-0.163475	0.026424	-0.986193	-0.625063	0.770620	0.124261	0.763264	0.636746	-0.109460
49038		-0.157242	0.022567	-0.987302	-0.626422	0.770595	0.117380	0.763459	0.636925	-0.107034
49039		-0.150013	0.017839	-0.988523	-0.628324	0.770242	0.109250	0.763351	0.637502	-0.104338
49040		-0.141890	0.012605	-0.989802	-0.630618	0.769597	0.100201	0.763012	0.638405	-0.101249
49041		-0.132867	0.006384	-0.991113	-0.633393	0.768595	0.089863	0.762339	0.639704	-0.098077
49042		-0.123530	-0.000582	-0.992341	-0.636663	0.767105	0.078804	0.761184	0.641521	-0.095131
49043		-0.114182	-0.008935	-0.993420	-0.640626	0.764946	0.066752	0.759316	0.644032	-0.093067
49044		-0.105652	-0.018234	-0.994236	-0.645939	0.761429	0.054676	0.756043	0.647992	-0.092224
49045		-0.098271	-0.029159	-0.994732	-0.651852	0.757171	0.042202	0.751952	0.652565	-0.093416
49046		-0.092467	-0.040748	-0.994882	-0.655504	0.754595	0.030018	0.749509	0.654925	-0.096485
49047		-0.086364	-0.051982	-0.994907	-0.655525	0.754972	0.017457	0.750219	0.653694	-0.099278
49048		-0.078901	-0.060728	-0.995031	-0.655380	0.755276	0.005873	0.751167	0.652587	-0.099392
49049		-0.070139	-0.068002	-0.995217	-0.657230	0.753672	-0.005179	0.750419	0.653723	-0.097555
49050		-0.061836	-0.074883	-0.995273	-0.659265	0.751749	-0.015601	0.749363	0.655184	-0.095853
49051		-0.054528	-0.082893	-0.995066	-0.660212	0.750617	-0.026351	0.749097	0.655518	-0.095657
49052		-0.048364	-0.090673	-0.994706	-0.660757	0.749725	-0.036215	0.749040	0.655507	-0.096172
49053		-0.041733	-0.098109	-0.994300	-0.660720	0.749210	-0.046194	0.749471	0.655026	-0.096089
49054		-0.034898	-0.103888	-0.993977	-0.660056	0.749191	-0.055129	0.750406	0.654156	-0.094717
49055		-0.028019	-0.109440	-0.993598	-0.657714	0.750534	-0.064121	0.752746	0.651707	-0.093009
49056		-0.022322	-0.113991	-0.993231	-0.653923	0.753152	-0.071741	0.756232	0.647895	-0.091353
49057		-0.017426	-0.118790	-0.992766	-0.649444	0.756285	-0.079094	0.760210	0.643368	-0.090326
49058		-0.013729	-0.122845	-0.992331	-0.645417	0.759082	-0.085041	0.763707	0.639299	-0.089708
49059		-0.010541	-0.127046	-0.991841	-0.642312	0.761062	-0.090659	0.766370	0.636116	-0.089626
49060		-0.008225	-0.130568	-0.991405	-0.640050	0.762425	-0.095102	0.768289	0.633767	-0.089841
49061		-0.006344	-0.134132	-0.990943	-0.638088	0.763538	-0.099266	0.769937	0.631679	-0.090432
49062		-0.005093	-0.137051	-0.990551	-0.636534	0.764408	-0.102490	0.771232	0.629997	-0.091131
49063		-0.004354	-0.139857	-0.990162	-0.635445	0.764939	-0.105251	0.772134	0.628735	-0.092202
49064		-0.004449	-0.142331	-0.989809	-0.634580	0.765385	-0.107208	0.772844	0.627636	-0.093726
49065		-0.005291	-0.145029	-0.989413	-0.633815	0.765786	-0.108860	0.773467	0.626529	-0.095973
49066		-0.007160	-0.147878	-0.988980	-0.632553	0.766658	-0.110056	0.774484	0.624794	-0.099029
49067		-0.009983	-0.151286	-0.988440	-0.630404	0.768259	-0.111219	0.776203	0.622006	-0.103040
49068		-0.013316	-0.154913	-0.987838	-0.626776	0.771041	-0.112466	0.779086	0.617655	-0.107363
49069		-0.016372	-0.158502	-0.987223	-0.621752	0.774859	-0.114095	0.783043	0.611940	-0.111235
49070		-0.018932	-0.161503	-0.986691	-0.616167	0.779071	-0.115697	0.787388	0.605776	-0.114262
49071		-0.021020	-0.164180	-0.986206	-0.611139	0.782785	-0.117290	0.791244	0.600244	-0.116791
49072		-0.023201	-0.166802	-0.985717	-0.606206	0.786384	-0.118803	0.794969	0.594791	-0.119361
49073		-0.025159	-0.169229	-0.985256	-0.601150	0.790023	-0.120345	0.798740	0.589258	-0.121608
49074		-0.026425	-0.170902	-0.984934	-0.595699	0.793923	-0.121776	0.802773	0.583506	-0.122786
49075		-0.027303	-0.172167	-0.984689	-0.590204	0.797809	-0.123127	0.806792	0.577806	-0.123396
49076		-0.028068	-0.173132	-0.984499	-0.584937	0.801501	-0.124274	0.810593	0.572382	-0.123768
49077		-0.028485	-0.173838	-0.984362	-0.579421	0.805316	-0.125452	0.814530	0.566787	-0.123665
49078		-0.028426	-0.174011	-0.984333	-0.573126	0.809632	-0.126577	0.818974	0.560549	-0.122745
49079		-0.028090	-0.173981	-0.984348	-0.566780	0.813915	-0.127684	0.823390	0.554322	-0.121472
49080		-0.027650	-0.173705	-0.984409	-0.560336	0.818215	-0.128640	0.827804	0.548043	-0.119957
49081		-0.026930	-0.173189	-0.984520	-0.554735	0.821902	-0.129408	0.831591	0.542663	-0.118207
49082		-0.026568	-0.172705	-0.984615	-0.550299	0.824813	-0.129826	0.834545	0.538384	-0.116954
49083		-0.026817	-0.172692	-0.984611	-0.547016	0.826944	-0.130140	0.836693	0.535108	-0.116641
49084		-0.027617	-0.172967	-0.984540	-0.544472	0.828597	-0.130297	0.838324	0.532457	-0.117059
49085		-0.028664	-0.173534	-0.984411	-0.541907	0.830233	-0.130576	0.839950	0.529716	-0.117837
49086		-0.029774	-0.174240	-0.984253	-0.538210	0.832551	-0.131103	0.842285	0.525831	-0.118566
49087		-0.030749	-0.175167	-0.984058	-0.534336	0.834914	-0.131923	0.844712	0.521762	-0.119271
49088		-0.031085	-0.175881	-0.983921	-0.530736	0.837059	-0.132861	0.846967	0.518072	-0.119366
49089		-0.031072	-0.176886	-0.983741	-0.527212	0.839067	-0.134220	0.849166	0.514469	-0.119327
49090		-0.031368	-0.178320	-0.983472	-0.523211	0.841305	-0.135855	0.851625	0.510302	-0.119689
49091		-0.031847	-0.180107	-0.983131	-0.518961	0.843628	-0.137740	0.854205	0.505820	-0.120336
49092		-0.032248	-0.181716	-0.982822	-0.514461	0.846082	-0.139554	0.856907	0.501124	-0.120770
49093		-0.032279	-0.183042	-0.982575	-0.510357	0.848282	-0.141259	0.859357	0.496904	-0.120798
49094		-0.032523	-0.184117	-0.982366	-0.507165	0.849984	-0.142515	0.861235	0.493586	-0.121022
49095		-0.033195	-0.185083	-0.982162	-0.505024	0.851123	-0.143320	0.862467	0.491258	-0.121724
49096		-0.034451	-0.185827	-0.981978	-0.503834	0.851795	-0.143515	0.863113	0.489810	-0.122971
49097		-0.036397	-0.186702	-0.981742	-0.503484	0.852027	-0.143367	0.863238	0.489073	-0.125012
49098		-0.038802	-0.187394	-0.981518	-0.503227	0.852270	-0.142824	0.863282	0.488385	-0.127371
49099		-0.041263	-0.187918	-0.981318	-0.502788	0.852644	-0.142136	0.863424	0.487530	-0.129666
49100		-0.043907	-0.188123	-0.981164	-0.501733	0.853424	-0.141178	0.863908	0.486083	-0.131859
49101		-0.046794	-0.188203	-0.981015	-0.500260	0.854472	-0.140064	0.864610	0.484208	-0.134134
49102		-0.049930	-0.187906	-0.980917	-0.498156	0.855937	-0.138608	0.865649	0.481729	-0.136344
49103		-0.053235	-0.187342	-0.980851	-0.495939	0.857503	-0.136866	0.866724	0.479156	-0.138560
49104		-0.057043	-0.186376	-0.980821	-0.494014	0.858989	-0.134494	0.867581	0.476868	-0.141071
49105		-0.061132	-0.185069	-0.980822	-0.492972	0.860042	-0.131553	0.867895	0.475476	-0.143810
49106		-0.065867	-0.183152	-0.980876	-0.491891	0.861229	-0.127780	0.868161	0.474068	-0.146818
49107		-0.071541	-0.180628	-0.980946	-0.490498	0.862706	-0.123084	0.868501	0.472347	-0.150316
49108		-0.078089	-0.177180	-0.981076	-0.488530	0.864631	-0.117266	0.869046	0.470128	-0.154076
49109		-0.084356	-0.172659	-0.981363	-0.486299	0.866753	-0.110694	0.869711	0.467898	-0.157080
49110		-0.089732	-0.167165	-0.981837	-0.484652	0.868552	-0.103585	0.870092	0.466555	-0.158954
49111		-0.094876	-0.161849	-0.982244	-0.485363	0.868993	-0.096307	0.869150	0.467607	-0.161002
49112		-0.100493	-0.157287	-0.982427	-0.489852	0.867277	-0.088744	0.865994	0.472326	-0.164202
49113		-0.106245	-0.153843	-0.982367	-0.498091	0.863302	-0.081328	0.860591	0.480668	-0.168349
49114		-0.111768	-0.151367	-0.982138	-0.508085	0.858085	-0.074428	0.854024	0.490691	-0.172814
49115		-0.116929	-0.150003	-0.981747	-0.518572	0.852289	-0.068460	0.847001	0.501101	-0.177445
49116		-0.121267	-0.149173	-0.981347	-0.527929	0.846911	-0.063500	0.840586	0.510381	-0.181455
49117		-0.124735	-0.148796	-0.980969	-0.534833	0.842837	-0.059837	0.835701	0.517191	-0.184712
49118		-0.128061	-0.148538	-0.980580	-0.538976	0.840396	-0.056914	0.832529	0.521221	-0.187681
49119		-0.131375	-0.148251	-0.980185	-0.542702	0.838186	-0.054035	0.829588	0.524849	-0.190573
49120		-0.135395	-0.147741	-0.979715	-0.548207	0.834839	-0.050133	0.825310	0.530299	-0.194026
49121		-0.140029	-0.146930	-0.979185	-0.556757	0.829464	-0.044844	0.818788	0.538889	-0.197954
49122		-0.144880	-0.145475	-0.978696	-0.567132	0.822734	-0.038338	0.810785	0.549495	-0.201702
49123		-0.150563	-0.144181	-0.978030	-0.577971	0.815459	-0.031239	0.802047	0.560569	-0.206111
49124		-0.156882	-0.143237	-0.977175	-0.588515	0.808131	-0.023974	0.793119	0.571321	-0.211078
49125		-0.162913	-0.142451	-0.976303	-0.598647	0.800834	-0.016954	0.784271	0.581699	-0.215744
49126		-0.167894	-0.141323	-0.975623	-0.608532	0.793464	-0.010215	0.775565	0.591982	-0.219217
49127		-0.171241	-0.139552	-0.975296	-0.617674	0.786423	-0.004076	0.767564	0.601717	-0.220866
49128		-0.173622	-0.137192	-0.975209	-0.624676	0.780883	0.001360	0.761338	0.609426	-0.221279
49129		-0.175661	-0.134742	-0.975186	-0.628506	0.777783	0.005746	0.757709	0.613920	-0.221313
49130		-0.177390	-0.132099	-0.975235	-0.629462	0.776976	0.009252	0.756512	0.615515	-0.220979
49131		-0.178965	-0.129490	-0.975297	-0.628562	0.777665	0.012090	0.756889	0.615198	-0.220568
49132		-0.180825	-0.126883	-0.975296	-0.626223	0.779506	0.014694	0.758385	0.613410	-0.220411
49133		-0.182773	-0.124035	-0.975300	-0.622462	0.782462	0.017140	0.761009	0.610220	-0.220220
49134		-0.185155	-0.120920	-0.975241	-0.617509	0.786316	0.019742	0.764460	0.605876	-0.220260
49135		-0.188626	-0.118385	-0.974887	-0.611991	0.790547	0.022412	0.768041	0.600850	-0.221568
49136		-0.192312	-0.115483	-0.974515	-0.607388	0.793987	0.025773	0.770776	0.596866	-0.222836
49137		-0.195907	-0.111460	-0.974267	-0.603145	0.797064	0.030094	0.773199	0.593520	-0.223377
49138		-0.199941	-0.106441	-0.974009	-0.600558	0.798771	0.035990	0.774179	0.592145	-0.223631
49139		-0.204346	-0.101017	-0.973673	-0.598581	0.799927	0.042633	0.774560	0.591534	-0.223929
49140		-0.208677	-0.094885	-0.973371	-0.596103	0.801370	0.049678	0.775316	0.590595	-0.223789
49141		-0.212560	-0.088148	-0.973164	-0.592846	0.803316	0.056727	0.776757	0.588994	-0.223011
49142		-0.216251	-0.081230	-0.972953	-0.589121	0.805531	0.063687	0.778570	0.586960	-0.222051
49143		-0.219717	-0.074447	-0.972719	-0.585626	0.807512	0.070478	0.780235	0.585135	-0.221022
49144		-0.223461	-0.068247	-0.972321	-0.582378	0.809259	0.077041	0.781602	0.583474	-0.220583
49145		-0.227372	-0.062662	-0.971790	-0.579637	0.810601	0.083351	0.782511	0.582237	-0.220630
49146		-0.231457	-0.057609	-0.971138	-0.577637	0.811368	0.089540	0.782792	0.581690	-0.221074
49147		-0.235798	-0.053020	-0.970355	-0.576481	0.811481	0.095748	0.782348	0.581968	-0.221911
49148		-0.240500	-0.048909	-0.969416	-0.575860	0.811168	0.101939	0.781374	0.582764	-0.223251
49149		-0.245460	-0.045111	-0.968357	-0.576087	0.810184	0.108285	0.779662	0.584438	-0.224856
49150		-0.250534	-0.041507	-0.967218	-0.576938	0.808689	0.114738	0.777416	0.586770	-0.226551
49151		-0.255569	-0.037953	-0.966046	-0.578476	0.806623	0.121347	0.774629	0.589847	-0.228103
49152		-0.260202	-0.034149	-0.964950	-0.580522	0.804107	0.128082	0.771550	0.593502	-0.229054
49153		-0.264362	-0.030071	-0.963955	-0.583202	0.801039	0.134953	0.768107	0.597856	-0.229301
49154		-0.268389	-0.026027	-0.962959	-0.585920	0.797877	0.141738	0.764634	0.602258	-0.229391
49155		-0.272217	-0.021988	-0.961985	-0.588308	0.794921	0.148306	0.761440	0.606315	-0.229326
49156		-0.276157	-0.018118	-0.960942	-0.590162	0.792331	0.154662	0.758582	0.609822	-0.229500
49157		-0.280019	-0.014429	-0.959886	-0.591519	0.790119	0.160681	0.756105	0.612784	-0.229783
49158		-0.283676	-0.010627	-0.958861	-0.591925	0.788634	0.166378	0.754422	0.614771	-0.230007
49159		-0.287422	-0.006910	-0.957779	-0.591305	0.787944	0.171761	0.753490	0.615708	-0.230559
49160		-0.291196	-0.003088	-0.956659	-0.589688	0.788008	0.176950	0.753308	0.615657	-0.231286
49162		-0.298413	0.005323	-0.954422	-0.585665	0.788565	0.187514	0.753622	0.614928	-0.232200
49163		-0.302125	0.009813	-0.953218	-0.584019	0.788408	0.193223	0.753421	0.615075	-0.232467
49164		-0.306076	0.014256	-0.951900	-0.582852	0.787781	0.199210	0.752729	0.615790	-0.232812
49165		-0.310257	0.018531	-0.950472	-0.582603	0.786347	0.205507	0.751209	0.617508	-0.233173
49166		-0.314181	0.022820	-0.949089	-0.583518	0.783937	0.212014	0.748864	0.620421	-0.232983
49168		-0.321584	0.030780	-0.946381	-0.586698	0.778017	0.224666	0.743216	0.627489	-0.232139
49169		-0.325029	0.034509	-0.945074	-0.588340	0.775023	0.230640	0.740414	0.630990	-0.231602
49170		-0.328170	0.038384	-0.943838	-0.589474	0.772430	0.236372	0.738122	0.633939	-0.230862
49171		-0.331134	0.042261	-0.942637	-0.590127	0.770237	0.241835	0.736274	0.636356	-0.230112
49172		-0.333965	0.046148	-0.941455	-0.590575	0.768204	0.247152	0.734635	0.638540	-0.229300
49173		-0.336833	0.049747	-0.940249	-0.591387	0.765876	0.252379	0.732669	0.641061	-0.228553
49174		-0.339722	0.053077	-0.939027	-0.592777	0.763063	0.257586	0.730209	0.644141	-0.227766
49175		-0.342336	0.056140	-0.937899	-0.594436	0.760102	0.262469	0.727634	0.647374	-0.226839
49176		-0.344625	0.059234	-0.936870	-0.596177	0.757095	0.267169	0.725125	0.650614	-0.225600
49177		-0.346495	0.062325	-0.935979	-0.597909	0.754162	0.271561	0.722805	0.653724	-0.224049
49180		-0.349550	0.071968	-0.934150	-0.602698	0.746099	0.283004	0.717335	0.661934	-0.217424
49181		-0.350107	0.074531	-0.933740	-0.605251	0.742794	0.286229	0.714910	0.665358	-0.214947
49182		-0.350354	0.077124	-0.933437	-0.608859	0.738547	0.289550	0.711718	0.669776	-0.211795
49185		-0.348325	0.085903	-0.933429	-0.621336	0.724445	0.298532	0.701863	0.683959	-0.198968
49186		-0.346507	0.089072	-0.933809	-0.625038	0.720375	0.300646	0.699471	0.687842	-0.193941
49187		-0.344066	0.091959	-0.934431	-0.628845	0.716461	0.302055	0.697260	0.691540	-0.188682
49188		-0.341302	0.094454	-0.935196	-0.633089	0.712316	0.302991	0.694774	0.695474	-0.183318
49190		-0.334219	0.097351	-0.937454	-0.642286	0.704402	0.302136	0.689758	0.703093	-0.172897
49191		-0.329160	0.097914	-0.939184	-0.646287	0.701791	0.299671	0.688453	0.705622	-0.167721
49192		-0.322975	0.097232	-0.941400	-0.650255	0.699941	0.295382	0.687645	0.707551	-0.162838
49193		-0.315239	0.095671	-0.944178	-0.654245	0.698786	0.289244	0.687450	0.708905	-0.157692
49195		-0.293798	0.088804	-0.951733	-0.664804	0.696437	0.270207	0.686817	0.712102	-0.145575
49196		-0.280080	0.083167	-0.956367	-0.671709	0.694759	0.257133	0.685830	0.714418	-0.138724
49197		-0.264420	0.075860	-0.961420	-0.679544	0.692728	0.241554	0.684326	0.717198	-0.131620
49198		-0.246927	0.067735	-0.966664	-0.687327	0.690950	0.223988	0.683088	0.719722	-0.124058
49199		-0.227844	0.058260	-0.971953	-0.694264	0.690169	0.204118	0.682704	0.721299	-0.116803
49200		-0.208000	0.048099	-0.976945	-0.699247	0.691086	0.182901	0.683951	0.721170	-0.110113
49201		-0.187953	0.036949	-0.981483	-0.702701	0.693109	0.160660	0.686211	0.719885	-0.104308
49202		-0.168679	0.025680	-0.985336	-0.704193	0.696330	0.138699	0.689681	0.717262	-0.099373
49203		-0.150987	0.013259	-0.988447	-0.704898	0.699583	0.117059	0.693052	0.714429	-0.096282
49204		-0.135291	0.000248	-0.990806	-0.705741	0.701861	0.096542	0.695432	0.712314	-0.094780
49206		-0.109690	-0.026776	-0.993605	-0.712129	0.699500	0.059766	0.693426	0.714131	-0.095796
49208		-0.085147	-0.048771	-0.995174	-0.730168	0.682651	0.029018	0.677941	0.729115	-0.093737
49209		-0.072180	-0.057859	-0.995712	-0.741538	0.670748	0.014778	0.667016	0.739425	-0.091319
49210		-0.061600	-0.068016	-0.995781	-0.752491	0.658601	0.001564	0.655716	0.749412	-0.091751
49211		-0.052587	-0.079130	-0.995476	-0.760977	0.648679	-0.011364	0.646644	0.756937	-0.094328
49212		-0.044079	-0.089734	-0.994990	-0.765969	0.642429	-0.024004	0.641365	0.761073	-0.097051
49213		-0.035493	-0.099758	-0.994378	-0.767145	0.640414	-0.036865	0.640491	0.761524	-0.099259
49214		-0.026980	-0.108770	-0.993701	-0.765430	0.641616	-0.049449	0.642953	0.759275	-0.100567
49215		-0.018758	-0.117257	-0.992925	-0.761831	0.644826	-0.061757	0.647504	0.755282	-0.101425
49216		-0.011610	-0.125467	-0.992030	-0.756437	0.649941	-0.073348	0.653964	0.749556	-0.102454
49217		-0.005413	-0.133910	-0.990979	-0.750127	0.655869	-0.084530	0.661271	0.742902	-0.104000
49218		0.000051	-0.142094	-0.989853	-0.743246	0.662224	-0.095102	0.669018	0.735709	-0.105577
49219		0.005223	-0.149984	-0.988675	-0.735186	0.669611	-0.105466	0.677846	0.727410	-0.106769
49220		0.009771	-0.157269	-0.987507	-0.724614	0.679429	-0.115375	0.689086	0.716689	-0.107321
49221		0.013789	-0.164277	-0.986318	-0.712379	0.690577	-0.124979	0.701660	0.704355	-0.107505
49222		0.017309	-0.170360	-0.985230	-0.699492	0.702026	-0.133679	0.714431	0.691474	-0.107014
49223		0.020503	-0.176013	-0.984174	-0.686326	0.713322	-0.141871	0.727005	0.678374	-0.106177
49224		0.022863	-0.181305	-0.983161	-0.672479	0.724897	-0.149316	0.739763	0.664569	-0.105351
49225		0.024816	-0.186365	-0.982167	-0.659567	0.735242	-0.156176	0.751236	0.651681	-0.104675
49227		0.026097	-0.194351	-0.980585	-0.636403	0.753233	-0.166227	0.770915	0.628385	-0.104028
49228		0.025795	-0.196906	-0.980083	-0.624936	0.762043	-0.169548	0.780250	0.616862	-0.103397
49229		0.024849	-0.198856	-0.979714	-0.613555	0.770694	-0.171993	0.789261	0.605382	-0.102858
49230		0.023103	-0.200592	-0.979402	-0.602878	0.778694	-0.173706	0.797499	0.594473	-0.102942
49231		0.021204	-0.201590	-0.979240	-0.592200	0.786612	-0.174758	0.805512	0.583612	-0.102702
49232		0.019878	-0.201668	-0.979252	-0.582466	0.793730	-0.175285	0.812612	0.573866	-0.101687
49233		0.019479	-0.200552	-0.979489	-0.574035	0.799870	-0.175190	0.818599	0.565674	-0.099543
49234		0.019352	-0.198873	-0.979834	-0.566475	0.805359	-0.174649	0.823852	0.558431	-0.097071
49235		0.018793	-0.197160	-0.980191	-0.559157	0.810645	-0.173777	0.828849	0.551347	-0.095009
49236		0.017940	-0.195262	-0.980587	-0.552049	0.815764	-0.172541	0.833619	0.544428	-0.093159
49237		0.016968	-0.193175	-0.981018	-0.544885	0.820876	-0.171065	0.838339	0.537445	-0.091330
49238		0.015799	-0.190917	-0.981479	-0.537663	0.825983	-0.169324	0.843012	0.530380	-0.089599
49239		0.014495	-0.188475	-0.981971	-0.530892	0.830763	-0.167290	0.847316	0.523745	-0.088018
49240		0.013123	-0.185950	-0.982471	-0.524841	0.835044	-0.165057	0.851099	0.517808	-0.086636
49241		0.012014	-0.183337	-0.982977	-0.520011	0.838512	-0.162748	0.854075	0.513114	-0.085264
49242		0.011293	-0.180712	-0.983471	-0.517127	0.840740	-0.160424	0.855834	0.510392	-0.083956
49243		0.010745	-0.178241	-0.983928	-0.516311	0.841679	-0.158110	0.856334	0.509712	-0.082984
49244		0.009939	-0.176397	-0.984269	-0.516808	0.841754	-0.156075	0.856044	0.510229	-0.082797
49245		0.007916	-0.175806	-0.984393	-0.518330	0.841129	-0.154388	0.855144	0.511463	-0.084467
49246		0.004417	-0.176669	-0.984260	-0.522635	0.838735	-0.152893	0.852545	0.515084	-0.088629
49247		0.000664	-0.178199	-0.983994	-0.529675	0.834562	-0.151495	0.848200	0.521298	-0.093833
49248		-0.002714	-0.179978	-0.983667	-0.537415	0.829808	-0.150345	0.843314	0.528229	-0.098975
49249		-0.005592	-0.181856	-0.983309	-0.544127	0.825560	-0.149587	0.838984	0.534209	-0.103569
49250		-0.008302	-0.184339	-0.982828	-0.548768	0.822475	-0.149628	0.835934	0.538102	-0.107988
49251		-0.010331	-0.187035	-0.982299	-0.550194	0.821344	-0.150602	0.834973	0.538899	-0.111391
49252		-0.011053	-0.189826	-0.981755	-0.548975	0.821770	-0.152712	0.835765	0.537272	-0.113293
49253		-0.011249	-0.192826	-0.981168	-0.546476	0.822919	-0.155460	0.837399	0.534436	-0.114632
49254		-0.011928	-0.196698	-0.980392	-0.544357	0.823716	-0.158641	0.838769	0.531791	-0.116899
49255		-0.013781	-0.201367	-0.979419	-0.543562	0.823648	-0.161693	0.839256	0.530147	-0.120806
49256		-0.015920	-0.206224	-0.978375	-0.543957	0.822814	-0.164583	0.838962	0.529574	-0.125276
49257		-0.017851	-0.210566	-0.977417	-0.544684	0.821825	-0.167099	0.838451	0.529400	-0.129362
49258		-0.019635	-0.214591	-0.976507	-0.544286	0.821577	-0.169600	0.838670	0.528169	-0.132930
49259		-0.021287	-0.217746	-0.975773	-0.541581	0.822903	-0.171818	0.840379	0.524802	-0.135444
49260		-0.022919	-0.220264	-0.975171	-0.536639	0.825700	-0.173891	0.843500	0.519330	-0.137127
49261		-0.025173	-0.221907	-0.974743	-0.529408	0.830059	-0.175297	0.847994	0.511624	-0.138374
49262		-0.027830	-0.222453	-0.974546	-0.520689	0.835444	-0.175831	0.853293	0.502542	-0.139079
49263		-0.031334	-0.221509	-0.974655	-0.511730	0.841192	-0.174725	0.858575	0.493286	-0.139711
49264		-0.036381	-0.219582	-0.974915	-0.504745	0.846018	-0.171715	0.862501	0.485837	-0.141612
49265		-0.043448	-0.216564	-0.975301	-0.500127	0.849810	-0.166419	0.864861	0.480544	-0.145232
49266		-0.051658	-0.212632	-0.975766	-0.498828	0.851947	-0.159242	0.865160	0.478513	-0.150076
49267		-0.060360	-0.207787	-0.976310	-0.501188	0.852172	-0.150382	0.863231	0.480237	-0.155577
49268		-0.068904	-0.202426	-0.976870	-0.506611	0.850644	-0.140536	0.859417	0.485210	-0.161164
49269		-0.076570	-0.196921	-0.977425	-0.513794	0.847918	-0.130579	0.854490	0.492197	-0.166101
49270		-0.082914	-0.193168	-0.977656	-0.522307	0.843921	-0.122448	0.848717	0.500484	-0.170866
49272		-0.090749	-0.194388	-0.976718	-0.550301	0.827216	-0.113504	0.830020	0.527188	-0.182041
49273		-0.096810	-0.201970	-0.974595	-0.561884	0.819326	-0.113979	0.821532	0.536575	-0.192803
49274		-0.104372	-0.212015	-0.971677	-0.566798	0.815499	-0.117055	0.817219	0.538527	-0.205285
49275		-0.107566	-0.218165	-0.969966	-0.569751	0.813055	-0.119689	0.814747	0.539765	-0.211757
49276		-0.105426	-0.218221	-0.970188	-0.572477	0.811060	-0.120220	0.813115	0.542736	-0.210433
49277		-0.105829	-0.217167	-0.970381	-0.581163	0.805354	-0.116853	0.806877	0.551583	-0.211439
49278		-0.110747	-0.216357	-0.970013	-0.599140	0.793255	-0.108528	0.792948	0.569154	-0.217479
49279		-0.117079	-0.214468	-0.969688	-0.621170	0.777650	-0.096995	0.774880	0.590986	-0.224268
49280		-0.123671	-0.211431	-0.969537	-0.641690	0.762307	-0.084388	0.756928	0.611706	-0.229949
49281		-0.130423	-0.207671	-0.969465	-0.656059	0.751204	-0.072657	0.743355	0.626551	-0.234218
49284		-0.146371	-0.191334	-0.970550	-0.674030	0.737409	-0.043720	0.724057	0.647781	-0.236900
49285		-0.149980	-0.184466	-0.971328	-0.675791	0.736239	-0.035473	0.721673	0.651095	-0.235082
49286		-0.153584	-0.177630	-0.972039	-0.676112	0.736277	-0.027720	0.720614	0.652950	-0.233178
49287		-0.157313	-0.171183	-0.972599	-0.675557	0.737024	-0.020452	0.720330	0.653829	-0.231588
49288		-0.160845	-0.165193	-0.973057	-0.672684	0.739789	-0.014398	0.722236	0.652244	-0.230114
49289		-0.164072	-0.159223	-0.973514	-0.667992	0.744112	-0.009123	0.725856	0.648803	-0.228447
49290		-0.167238	-0.153301	-0.973925	-0.662393	0.749145	-0.004176	0.730251	0.644422	-0.226831
49291		-0.170964	-0.147634	-0.974154	-0.656384	0.754427	0.000862	0.734800	0.639566	-0.225885
49292		-0.175294	-0.142187	-0.974195	-0.651063	0.758997	0.006373	0.738505	0.635379	-0.225620
49293		-0.179836	-0.136476	-0.974183	-0.646628	0.762702	0.012520	0.741303	0.632186	-0.225411
49294		-0.184570	-0.130528	-0.974113	-0.642605	0.765959	0.019121	0.743635	0.629499	-0.225251
49295		-0.189288	-0.124078	-0.974051	-0.638688	0.769021	0.026156	0.745820	0.627066	-0.224814
49296		-0.194326	-0.117785	-0.973840	-0.635421	0.771439	0.033491	0.747313	0.625307	-0.224754
49297		-0.199698	-0.111901	-0.973447	-0.633648	0.772525	0.041185	0.747403	0.625047	-0.225178
49298		-0.205170	-0.106457	-0.972919	-0.633430	0.772242	0.049080	0.746104	0.626346	-0.225874
49299		-0.210508	-0.101054	-0.972355	-0.634294	0.770974	0.057195	0.743880	0.628799	-0.226394
49300		-0.215818	-0.095993	-0.971704	-0.635446	0.769394	0.065127	0.741371	0.631521	-0.227047
49301		-0.221058	-0.090916	-0.971014	-0.636619	0.767711	0.073050	0.738816	0.634314	-0.227587
49302		-0.226121	-0.085716	-0.970321	-0.637655	0.766060	0.080925	0.736387	0.637028	-0.227880
49303		-0.231025	-0.080252	-0.969632	-0.637798	0.765086	0.088640	0.734739	0.638908	-0.227938
49304		-0.236273	-0.075140	-0.968777	-0.637389	0.764519	0.096154	0.733424	0.640206	-0.228529
49305		-0.241493	-0.069999	-0.967875	-0.636230	0.764532	0.103452	0.732730	0.640774	-0.229164
49306		-0.246629	-0.064928	-0.966932	-0.634369	0.765102	0.110429	0.732632	0.640627	-0.229885
49308		-0.257352	-0.055354	-0.964731	-0.630771	0.765946	0.124317	0.732051	0.640517	-0.232034
49309		-0.262689	-0.050688	-0.963548	-0.628798	0.766436	0.131109	0.731852	0.640318	-0.233206
49310		-0.267654	-0.045712	-0.962430	-0.626097	0.767496	0.137666	0.732369	0.639421	-0.234044
49311		-0.272111	-0.040441	-0.961416	-0.623183	0.768696	0.144046	0.733211	0.638334	-0.234373
49312		-0.276301	-0.035034	-0.960432	-0.620336	0.769785	0.150381	0.734058	0.637341	-0.234425
49313		-0.280389	-0.029971	-0.959419	-0.617730	0.770669	0.156456	0.734705	0.636530	-0.234601
49314		-0.284277	-0.025183	-0.958412	-0.615369	0.771358	0.162258	0.735193	0.635902	-0.234776
49315		-0.288078	-0.020738	-0.957383	-0.613199	0.771902	0.167792	0.735526	0.635403	-0.235084
49316		-0.291774	-0.016538	-0.956344	-0.610597	0.772831	0.172924	0.736233	0.634396	-0.235590
49317		-0.295299	-0.012339	-0.955325	-0.607630	0.774057	0.177825	0.737282	0.632996	-0.236076
49318		-0.298573	-0.008062	-0.954353	-0.605088	0.774898	0.182758	0.738053	0.632034	-0.236242
49319		-0.301692	-0.003623	-0.953398	-0.603260	0.775082	0.187949	0.738281	0.631850	-0.236022
49320		-0.304957	0.000762	-0.952366	-0.601725	0.774960	0.193299	0.738192	0.632010	-0.235871
49321		-0.308503	0.004789	-0.951211	-0.600487	0.774566	0.198653	0.737727	0.632475	-0.236080
49322		-0.312192	0.008373	-0.949982	-0.599660	0.773847	0.203886	0.736848	0.633318	-0.236568
49323		-0.315819	0.011526	-0.948749	-0.599142	0.772928	0.208832	0.735722	0.634389	-0.237199
49324		-0.319334	0.014294	-0.947534	-0.599065	0.771702	0.213536	0.734266	0.635824	-0.237868
49326		-0.324567	0.020634	-0.945638	-0.601642	0.766938	0.223233	0.729852	0.641389	-0.236508
49327		-0.326404	0.024309	-0.944918	-0.604992	0.762709	0.228604	0.726255	0.646285	-0.234245
49328		-0.327819	0.028341	-0.944315	-0.609527	0.757343	0.234326	0.721812	0.652402	-0.230997
49329		-0.328993	0.032536	-0.943772	-0.614903	0.751117	0.240245	0.716700	0.659367	-0.227106
49330		-0.330057	0.036638	-0.943250	-0.620686	0.744434	0.246103	0.711203	0.666690	-0.222965
49331		-0.331060	0.040419	-0.942744	-0.626961	0.737244	0.251776	0.705209	0.674416	-0.218731
49332		-0.331655	0.044211	-0.942364	-0.632976	0.730258	0.257029	0.699533	0.681739	-0.214209
49333		-0.331790	0.047887	-0.942137	-0.638438	0.723842	0.261629	0.694487	0.688302	-0.209590
49335		-0.330823	0.054249	-0.942132	-0.646816	0.713919	0.268233	0.687157	0.698124	-0.201092
49336		-0.329303	0.056703	-0.942520	-0.650027	0.710385	0.269848	0.684853	0.701526	-0.197073
49337		-0.327131	0.058615	-0.943159	-0.652557	0.707878	0.270330	0.683487	0.703899	-0.193319
49338		-0.324287	0.059453	-0.944088	-0.654802	0.706161	0.269390	0.682694	0.705551	-0.190069
49339		-0.320182	0.059718	-0.945472	-0.657329	0.704677	0.267112	0.682204	0.707010	-0.186370
49341		-0.307063	0.058669	-0.949879	-0.663355	0.702485	0.257828	0.682402	0.709276	-0.176789
49342		-0.297955	0.057116	-0.952870	-0.667096	0.701541	0.250646	0.682793	0.710337	-0.170926
49343		-0.286970	0.054489	-0.956389	-0.671594	0.700483	0.241425	0.683089	0.711586	-0.164423
49344		-0.274096	0.050938	-0.960352	-0.676371	0.699679	0.230156	0.683662	0.712639	-0.157326
49345		-0.259487	0.045940	-0.964653	-0.681488	0.699039	0.216607	0.684281	0.713606	-0.150085
49346		-0.243422	0.039950	-0.969097	-0.686388	0.698843	0.201219	0.685286	0.714158	-0.142692
49347		-0.226142	0.032668	-0.973546	-0.690699	0.699366	0.183908	0.686873	0.714017	-0.135592
49348		-0.208052	0.024479	-0.977811	-0.693464	0.701318	0.165107	0.689798	0.712428	-0.128935
49349		-0.189703	0.015162	-0.981724	-0.694918	0.704285	0.145159	0.693615	0.709755	-0.123069
49350		-0.171736	0.005033	-0.985130	-0.695444	0.707651	0.124851	0.697757	0.706544	-0.118029
49351		-0.154848	-0.006373	-0.987918	-0.695471	0.710926	0.104423	0.701671	0.703238	-0.114518
49352		-0.139455	-0.018347	-0.990058	-0.695570	0.713442	0.084754	0.704794	0.700475	-0.112254
49353		-0.125437	-0.030347	-0.991637	-0.696965	0.714033	0.066311	0.706050	0.699454	-0.110717
49355		-0.099334	-0.050744	-0.993759	-0.707670	0.705691	0.034703	0.699526	0.706701	-0.106009
49356		-0.085994	-0.059533	-0.994515	-0.719240	0.694456	0.020621	0.689419	0.717068	-0.102537
49357		-0.073844	-0.068948	-0.994883	-0.731680	0.681612	0.007070	0.677637	0.728458	-0.100781
49358		-0.063534	-0.079830	-0.994782	-0.743483	0.668726	-0.006180	0.665730	0.739211	-0.101839
49359		-0.054772	-0.091058	-0.994338	-0.753757	0.656889	-0.018636	0.654866	0.748469	-0.104615
49360		-0.046172	-0.101056	-0.993809	-0.761173	0.647831	-0.030511	0.646903	0.755052	-0.106832
49361		-0.037939	-0.110231	-0.993182	-0.764773	0.642920	-0.042143	0.643181	0.757960	-0.108693
49362		-0.030024	-0.119047	-0.992435	-0.764555	0.642300	-0.053917	0.643859	0.757152	-0.110302
49363		-0.022301	-0.126986	-0.991654	-0.761075	0.645346	-0.065524	0.648280	0.753262	-0.111038
49364		-0.014773	-0.134500	-0.990803	-0.755138	0.651015	-0.077115	0.655400	0.747054	-0.111184
49365		-0.007489	-0.141856	-0.989859	-0.747210	0.658637	-0.088736	0.664545	0.738968	-0.110929
49366		-0.000268	-0.148785	-0.988869	-0.737304	0.668071	-0.100318	0.675561	0.729071	-0.109879
49367		0.006449	-0.155736	-0.987778	-0.725545	0.679033	-0.111795	0.688144	0.717398	-0.108615
49368		0.012727	-0.162739	-0.986587	-0.713260	0.690019	-0.123021	0.700784	0.705259	-0.107294
49369		0.018361	-0.169418	-0.985373	-0.699784	0.701733	-0.133691	0.714118	0.692003	-0.105672
49370		0.023173	-0.176321	-0.984060	-0.685705	0.713495	-0.143989	0.727511	0.678112	-0.104370
49371		0.026937	-0.183097	-0.982726	-0.671783	0.724683	-0.153434	0.740258	0.664311	-0.103481
49372		0.029856	-0.190161	-0.981299	-0.659070	0.734347	-0.162358	0.751488	0.651592	-0.103404
49373		0.031718	-0.196814	-0.979928	-0.647360	0.742944	-0.170170	0.761524	0.639764	-0.103845
49374		0.032904	-0.202207	-0.978790	-0.635856	0.751334	-0.176592	0.771106	0.628180	-0.103852
49375		0.033713	-0.206194	-0.977930	-0.624074	0.759935	-0.181744	0.780638	0.616428	-0.103061
49376		0.033550	-0.209772	-0.977175	-0.611826	0.768802	-0.186047	0.790281	0.604103	-0.102550
49377		0.032336	-0.212862	-0.976547	-0.599531	0.777629	-0.189355	0.799698	0.591593	-0.102472
49378		0.030899	-0.215309	-0.976057	-0.587324	0.786241	-0.192030	0.808762	0.579195	-0.102162
49379		0.029267	-0.217167	-0.975695	-0.575495	0.794440	-0.194087	0.817281	0.567189	-0.101728
49380		0.028144	-0.218186	-0.975501	-0.565397	0.801306	-0.195537	0.824339	0.557049	-0.100810
49381		0.027668	-0.218312	-0.975487	-0.557603	0.806559	-0.196322	0.829647	0.549366	-0.099416
49382		0.027146	-0.217854	-0.975604	-0.551517	0.810718	-0.196381	0.833722	0.543393	-0.098142
49383		0.025639	-0.217262	-0.975777	-0.546470	0.814300	-0.195667	0.837086	0.538249	-0.097850
49384		0.023592	-0.216313	-0.976039	-0.541900	0.817671	-0.194314	0.840112	0.533500	-0.097929
49385		0.021342	-0.214861	-0.976411	-0.537217	0.821195	-0.192448	0.843174	0.528652	-0.097901
49386		0.018896	-0.212760	-0.976922	-0.532628	0.824764	-0.189924	0.846138	0.523925	-0.097737
49387		0.016528	-0.210118	-0.977536	-0.528858	0.827877	-0.186891	0.848549	0.520067	-0.097439
49388		0.014433	-0.207154	-0.978202	-0.525731	0.830589	-0.183651	0.850528	0.516922	-0.096919
49389		0.012742	-0.204202	-0.978846	-0.523698	0.832562	-0.180502	0.851809	0.514919	-0.096331
49390		0.011522	-0.201282	-0.979466	-0.522629	0.833876	-0.177510	0.852482	0.513943	-0.095588
49392		0.008836	-0.196453	-0.980473	-0.520020	0.836593	-0.172311	0.854108	0.511388	-0.094767
49393		0.005494	-0.195706	-0.980647	-0.519045	0.837655	-0.170077	0.854730	0.509934	-0.096978
49394		0.001090	-0.196134	-0.980577	-0.521283	0.836697	-0.167935	0.853383	0.511341	-0.101329
49395		-0.003252	-0.197181	-0.980362	-0.526861	0.833600	-0.165915	0.849945	0.515975	-0.106598
49396		-0.006517	-0.198715	-0.980036	-0.532723	0.830095	-0.164770	0.846265	0.521014	-0.111270
49397		-0.009173	-0.200827	-0.979584	-0.536510	0.827674	-0.164659	0.843844	0.524046	-0.115338
49398		-0.011663	-0.203813	-0.978940	-0.536713	0.827305	-0.165848	0.843684	0.523476	-0.119038
49399		-0.013766	-0.207166	-0.978209	-0.532484	0.829562	-0.168191	0.846328	0.518565	-0.121732
49400		-0.014662	-0.210444	-0.977496	-0.524618	0.833854	-0.171651	0.851211	0.510295	-0.122629
49401		-0.015571	-0.214364	-0.976630	-0.515333	0.838747	-0.175884	0.856849	0.500551	-0.123529
49402		-0.017243	-0.218925	-0.975589	-0.507751	0.842473	-0.180079	0.861331	0.492252	-0.125686
49403		-0.019051	-0.223626	-0.974489	-0.502763	0.844616	-0.183994	0.864214	0.486432	-0.128521
49404		-0.020363	-0.227966	-0.973456	-0.501150	0.844834	-0.187362	0.865121	0.484032	-0.131449
49405		-0.021365	-0.232013	-0.972478	-0.501705	0.843847	-0.190302	0.864775	0.483831	-0.134430
49406		-0.022270	-0.235735	-0.971562	-0.501602	0.843270	-0.193109	0.864812	0.483037	-0.137025
49407		-0.022765	-0.238731	-0.970819	-0.499882	0.843683	-0.195746	0.865794	0.480839	-0.138544
49408		-0.023483	-0.241086	-0.970219	-0.495521	0.845692	-0.198150	0.868278	0.476112	-0.139323
49409		-0.024836	-0.242852	-0.969745	-0.488376	0.849359	-0.200196	0.872280	0.468628	-0.139698
49410		-0.026749	-0.243362	-0.969567	-0.480007	0.853907	-0.201089	0.876857	0.460020	-0.139656
49411		-0.029805	-0.242777	-0.969624	-0.472232	0.858390	-0.200410	0.880970	0.451914	-0.140231
49412		-0.035185	-0.241235	-0.969829	-0.466284	0.862291	-0.197570	0.883935	0.445264	-0.142824
49413		-0.043033	-0.238823	-0.970109	-0.462629	0.865395	-0.192523	0.885507	0.440516	-0.147728
49414		-0.052386	-0.235329	-0.970503	-0.461749	0.867417	-0.185408	0.885462	0.438416	-0.154104
49415		-0.061597	-0.230859	-0.971035	-0.463788	0.868092	-0.176965	0.883802	0.439454	-0.160541
49416		-0.070090	-0.226230	-0.971549	-0.466555	0.868288	-0.168527	0.881711	0.441469	-0.166407
49417		-0.076789	-0.222179	-0.971977	-0.469713	0.867960	-0.161294	0.879473	0.444165	-0.171010
49418		-0.081460	-0.219925	-0.972110	-0.477894	0.864537	-0.155542	0.874632	0.451895	-0.175526
49420		-0.094931	-0.227824	-0.969064	-0.516259	0.843591	-0.147753	0.851155	0.486261	-0.197699
49421		-0.100937	-0.234830	-0.966782	-0.531993	0.833890	-0.147008	0.840711	0.499483	-0.209098
49422		-0.103082	-0.239756	-0.965345	-0.535907	0.830996	-0.149163	0.837961	0.501959	-0.214147
49423		-0.102708	-0.241757	-0.964886	-0.530229	0.834022	-0.152528	0.841611	0.495944	-0.213848
49424		-0.103497	-0.242480	-0.964620	-0.525888	0.836523	-0.153855	0.844233	0.491359	-0.214095
49425		-0.107376	-0.242737	-0.964131	-0.532785	0.832791	-0.150333	0.839411	0.497533	-0.218748
49426		-0.114305	-0.242546	-0.963382	-0.549470	0.823342	-0.142095	0.827658	0.513107	-0.227384
49427		-0.123406	-0.242338	-0.962311	-0.570757	0.810611	-0.130942	0.811793	0.533087	-0.238350
49429		-0.139551	-0.238690	-0.961016	-0.611565	0.784070	-0.105935	0.778790	0.572941	-0.255392
49430		-0.145630	-0.235410	-0.960924	-0.626269	0.773838	-0.094665	0.765884	0.588011	-0.260124
49431		-0.150669	-0.231409	-0.961118	-0.636581	0.766537	-0.084766	0.756348	0.599058	-0.262804
49434		-0.161028	-0.216594	-0.962890	-0.648696	0.758507	-0.062136	0.743817	0.614617	-0.262644
49435		-0.163504	-0.210869	-0.963743	-0.648690	0.758989	-0.056014	0.743282	0.616012	-0.260886
49437		-0.168975	-0.200430	-0.965026	-0.647338	0.760892	-0.044685	0.743237	0.617147	-0.258318
49438		-0.172851	-0.195768	-0.965297	-0.647243	0.761311	-0.038500	0.742428	0.618127	-0.258303
49439		-0.177249	-0.191483	-0.965359	-0.646925	0.761868	-0.032338	0.741668	0.618783	-0.258915
49440		-0.181903	-0.187307	-0.965312	-0.646317	0.762620	-0.026186	0.741071	0.619134	-0.259783
49441		-0.186382	-0.182929	-0.965297	-0.645880	0.763179	-0.019919	0.740339	0.619754	-0.260393
49442		-0.190677	-0.177891	-0.965400	-0.645051	0.764022	-0.013380	0.739967	0.620181	-0.260430
49443		-0.195203	-0.173131	-0.965361	-0.644372	0.764681	-0.006844	0.739378	0.620716	-0.260829
49444		-0.199714	-0.168408	-0.965274	-0.643822	0.765175	-0.000292	0.738653	0.621406	-0.261241
49445		-0.203587	-0.163792	-0.965259	-0.644668	0.764437	0.006255	0.736855	0.623545	-0.261221
49447		-0.210169	-0.155552	-0.965211	-0.648125	0.761311	0.018434	0.731958	0.629452	-0.260821
49448		-0.213516	-0.152740	-0.964926	-0.650298	0.759309	0.023704	0.729056	0.632550	-0.261452
49449		-0.216877	-0.150506	-0.964527	-0.652856	0.756939	0.028683	0.725771	0.635917	-0.262422
49452		-0.225472	-0.146246	-0.963210	-0.661781	0.748561	0.041257	0.714988	0.646737	-0.265563
49453		-0.227668	-0.145123	-0.962864	-0.662696	0.747594	0.044016	0.713443	0.648107	-0.266375
49454		-0.229368	-0.144251	-0.962591	-0.663435	0.746808	0.046171	0.712211	0.649207	-0.266995
49455		-0.231442	-0.143716	-0.962175	-0.664307	0.745892	0.048382	0.710726	0.650377	-0.268102
49456		-0.233369	-0.143319	-0.961768	-0.665943	0.744280	0.050679	0.708561	0.652309	-0.269134
49457		-0.234837	-0.142424	-0.961544	-0.667769	0.742471	0.053113	0.706354	0.654562	-0.269466
49458		-0.236309	-0.141913	-0.961259	-0.670286	0.740023	0.055527	0.703474	0.657440	-0.269996
49459		-0.237983	-0.141607	-0.960891	-0.672013	0.738294	0.057634	0.701258	0.659447	-0.270863
49460		-0.239585	-0.141740	-0.960473	-0.672899	0.737375	0.059034	0.699862	0.660445	-0.272041
49461		-0.241218	-0.142042	-0.960020	-0.673070	0.737137	0.060053	0.699136	0.660647	-0.273415
49462		-0.242342	-0.142251	-0.959706	-0.672913	0.737232	0.060647	0.698898	0.660495	-0.274385
49463		-0.243078	-0.141932	-0.959567	-0.671335	0.738655	0.060806	0.700159	0.658972	-0.274835
49464		-0.243917	-0.141803	-0.959373	-0.669244	0.740560	0.060692	0.701867	0.656858	-0.275536
49465		-0.244732	-0.141270	-0.959244	-0.668342	0.741321	0.061338	0.702442	0.656114	-0.275842
49466		-0.245512	-0.140689	-0.959130	-0.669468	0.740182	0.062793	0.701097	0.657524	-0.275910
49467		-0.246802	-0.140250	-0.958863	-0.670593	0.739015	0.064511	0.699567	0.658929	-0.276441
49468		-0.248784	-0.140409	-0.958328	-0.672058	0.737514	0.066411	0.697455	0.660574	-0.277845
49469		-0.250791	-0.139763	-0.957899	-0.674921	0.734608	0.069520	0.693963	0.663941	-0.278562
49470		-0.252575	-0.138397	-0.957628	-0.679028	0.730421	0.073533	0.689295	0.668829	-0.278462
49471		-0.255099	-0.136977	-0.957164	-0.682890	0.726339	0.078056	0.684533	0.673550	-0.278828
49472		-0.258417	-0.135879	-0.956429	-0.687555	0.721339	0.083290	0.678593	0.679122	-0.279831
49473		-0.261987	-0.134146	-0.955703	-0.692827	0.715529	0.089490	0.671828	0.685582	-0.280400
49474		-0.265413	-0.132095	-0.955043	-0.698473	0.709165	0.096023	0.664599	0.692558	-0.280486
49475		-0.268845	-0.129595	-0.954425	-0.703848	0.702870	0.102824	0.657511	0.699414	-0.280178
49476		-0.272043	-0.127001	-0.953868	-0.709456	0.696167	0.109647	0.650126	0.706556	-0.279489
49477		-0.274988	-0.124082	-0.953407	-0.715246	0.689075	0.116615	0.642499	0.713989	-0.278236
49478		-0.277690	-0.121509	-0.952955	-0.721841	0.680947	0.123517	0.633904	0.722181	-0.276803
49479		-0.280207	-0.119166	-0.952514	-0.728904	0.672094	0.130342	0.624647	0.730814	-0.275186
49480		-0.282285	-0.117349	-0.952126	-0.736653	0.662296	0.136775	0.614539	0.739996	-0.273402
49481		-0.283700	-0.115359	-0.951949	-0.744277	0.652438	0.142746	0.604621	0.749011	-0.270956
49482		-0.284839	-0.114139	-0.951756	-0.751875	0.642487	0.147969	0.594602	0.757748	-0.268823
49483		-0.285815	-0.113240	-0.951571	-0.759794	0.631901	0.153015	0.583971	0.766732	-0.266646
49484		-0.286440	-0.112728	-0.951443	-0.768423	0.620166	0.157862	0.572257	0.776329	-0.264263
49485		-0.286834	-0.112214	-0.951385	-0.777117	0.607994	0.162582	0.560192	0.785972	-0.261597
49486		-0.286914	-0.111928	-0.951395	-0.785985	0.595263	0.167001	0.547638	0.795697	-0.258763
49487		-0.286467	-0.111343	-0.951598	-0.794734	0.582340	0.171107	0.535103	0.805284	-0.255309
49488		-0.285490	-0.110789	-0.951957	-0.803700	0.568770	0.174835	0.522075	0.815001	-0.251419
49489		-0.284190	-0.110174	-0.952417	-0.812413	0.555187	0.178192	0.509137	0.824396	-0.247285
49490		-0.282455	-0.109892	-0.952965	-0.821057	0.541417	0.180924	0.496069	0.833542	-0.243154
49491		-0.280431	-0.109704	-0.953585	-0.829452	0.527674	0.183220	0.483082	0.842333	-0.238970
49492		-0.278219	-0.109952	-0.954204	-0.838153	0.513007	0.185268	0.469142	0.851313	-0.234885
49493		-0.275680	-0.109855	-0.954951	-0.847011	0.497489	0.187289	0.454503	0.860486	-0.230196
49494		-0.272729	-0.109551	-0.955833	-0.855973	0.481204	0.189083	0.439237	0.869736	-0.225011
49495		-0.269337	-0.108905	-0.956868	-0.864435	0.465312	0.190361	0.424511	0.878422	-0.219467
49496		-0.265657	-0.108849	-0.957903	-0.871986	0.450905	0.190592	0.411178	0.885910	-0.214701
49497		-0.261573	-0.108852	-0.959026	-0.878771	0.437794	0.189992	0.399175	0.892461	-0.210171
49498		-0.256921	-0.108908	-0.960276	-0.885640	0.424244	0.188837	0.386826	0.898975	-0.205451
49499		-0.251902	-0.108768	-0.961621	-0.892810	0.409528	0.187556	0.373411	0.905790	-0.200270
49500		-0.246462	-0.108285	-0.963084	-0.900296	0.393465	0.186155	0.358782	0.912940	-0.194463
49501		-0.240725	-0.107221	-0.964653	-0.907819	0.376500	0.184694	0.343389	0.920191	-0.187970
49502		-0.234925	-0.106004	-0.966216	-0.915181	0.359040	0.183126	0.327498	0.927283	-0.181361
49503		-0.229078	-0.104305	-0.967803	-0.921751	0.342827	0.181229	0.312886	0.933590	-0.174678
49504		-0.223303	-0.102801	-0.969313	-0.927930	0.326910	0.179098	0.298467	0.939447	-0.168392
49505		-0.217524	-0.100946	-0.970821	-0.933950	0.310512	0.176976	0.283586	0.945194	-0.161823
49506		-0.211618	-0.098978	-0.972328	-0.939799	0.293732	0.174638	0.268319	0.950749	-0.155179
49507		-0.205619	-0.097052	-0.973808	-0.945678	0.275758	0.172196	0.251823	0.956315	-0.148481
49508		-0.199256	-0.095407	-0.975292	-0.951823	0.255571	0.169460	0.233088	0.962071	-0.141735
49509		-0.192495	-0.093519	-0.976832	-0.958033	0.233385	0.166447	0.212412	0.967877	-0.134520
49510		-0.185198	-0.091915	-0.978393	-0.964271	0.208916	0.162898	0.189429	0.973605	-0.127322
49512		-0.168924	-0.088539	-0.981644	-0.975867	0.154852	0.153963	0.138378	0.983962	-0.112561
49513		-0.159906	-0.086815	-0.983307	-0.980946	0.125323	0.148457	0.110343	0.988310	-0.105201
49514		-0.150375	-0.084818	-0.984984	-0.985306	0.094482	0.142288	0.080995	0.991907	-0.097779
49515		-0.140367	-0.082891	-0.986624	-0.988817	0.062433	0.135434	0.050372	0.994601	-0.090727
49516		-0.130090	-0.080821	-0.988203	-0.991310	0.030221	0.128027	0.019517	0.996270	-0.084050
49517		-0.119664	-0.078692	-0.989691	-0.992745	-0.002330	0.120219	-0.011767	0.996896	-0.077842
49518		-0.109245	-0.075811	-0.991120	-0.993103	-0.034367	0.112092	-0.042559	0.996530	-0.071534
49519		-0.098790	-0.072816	-0.992441	-0.992431	-0.065898	0.103624	-0.072945	0.995166	-0.065755
49520		-0.088532	-0.069758	-0.993628	-0.990806	-0.096288	0.095040	-0.102304	0.992906	-0.060592
49521		-0.078308	-0.065990	-0.994743	-0.988294	-0.125904	0.086152	-0.130928	0.989845	-0.055358
49522		-0.068298	-0.061447	-0.995771	-0.985135	-0.153534	0.077043	-0.157619	0.986231	-0.050048
49523		-0.058423	-0.056916	-0.996668	-0.981260	-0.180362	0.067819	-0.183621	0.981952	-0.045312
49524		-0.048961	-0.051904	-0.997451	-0.976733	-0.206274	0.058678	-0.208794	0.977117	-0.040597
49525		-0.040228	-0.046260	-0.998119	-0.971450	-0.231937	0.049902	-0.233809	0.971630	-0.035609
49526		-0.032394	-0.039479	-0.998695	-0.965605	-0.256684	0.041468	-0.257986	0.965689	-0.029806
49527		-0.025265	-0.031605	-0.999181	-0.959193	-0.280804	0.033136	-0.281621	0.959245	-0.023221
49528		-0.018720	-0.023569	-0.999547	-0.952426	-0.303744	0.025000	-0.304196	0.952462	-0.016761
49530		-0.007351	-0.008471	-0.999937	-0.936650	-0.350128	0.009852	-0.350189	0.936664	-0.005361
49531		-0.003239	-0.000914	-0.999994	-0.927640	-0.373461	0.003346	-0.373462	0.927645	0.000362
49532		-0.000604	0.006519	-0.999979	-0.917840	-0.396945	-0.002034	-0.396950	0.917819	0.006223
49534		0.000694	0.020908	-0.999781	-0.895873	-0.444199	-0.009912	-0.444309	0.895684	0.018423
49535		0.000314	0.027287	-0.999628	-0.883611	-0.468041	-0.013054	-0.468222	0.883286	0.023964
49536		-0.000297	0.032872	-0.999460	-0.870799	-0.491381	-0.015903	-0.491638	0.870324	0.028771
49537		-0.000748	0.037197	-0.999308	-0.856804	-0.515309	-0.018540	-0.515642	0.856197	0.032256
49538		-0.001363	0.041102	-0.999154	-0.841360	-0.540064	-0.021068	-0.540473	0.840620	0.035318
49539		-0.001882	0.044215	-0.999020	-0.823978	-0.566133	-0.023504	-0.566618	0.823127	0.037498
49540		-0.002260	0.046467	-0.998917	-0.804892	-0.592862	-0.025758	-0.593417	0.803962	0.038741
49541		-0.002359	0.047666	-0.998861	-0.784200	-0.619888	-0.027729	-0.620503	0.783242	0.038842
49542		-0.002452	0.048159	-0.998837	-0.762286	-0.646577	-0.029304	-0.647236	0.761327	0.038296
49543		-0.003023	0.048528	-0.998817	-0.739055	-0.672956	-0.030459	-0.673639	0.738089	0.037899
49544		-0.004396	0.048941	-0.998792	-0.715661	-0.697758	-0.031041	-0.698434	0.714660	0.038092
49545		-0.005935	0.048859	-0.998788	-0.692740	-0.720515	-0.031130	-0.721163	0.691716	0.038123
49546		-0.007788	0.048278	-0.998804	-0.669785	-0.741922	-0.030639	-0.742514	0.668745	0.038114
49547		-0.010106	0.047315	-0.998829	-0.646282	-0.762525	-0.029582	-0.763031	0.645227	0.038285
49548		-0.012623	0.045728	-0.998874	-0.621854	-0.782634	-0.027970	-0.783031	0.620801	0.038315
49549		-0.014786	0.043249	-0.998955	-0.596687	-0.802056	-0.025893	-0.802338	0.595681	0.037665
49550		-0.016515	0.039982	-0.999064	-0.571477	-0.820285	-0.023380	-0.820452	0.570556	0.036396
49551		-0.017293	0.035785	-0.999210	-0.545279	-0.838002	-0.020574	-0.838076	0.544492	0.034005
49552		-0.016898	0.030791	-0.999383	-0.517090	-0.855750	-0.017622	-0.855764	0.516473	0.030382
49553		-0.015716	0.025550	-0.999550	-0.487496	-0.873002	-0.014650	-0.872984	0.487046	0.026176
49554		-0.014018	0.020460	-0.999692	-0.457044	-0.889366	-0.011794	-0.889334	0.456738	0.021818
49555		-0.010670	0.015012	-0.999830	-0.426612	-0.904390	-0.009026	-0.904372	0.426443	0.016054
49556		-0.005415	0.008980	-0.999945	-0.398453	-0.917169	-0.006078	-0.917173	0.398398	0.008545
49557		0.001456	0.002829	-0.999995	-0.373652	-0.927564	-0.003168	-0.927568	0.373655	-0.000293
49558		0.009075	-0.002874	-0.999955	-0.352611	-0.935770	-0.000511	-0.935726	0.352600	-0.009505
49559		0.017504	-0.007962	-0.999815	-0.334389	-0.942434	0.001650	-0.942272	0.334299	-0.019159
49560		0.026833	-0.012536	-0.999561	-0.317921	-0.948111	0.003356	-0.947737	0.317692	-0.029426
49561		0.036916	-0.016532	-0.999182	-0.302023	-0.953289	0.004614	-0.952586	0.301606	-0.040185
49562		0.047209	-0.019814	-0.998689	-0.286604	-0.958034	0.005459	-0.956885	0.285970	-0.050906
49563		0.058287	-0.022803	-0.998039	-0.271380	-0.962453	0.006141	-0.960706	0.270490	-0.062287
49564		0.070256	-0.025502	-0.997203	-0.257085	-0.966366	0.006601	-0.963832	0.255902	-0.074449
49565		0.082654	-0.028059	-0.996183	-0.243465	-0.969884	0.007118	-0.966382	0.241947	-0.086996
49566		0.094422	-0.030285	-0.995072	-0.231336	-0.972844	0.007657	-0.968281	0.229473	-0.098864
49567		0.105319	-0.032399	-0.993911	-0.220170	-0.975425	0.008466	-0.969759	0.217938	-0.109864
49568		0.115076	-0.034445	-0.992759	-0.210068	-0.977640	0.009570	-0.970891	0.207446	-0.119739
49570		0.129080	-0.039297	-0.990855	-0.196987	-0.980317	0.013217	-0.971872	0.193480	-0.134281
49571		0.132451	-0.041677	-0.990313	-0.195793	-0.980529	0.015078	-0.971659	0.191899	-0.138032
49572		0.134394	-0.044486	-0.989929	-0.197705	-0.980111	0.017204	-0.971005	0.193401	-0.140516
49573		0.136550	-0.047884	-0.989475	-0.201694	-0.979253	0.019555	-0.969883	0.196900	-0.143375
49574		0.140239	-0.051976	-0.988753	-0.205496	-0.978404	0.022286	-0.968558	0.200059	-0.147891
49575		0.145352	-0.056151	-0.987785	-0.206314	-0.978160	0.025245	-0.967630	0.200125	-0.153763
49576		0.150877	-0.059949	-0.986733	-0.200225	-0.979324	0.028883	-0.968063	0.193211	-0.159761
49577		0.155639	-0.062847	-0.985813	-0.188261	-0.981569	0.032854	-0.969708	0.180477	-0.164602
49578		0.159429	-0.065057	-0.985063	-0.172636	-0.984288	0.037065	-0.971997	0.164148	-0.168156
49579		0.163400	-0.066676	-0.984304	-0.158262	-0.986564	0.040556	-0.973783	0.149151	-0.171757
49580		0.168386	-0.067863	-0.983382	-0.146653	-0.988249	0.043087	-0.974751	0.136961	-0.176360
49581		0.172726	-0.068188	-0.982607	-0.137809	-0.989461	0.044439	-0.975282	0.127737	-0.180302
49582		0.176043	-0.068283	-0.982011	-0.130355	-0.990423	0.045500	-0.975713	0.120000	-0.183258
49583		0.179280	-0.068436	-0.981415	-0.125355	-0.991035	0.046207	-0.975779	0.114741	-0.186252
49584		0.182847	-0.068830	-0.980729	-0.122143	-0.991408	0.046807	-0.975525	0.111230	-0.189683
49585		0.186312	-0.069296	-0.980044	-0.120026	-0.991643	0.047299	-0.975132	0.108818	-0.193072
49586		0.189823	-0.070108	-0.979312	-0.116655	-0.991992	0.048404	-0.974863	0.105054	-0.196482
49587		0.193348	-0.071128	-0.978549	-0.112229	-0.992426	0.049962	-0.974690	0.100161	-0.199866
49588		0.196980	-0.072634	-0.977713	-0.106400	-0.992945	0.052329	-0.974617	0.093721	-0.203319
49589		0.200917	-0.074422	-0.976777	-0.100306	-0.993432	0.055059	-0.974459	0.086914	-0.207062
49590		0.205371	-0.076499	-0.975690	-0.093055	-0.993950	0.058344	-0.974250	0.078811	-0.211247
49591		0.209770	-0.078790	-0.974571	-0.084796	-0.994458	0.062146	-0.974067	0.069603	-0.215289
49592		0.214135	-0.081105	-0.973431	-0.075065	-0.994966	0.066386	-0.973916	0.058855	-0.219145
49593		0.218749	-0.083110	-0.972235	-0.064547	-0.995416	0.070569	-0.973644	0.047318	-0.223110
49594		0.223392	-0.084838	-0.971030	-0.051784	-0.995831	0.075092	-0.973352	0.033508	-0.226854
49595		0.227611	-0.086154	-0.969933	-0.036551	-0.996132	0.079904	-0.973066	0.017265	-0.229880
49596		0.231987	-0.087136	-0.968808	-0.018745	-0.996195	0.085110	-0.972538	-0.001585	-0.232737
49597		0.236324	-0.087470	-0.967729	-0.000300	-0.995947	0.089947	-0.971674	-0.020967	-0.235392
49598		0.240289	-0.087311	-0.966767	0.017508	-0.995395	0.094249	-0.970544	-0.039573	-0.237654
49599		0.243791	-0.086593	-0.965954	0.034102	-0.994625	0.097770	-0.969228	-0.056777	-0.239528
49600		0.247337	-0.085500	-0.965150	0.049691	-0.993669	0.100760	-0.967655	-0.072881	-0.241522
49601		0.250890	-0.083995	-0.964364	0.064005	-0.992609	0.103107	-0.965897	-0.087593	-0.243660
49602		0.254614	-0.082355	-0.963530	0.078279	-0.991342	0.105417	-0.963869	-0.102264	-0.245963
49603		0.257979	-0.080621	-0.962781	0.092773	-0.989840	0.107746	-0.961686	-0.117116	-0.247879
49604		0.260986	-0.078925	-0.962111	0.108092	-0.987995	0.110370	-0.959272	-0.132801	-0.249322
49605		0.263740	-0.077169	-0.961502	0.122973	-0.985971	0.112864	-0.956723	-0.148006	-0.250550
49606		0.266311	-0.075254	-0.960945	0.137590	-0.983770	0.115173	-0.954016	-0.162888	-0.251635
49607		0.268329	-0.073206	-0.960542	0.151184	-0.981552	0.117041	-0.951390	-0.176624	-0.252311
49608		0.270375	-0.071175	-0.960120	0.163885	-0.979306	0.118749	-0.948704	-0.189456	-0.253116
49609		0.272208	-0.069141	-0.959751	0.175067	-0.977210	0.120052	-0.946179	-0.200700	-0.253900
49610		0.273840	-0.067374	-0.959413	0.186063	-0.974987	0.121574	-0.943606	-0.211804	-0.254454
49611		0.275027	-0.065886	-0.959176	0.197117	-0.972592	0.123328	-0.941013	-0.222988	-0.254502
49612		0.276190	-0.064704	-0.958922	0.208573	-0.969918	0.125520	-0.938198	-0.234673	-0.254386
49613		0.277426	-0.063698	-0.958633	0.220482	-0.966948	0.128057	-0.935106	-0.246888	-0.254212
49614		0.279143	-0.062762	-0.958196	0.232818	-0.963665	0.130945	-0.931598	-0.259637	-0.254388
49615		0.280935	-0.061838	-0.957732	0.245948	-0.959958	0.134127	-0.927677	-0.273233	-0.254477
49616		0.282486	-0.061227	-0.957316	0.260009	-0.955716	0.137849	-0.923362	-0.287851	-0.254057
49617		0.284139	-0.060531	-0.956870	0.273313	-0.951483	0.141349	-0.919002	-0.301688	-0.253810
49618		0.285788	-0.059873	-0.956421	0.286664	-0.947003	0.144942	-0.914412	-0.315594	-0.253479
49619		0.286969	-0.059274	-0.956104	0.299975	-0.942325	0.148455	-0.909760	-0.329409	-0.252638
49620		0.287999	-0.058769	-0.955826	0.312782	-0.937601	0.151893	-0.905110	-0.342710	-0.251646
49621		0.289291	-0.058215	-0.955469	0.324962	-0.932901	0.155230	-0.900395	-0.355398	-0.250962
49622		0.290771	-0.057879	-0.955040	0.336808	-0.928088	0.158789	-0.895552	-0.367836	-0.250367
49623		0.291676	-0.057716	-0.954774	0.348360	-0.923215	0.162229	-0.890825	-0.379924	-0.249174
49624		0.292394	-0.057605	-0.954561	0.359021	-0.918556	0.165405	-0.886346	-0.391071	-0.247899
49626		0.294051	-0.057396	-0.954065	0.375608	-0.910947	0.170568	-0.878893	-0.408510	-0.246307
49627		0.294886	-0.057585	-0.953796	0.382274	-0.907712	0.172990	-0.875733	-0.415624	-0.245658
49628		0.295668	-0.057967	-0.953531	0.387501	-0.905073	0.175176	-0.873169	-0.421288	-0.245138
49629		0.296727	-0.058468	-0.953171	0.392100	-0.902649	0.177432	-0.870753	-0.426387	-0.244915
49631		0.298762	-0.060106	-0.952433	0.400005	-0.898228	0.182160	-0.866451	-0.435401	-0.244314
49632		0.299727	-0.061409	-0.952047	0.403640	-0.896045	0.184873	-0.864430	-0.439695	-0.243781
49633		0.300675	-0.062939	-0.951648	0.406623	-0.894126	0.187608	-0.862701	-0.443370	-0.243249
49634		0.301820	-0.064786	-0.951161	0.409924	-0.891934	0.190829	-0.860736	-0.447500	-0.242646
49635		0.302975	-0.066834	-0.950652	0.413020	-0.889779	0.194185	-0.858848	-0.451471	-0.241978
49636		0.304237	-0.069070	-0.950089	0.415970	-0.887621	0.197731	-0.856976	-0.455366	-0.241316
49637		0.305367	-0.071412	-0.949553	0.418341	-0.885737	0.201147	-0.855419	-0.458661	-0.240601
49638		0.306658	-0.073934	-0.948944	0.420234	-0.884031	0.204678	-0.854028	-0.461545	-0.240026
49639		0.308140	-0.076451	-0.948264	0.421165	-0.882804	0.208032	-0.853036	-0.463478	-0.239828
49640		0.309820	-0.079168	-0.947493	0.421320	-0.881916	0.211456	-0.852350	-0.464711	-0.239880
49641		0.311290	-0.082222	-0.946751	0.420364	-0.881570	0.214776	-0.852287	-0.464837	-0.239861
49642		0.312754	-0.085658	-0.945964	0.419368	-0.881144	0.218439	-0.852242	-0.465024	-0.239659
49643		0.314053	-0.089322	-0.945194	0.418437	-0.880633	0.222252	-0.852221	-0.465304	-0.239189
49644		0.315504	-0.093049	-0.944351	0.418222	-0.879677	0.226403	-0.851791	-0.466379	-0.238626
49645		0.316817	-0.096549	-0.943560	0.418233	-0.878650	0.230336	-0.851298	-0.467603	-0.237991
49646		0.318297	-0.099783	-0.942725	0.418917	-0.877276	0.234297	-0.850409	-0.469499	-0.237433
49647		0.319909	-0.102700	-0.941866	0.419311	-0.876104	0.237951	-0.849609	-0.471058	-0.237210
49648		0.321351	-0.105800	-0.941031	0.419192	-0.875177	0.241545	-0.849124	-0.472094	-0.236889
49649		0.322282	-0.109206	-0.940324	0.418211	-0.874707	0.244921	-0.849255	-0.472188	-0.236231
49650		0.323156	-0.112892	-0.939588	0.417403	-0.874062	0.248578	-0.849320	-0.472517	-0.235337
49651		0.323924	-0.116690	-0.938859	0.416894	-0.873218	0.252368	-0.849277	-0.473153	-0.234209
49652		0.324690	-0.120684	-0.938090	0.417694	-0.871572	0.256698	-0.848592	-0.475182	-0.232581
49653		0.325131	-0.124614	-0.937422	0.419460	-0.869426	0.261059	-0.847551	-0.478090	-0.230407
49654		0.325590	-0.128236	-0.936775	0.422940	-0.866361	0.265596	-0.845644	-0.482675	-0.227842
49655		0.325747	-0.131587	-0.936255	0.427162	-0.862951	0.269905	-0.843458	-0.487853	-0.224895
49656		0.325631	-0.134862	-0.935829	0.432282	-0.859034	0.274212	-0.840890	-0.493834	-0.221430
49657		0.325055	-0.138157	-0.935549	0.437452	-0.855103	0.278269	-0.838436	-0.499711	-0.217519
49658		0.324667	-0.141373	-0.935203	0.443135	-0.850795	0.282453	-0.835597	-0.506125	-0.213578
49659		0.324380	-0.144279	-0.934859	0.448939	-0.846420	0.286404	-0.832605	-0.512599	-0.209789
49660		0.324096	-0.147169	-0.934507	0.455347	-0.841602	0.290457	-0.829229	-0.519661	-0.205747
49661		0.323364	-0.150068	-0.934299	0.461635	-0.836865	0.294192	-0.826032	-0.526437	-0.201336
49662		0.322363	-0.152997	-0.934170	0.468078	-0.832001	0.297788	-0.822791	-0.533260	-0.196591
49663		0.320836	-0.155663	-0.934256	0.474231	-0.827448	0.300724	-0.819859	-0.539536	-0.191655
49664		0.318837	-0.158110	-0.934529	0.480974	-0.822612	0.303271	-0.816705	-0.546178	-0.186232
49666		0.313263	-0.160779	-0.935957	0.494533	-0.813771	0.305309	-0.810742	-0.558504	-0.175414
49667		0.309912	-0.160555	-0.937111	0.501249	-0.809943	0.304536	-0.807901	-0.564105	-0.170533
49668		0.305594	-0.159081	-0.938779	0.507359	-0.807110	0.301927	-0.805729	-0.568565	-0.165937
49669		0.300391	-0.156469	-0.940895	0.513709	-0.804618	0.297813	-0.803659	-0.572807	-0.161320
49670		0.293537	-0.152580	-0.943693	0.519856	-0.802970	0.291529	-0.802238	-0.576159	-0.156381
49671		0.285159	-0.147499	-0.947063	0.527209	-0.801048	0.283500	-0.800459	-0.580143	-0.150663
49672		0.274849	-0.141109	-0.951076	0.535339	-0.799205	0.273282	-0.798668	-0.584259	-0.144119
49673		0.262964	-0.133490	-0.955526	0.544962	-0.796712	0.261278	-0.796157	-0.589432	-0.136759
49674		0.249272	-0.124467	-0.960402	0.554388	-0.794794	0.246896	-0.794052	-0.593979	-0.129117
49675		0.234607	-0.114260	-0.965352	0.563068	-0.793538	0.230765	-0.792410	-0.597698	-0.121834
49676		0.219114	-0.102720	-0.970277	0.569325	-0.794137	0.212641	-0.792375	-0.598996	-0.115526
49677		0.203615	-0.090277	-0.974880	0.574056	-0.795606	0.193574	-0.793096	-0.599050	-0.110173
49678		0.188109	-0.076953	-0.979129	0.576982	-0.798100	0.173574	-0.794800	-0.597591	-0.105729
49679		0.173350	-0.063226	-0.982829	0.579831	-0.800100	0.153741	-0.796082	-0.596525	-0.102037
49680		0.159142	-0.049100	-0.986034	0.582971	-0.801368	0.133993	-0.796755	-0.596153	-0.098908
49681		0.146415	-0.034838	-0.988610	0.588039	-0.800572	0.115302	-0.795470	-0.598223	-0.096729
49682		0.135380	-0.020012	-0.990592	0.595798	-0.797191	0.097530	-0.791642	-0.603396	-0.096000
49683		0.125623	-0.005849	-0.992061	0.608555	-0.789293	0.081714	-0.783505	-0.613989	-0.095594
49684		0.115641	0.007102	-0.993266	0.623886	-0.778632	0.067069	-0.772912	-0.627441	-0.094472
49685		0.105463	0.018334	-0.994254	0.640879	-0.765750	0.053859	-0.760363	-0.642877	-0.092508
49686		0.095104	0.028718	-0.995053	0.657088	-0.752694	0.041079	-0.747791	-0.657744	-0.090454
49687		0.086171	0.039173	-0.995510	0.670909	-0.740976	0.028917	-0.736516	-0.670388	-0.090132
49688		0.078011	0.049819	-0.995707	0.682027	-0.731133	0.016854	-0.727154	-0.680414	-0.091014
49689		0.070138	0.059665	-0.995751	0.690581	-0.723235	0.005307	-0.719846	-0.688019	-0.091930
49690		0.062566	0.069453	-0.995621	0.695469	-0.718528	-0.006420	-0.715827	-0.692022	-0.093258
49691		0.055538	0.078813	-0.995341	0.697116	-0.716736	-0.017855	-0.714804	-0.692877	-0.094748
49692		0.048633	0.087773	-0.994953	0.695500	-0.717927	-0.029338	-0.716879	-0.690562	-0.095961
49693		0.042242	0.095890	-0.994495	0.691822	-0.720953	-0.040129	-0.720832	-0.686318	-0.096793
49694		0.036204	0.103703	-0.993949	0.685391	-0.726400	-0.050824	-0.727275	-0.679404	-0.097376
49695		0.030858	0.111063	-0.993334	0.676975	-0.733476	-0.060979	-0.735359	-0.670580	-0.097820
49696		0.025972	0.118548	-0.992609	0.666539	-0.742064	-0.071185	-0.745018	-0.659763	-0.098290
49697		0.021887	0.126097	-0.991776	0.654884	-0.751368	-0.081078	-0.755412	-0.647724	-0.099025
49698		0.018320	0.133551	-0.990873	0.641767	-0.761509	-0.090772	-0.766681	-0.634246	-0.099660
49699		0.015201	0.140381	-0.989981	0.628507	-0.771383	-0.099733	-0.777655	-0.620694	-0.099956
49700		0.012416	0.146999	-0.989059	0.615406	-0.780733	-0.108311	-0.788112	-0.607328	-0.100158
49701		0.010343	0.152981	-0.988175	0.603691	-0.788765	-0.115791	-0.797151	-0.595354	-0.100511
49702		0.008756	0.158406	-0.987335	0.593078	-0.795785	-0.122415	-0.805097	-0.584495	-0.100915
49703		0.008244	0.162875	-0.986612	0.583901	-0.801754	-0.127478	-0.811783	-0.575033	-0.101713
49704		0.008829	0.166648	-0.985977	0.574395	-0.807961	-0.131417	-0.818531	-0.565179	-0.102855
49705		0.010575	0.169393	-0.985492	0.564208	-0.814689	-0.133980	-0.825565	-0.554605	-0.104188
49706		0.012828	0.171818	-0.985045	0.552716	-0.822163	-0.136209	-0.833271	-0.542703	-0.105513
49707		0.015078	0.173864	-0.984654	0.541028	-0.829573	-0.138196	-0.840869	-0.530642	-0.106573
49708		0.016938	0.175669	-0.984304	0.528932	-0.836991	-0.140276	-0.848495	-0.518254	-0.107094
49709		0.018395	0.176702	-0.984092	0.517653	-0.843754	-0.141827	-0.855393	-0.506809	-0.106992
49710		0.019858	0.177639	-0.983895	0.507614	-0.849609	-0.143149	-0.861355	-0.496597	-0.107044
49711		0.021728	0.178257	-0.983744	0.499256	-0.854438	-0.143800	-0.866182	-0.488016	-0.107561
49712		0.024328	0.179045	-0.983540	0.492039	-0.858560	-0.144123	-0.870233	-0.480434	-0.108984
49713		0.027617	0.179673	-0.983339	0.486573	-0.861726	-0.143787	-0.873203	-0.474495	-0.111223
49714		0.030868	0.180182	-0.983149	0.481881	-0.864440	-0.143297	-0.875693	-0.469338	-0.113510
49715		0.034028	0.180302	-0.983023	0.477128	-0.867197	-0.142542	-0.878175	-0.464177	-0.115536
49716		0.037000	0.180289	-0.982918	0.471326	-0.870466	-0.141921	-0.881183	-0.458024	-0.117182
49717		0.039829	0.179842	-0.982889	0.464759	-0.874121	-0.141108	-0.884541	-0.451186	-0.118399
49718		0.042153	0.179224	-0.982905	0.457240	-0.878172	-0.140517	-0.888344	-0.443500	-0.118966
49719		0.043809	0.178133	-0.983031	0.449869	-0.882086	-0.139792	-0.892019	-0.436111	-0.118779
49720		0.044911	0.176827	-0.983217	0.443005	-0.885671	-0.139048	-0.895394	-0.429325	-0.118111
49721		0.045999	0.175195	-0.983459	0.437930	-0.888389	-0.137776	-0.897832	-0.424348	-0.117588
49722		0.048229	0.174055	-0.983554	0.434249	-0.890424	-0.136281	-0.899501	-0.420535	-0.118527
49723		0.051918	0.173411	-0.983480	0.432582	-0.891527	-0.134361	-0.900099	-0.418460	-0.121301
49724		0.055662	0.173016	-0.983345	0.430791	-0.892646	-0.132673	-0.900733	-0.416231	-0.124221
49725		0.058570	0.172312	-0.983300	0.426996	-0.894664	-0.131346	-0.902355	-0.412172	-0.125977
49726		0.060388	0.171573	-0.983319	0.419863	-0.898095	-0.130918	-0.905576	-0.404954	-0.126271
49727		0.061852	0.171012	-0.983326	0.410528	-0.902373	-0.131111	-0.909748	-0.395573	-0.126019
49728		0.062887	0.170917	-0.983276	0.399716	-0.907070	-0.132106	-0.914479	-0.384723	-0.125361
49729		0.063576	0.171123	-0.983196	0.388452	-0.911737	-0.133567	-0.919273	-0.373433	-0.124437
49730		0.064504	0.172084	-0.982968	0.376888	-0.916268	-0.135675	-0.924010	-0.361718	-0.123960
49731		0.066006	0.173408	-0.982636	0.366670	-0.920098	-0.137742	-0.928007	-0.351211	-0.124316
49732		0.067948	0.175279	-0.982171	0.358926	-0.922828	-0.139858	-0.930889	-0.343024	-0.125617
49733		0.070553	0.177251	-0.981633	0.356155	-0.923698	-0.141192	-0.931760	-0.339652	-0.128298
49734		0.073837	0.179606	-0.980964	0.358417	-0.922705	-0.141961	-0.930637	-0.341113	-0.132503
49735		0.078044	0.182018	-0.980193	0.365053	-0.920125	-0.141798	-0.927710	-0.346756	-0.138256
49736		0.082880	0.184782	-0.979279	0.372945	-0.917006	-0.141467	-0.924145	-0.353492	-0.144915
49737		0.088022	0.187422	-0.978328	0.380329	-0.914057	-0.140890	-0.920653	-0.359685	-0.151739
49738		0.092141	0.189741	-0.977501	0.385487	-0.911927	-0.140675	-0.918101	-0.363852	-0.157169
49739		0.095062	0.191370	-0.976904	0.388373	-0.910711	-0.140610	-0.916586	-0.366036	-0.160897
49740		0.097477	0.192847	-0.976375	0.387698	-0.910906	-0.141210	-0.916618	-0.364774	-0.163559
49741		0.100015	0.193846	-0.975920	0.384459	-0.912188	-0.141787	-0.917708	-0.361020	-0.165758
49742		0.102427	0.194427	-0.975555	0.379791	-0.914063	-0.142296	-0.919384	-0.355931	-0.167466
49743		0.105622	0.194340	-0.975231	0.375026	-0.916084	-0.141936	-0.920977	-0.350745	-0.169642
49744		0.109612	0.193494	-0.974959	0.370138	-0.918271	-0.140629	-0.922488	-0.345455	-0.172273
49745		0.114930	0.191596	-0.974722	0.365967	-0.920375	-0.137762	-0.923504	-0.340883	-0.175896
49746		0.121278	0.188481	-0.974560	0.363004	-0.922220	-0.133185	-0.923861	-0.337617	-0.180264
49747		0.127997	0.183688	-0.974615	0.361807	-0.923622	-0.126561	-0.923424	-0.336424	-0.184681
49748		0.135083	0.177913	-0.974731	0.362700	-0.924347	-0.118452	-0.922064	-0.337534	-0.189392
49749		0.143162	0.171385	-0.974747	0.366724	-0.923970	-0.108596	-0.919249	-0.341916	-0.195128
49750		0.149837	0.164583	-0.974916	0.372920	-0.922627	-0.098441	-0.915685	-0.348816	-0.199620
49751		0.153725	0.158316	-0.975348	0.381783	-0.919942	-0.089150	-0.911378	-0.358667	-0.201861
49753		0.159863	0.154337	-0.975000	0.407495	-0.909937	-0.077224	-0.899106	-0.384962	-0.208356
49754		0.163673	0.156018	-0.974099	0.415999	-0.906246	-0.075252	-0.894514	-0.392908	-0.213231
49756		0.168753	0.160752	-0.972461	0.412656	-0.907506	-0.078406	-0.895119	-0.388061	-0.219480
49757		0.167988	0.160120	-0.972698	0.409924	-0.908710	-0.078792	-0.896517	-0.385496	-0.218289
49758		0.168200	0.157845	-0.973033	0.414815	-0.906777	-0.075391	-0.894224	-0.390948	-0.217997
49759		0.172353	0.154984	-0.972766	0.427996	-0.901237	-0.067757	-0.887195	-0.404662	-0.221664
49760		0.179790	0.152249	-0.971852	0.445579	-0.893393	-0.057526	-0.877004	-0.422694	-0.228462
49761		0.188725	0.149236	-0.970624	0.465626	-0.883818	-0.045355	-0.864624	-0.443389	-0.236287
49762		0.196600	0.145577	-0.969616	0.486460	-0.873100	-0.032452	-0.851296	-0.465299	-0.242469
49763		0.202778	0.141200	-0.968991	0.506176	-0.862205	-0.019714	-0.838252	-0.486482	-0.246309
49764		0.207568	0.136511	-0.968649	0.521855	-0.852993	-0.008386	-0.827396	-0.503753	-0.248293
49765		0.211420	0.131814	-0.968466	0.532891	-0.846183	0.001161	-0.819347	-0.516332	-0.249143
49766		0.213954	0.126873	-0.968570	0.538827	-0.842372	0.008683	-0.814794	-0.523749	-0.248591
49767		0.215707	0.121747	-0.968839	0.540613	-0.841143	0.014664	-0.813147	-0.526930	-0.247258
49768		0.217957	0.116747	-0.968951	0.539584	-0.841695	0.019961	-0.813231	-0.527181	-0.246448
49769		0.220209	0.111488	-0.969061	0.538212	-0.842427	0.025384	-0.813533	-0.527149	-0.245514
49770		0.222105	0.106584	-0.969180	0.536318	-0.843477	0.030147	-0.814268	-0.526485	-0.244504
49771		0.224264	0.102307	-0.969143	0.532587	-0.845693	0.033968	-0.816123	-0.523771	-0.244146
49772		0.226706	0.098169	-0.969003	0.528408	-0.848153	0.037700	-0.818162	-0.520576	-0.244155
49773		0.229794	0.094264	-0.968664	0.522591	-0.851592	0.041101	-0.821032	-0.515660	-0.244952
49774		0.233189	0.090401	-0.968220	0.516510	-0.855121	0.044557	-0.823918	-0.510485	-0.246098
49776		0.239264	0.081879	-0.967496	0.507548	-0.860008	0.052735	-0.827737	-0.503668	-0.247326
49777		0.242172	0.077334	-0.967146	0.505632	-0.860813	0.057778	-0.828064	-0.503012	-0.247567
49778		0.245373	0.072745	-0.966696	0.505115	-0.860717	0.063442	-0.827437	-0.503859	-0.247941
49779		0.248292	0.068220	-0.966280	0.506153	-0.859650	0.069367	-0.825930	-0.506309	-0.247974
49780		0.251101	0.063859	-0.965852	0.508078	-0.858008	0.075361	-0.823896	-0.509651	-0.247892
49781		0.253653	0.059638	-0.965455	0.510176	-0.856233	0.081147	-0.821815	-0.513135	-0.247612
49782		0.256205	0.055664	-0.965018	0.512065	-0.854564	0.086657	-0.819847	-0.516354	-0.247447
49783		0.259036	0.052029	-0.964465	0.514096	-0.852776	0.092072	-0.817683	-0.519678	-0.247647
49784		0.262203	0.048545	-0.963791	0.514772	-0.851806	0.097141	-0.816247	-0.521603	-0.248336
49785		0.265594	0.045494	-0.963011	0.514080	-0.851710	0.101545	-0.815587	-0.522034	-0.249597
49786		0.268750	0.042351	-0.962278	0.513326	-0.851637	0.105883	-0.815027	-0.522419	-0.250618
49787		0.271596	0.038814	-0.961628	0.513822	-0.850714	0.110784	-0.813770	-0.524194	-0.250994
49788		0.274761	0.035067	-0.960873	0.515045	-0.849239	0.116284	-0.811933	-0.526843	-0.251399
49789		0.278110	0.031086	-0.960046	0.516637	-0.847436	0.122222	-0.809778	-0.529987	-0.251741
49790		0.281073	0.026618	-0.959317	0.518779	-0.845189	0.128547	-0.807382	-0.533805	-0.251369
49791		0.283519	0.021959	-0.958715	0.520685	-0.843061	0.134671	-0.805298	-0.537370	-0.250458
49792		0.285898	0.017686	-0.958097	0.522320	-0.841123	0.140335	-0.803395	-0.540555	-0.249713
49793		0.288301	0.014048	-0.957437	0.523357	-0.839639	0.145272	-0.801861	-0.542963	-0.249421
49794		0.291070	0.011077	-0.956638	0.524372	-0.838202	0.149841	-0.800195	-0.545248	-0.249784
49795		0.293726	0.008320	-0.955854	0.525055	-0.837009	0.154059	-0.798776	-0.547127	-0.250220
49796		0.296261	0.005419	-0.955092	0.525568	-0.835898	0.158283	-0.797501	-0.548858	-0.250492
49797		0.298589	0.002307	-0.954379	0.526478	-0.834476	0.162698	-0.796031	-0.551039	-0.250380
49798		0.300846	-0.001149	-0.953672	0.527709	-0.832752	0.167475	-0.794365	-0.553645	-0.249924
49799		0.302972	-0.004731	-0.952988	0.528981	-0.830959	0.172298	-0.792709	-0.556313	-0.249254
49800		0.305276	-0.008120	-0.952229	0.530238	-0.829155	0.177060	-0.790983	-0.558961	-0.248816
49801		0.307417	-0.011409	-0.951507	0.531579	-0.827298	0.181664	-0.789252	-0.561648	-0.248261
49802		0.309475	-0.014730	-0.950793	0.532966	-0.825381	0.186263	-0.787510	-0.564384	-0.247584
49803		0.311495	-0.017923	-0.950079	0.533906	-0.823784	0.190588	-0.786076	-0.566620	-0.247035
49804		0.313555	-0.021140	-0.949335	0.534111	-0.822682	0.194731	-0.785117	-0.568108	-0.246665
49805		0.315417	-0.024522	-0.948636	0.533656	-0.822031	0.198687	-0.784680	-0.568915	-0.246197
49806		0.317432	-0.028052	-0.947866	0.533155	-0.821337	0.202857	-0.784208	-0.569752	-0.245763
49807		0.319518	-0.031603	-0.947053	0.533398	-0.820063	0.207324	-0.783195	-0.571400	-0.245168
49809		0.323490	-0.039159	-0.945421	0.537266	-0.814863	0.217585	-0.778909	-0.578329	-0.242561
49810		0.325051	-0.043275	-0.944706	0.540638	-0.811113	0.223176	-0.775921	-0.583287	-0.240257
49811		0.326808	-0.047412	-0.943901	0.545209	-0.806338	0.229271	-0.771973	-0.589551	-0.237669
49812		0.328571	-0.051492	-0.943075	0.550789	-0.800698	0.235615	-0.767250	-0.596851	-0.234725
49813		0.330277	-0.055739	-0.942237	0.557189	-0.794250	0.242293	-0.761877	-0.605028	-0.231266
49815		0.331816	-0.065064	-0.941098	0.571281	-0.780022	0.255352	-0.750691	-0.622361	-0.221654
49816		0.332071	-0.069772	-0.940670	0.578233	-0.772846	0.261449	-0.745235	-0.630746	-0.216295
49817		0.332091	-0.074049	-0.940336	0.584579	-0.766219	0.266788	-0.740259	-0.638298	-0.211167
49818		0.331853	-0.078028	-0.940099	0.590251	-0.760208	0.271454	-0.735852	-0.644977	-0.206221
49819		0.330862	-0.081878	-0.940120	0.594859	-0.755278	0.275132	-0.732579	-0.650270	-0.201187
49820		0.329466	-0.085339	-0.940303	0.598583	-0.751305	0.277920	-0.730171	-0.654415	-0.196447
49821		0.327378	-0.088217	-0.940766	0.601689	-0.748214	0.279544	-0.728556	-0.657566	-0.191870
49822		0.324578	-0.090573	-0.941512	0.604940	-0.745325	0.280248	-0.727115	-0.660521	-0.187125
49823		0.320885	-0.091994	-0.942640	0.608407	-0.742743	0.279595	-0.725860	-0.663227	-0.182365
49824		0.316701	-0.092228	-0.944031	0.612365	-0.740179	0.277747	-0.724368	-0.666054	-0.177938
49825		0.311332	-0.091232	-0.945912	0.616914	-0.737720	0.274200	-0.722834	-0.668913	-0.173394
49826		0.304546	-0.089374	-0.948295	0.622083	-0.735262	0.269078	-0.721294	-0.671865	-0.168323
49827		0.295991	-0.086318	-0.951283	0.627541	-0.733251	0.261793	-0.720126	-0.674457	-0.162867
49828		0.286006	-0.082033	-0.954710	0.633416	-0.731421	0.252602	-0.719017	-0.676974	-0.157230
49829		0.273850	-0.076702	-0.958709	0.639659	-0.729865	0.241108	-0.718222	-0.679275	-0.150810
49830		0.259972	-0.070745	-0.963021	0.646404	-0.728137	0.227989	-0.717340	-0.681771	-0.143565
49831		0.244451	-0.063924	-0.967552	0.652616	-0.727156	0.212924	-0.717173	-0.683489	-0.136036
49832		0.228124	-0.056490	-0.971992	0.658206	-0.726683	0.196713	-0.717443	-0.684646	-0.128592
49833		0.210891	-0.048076	-0.976327	0.662964	-0.726938	0.178999	-0.718334	-0.685018	-0.121431
49834		0.193737	-0.038973	-0.980279	0.666937	-0.727570	0.160736	-0.719486	-0.684925	-0.114965
49835		0.176946	-0.028815	-0.983799	0.670266	-0.728431	0.141890	-0.720718	-0.684513	-0.109579
49836		0.161437	-0.017957	-0.986720	0.674171	-0.728168	0.123553	-0.720716	-0.685164	-0.105447
49837		0.147052	-0.006481	-0.989107	0.678434	-0.727028	0.105627	-0.719793	-0.686577	-0.102514
49838		0.134426	0.004859	-0.990912	0.684006	-0.723997	0.089241	-0.716984	-0.689786	-0.100648
49839		0.122761	0.015854	-0.992310	0.690942	-0.719114	0.073989	-0.712410	-0.694712	-0.099234
49840		0.111767	0.025712	-0.993402	0.699684	-0.711904	0.060295	-0.705656	-0.701806	-0.097557
49841		0.100764	0.034764	-0.994303	0.709086	-0.703536	0.047262	-0.697885	-0.709809	-0.095542
49842		0.090844	0.043562	-0.994912	0.717927	-0.695233	0.035113	-0.690166	-0.717464	-0.094432
49843		0.081812	0.052679	-0.995255	0.725405	-0.687930	0.023218	-0.683443	-0.723862	-0.094494
49845		0.066593	0.070036	-0.995319	0.734959	-0.678110	0.001458	-0.674833	-0.731616	-0.096631
49846		0.059260	0.077542	-0.995226	0.736112	-0.676802	-0.008901	-0.674261	-0.732070	-0.097187
49847		0.052562	0.084450	-0.995040	0.734885	-0.677934	-0.018717	-0.676152	-0.730256	-0.097694
49848		0.046124	0.091282	-0.994756	0.731060	-0.681711	-0.028659	-0.680752	-0.725905	-0.098176
49849		0.039921	0.097774	-0.994408	0.725579	-0.687065	-0.038427	-0.686980	-0.719987	-0.098371
49850		0.033806	0.104422	-0.993958	0.718481	-0.693856	-0.048457	-0.694724	-0.712502	-0.098482
49851		0.028617	0.111431	-0.993360	0.710248	-0.701539	-0.058234	-0.703369	-0.703866	-0.099219
49852		0.024001	0.119133	-0.992588	0.700774	-0.710108	-0.068284	-0.712980	-0.693941	-0.100529
49853		0.019823	0.127055	-0.991698	0.690336	-0.719234	-0.078348	-0.723217	-0.683052	-0.101968
49854		0.015520	0.135003	-0.990724	0.679117	-0.728657	-0.088654	-0.733866	-0.671441	-0.102992
49856		0.006479	0.149645	-0.988719	0.657163	-0.745886	-0.108585	-0.753721	-0.649046	-0.103173
49857		0.002095	0.156692	-0.987645	0.647055	-0.753236	-0.118130	-0.762440	-0.638814	-0.102966
49858		-0.001750	0.163443	-0.986551	0.638158	-0.759369	-0.126937	-0.769903	-0.629798	-0.102973
49859		-0.005209	0.169892	-0.985449	0.629658	-0.765014	-0.135217	-0.776855	-0.621200	-0.102989
49860		-0.007749	0.175862	-0.984384	0.621104	-0.770652	-0.142568	-0.783690	-0.612510	-0.103257
49861		-0.009601	0.181580	-0.983329	0.612413	-0.776306	-0.149331	-0.790480	-0.603637	-0.103749
49862		-0.010726	0.186926	-0.982315	0.604078	-0.781640	-0.155335	-0.796853	-0.595061	-0.104534
49863		-0.011531	0.192062	-0.981315	0.596158	-0.786569	-0.160952	-0.802785	-0.586874	-0.105429
49864		-0.012042	0.196778	-0.980374	0.588917	-0.790963	-0.165994	-0.808104	-0.579358	-0.106361
49865		-0.012633	0.201150	-0.979479	0.582598	-0.794632	-0.170703	-0.812662	-0.572799	-0.107151
49866		-0.012875	0.205183	-0.978639	0.576653	-0.798047	-0.174907	-0.816888	-0.566587	-0.108045
49867		-0.013179	0.208899	-0.977848	0.570578	-0.801516	-0.178919	-0.821137	-0.560297	-0.108630
49868		-0.013161	0.212106	-0.977158	0.564363	-0.805132	-0.182366	-0.825422	-0.553872	-0.109108
49869		-0.013364	0.214536	-0.976625	0.558080	-0.808830	-0.185313	-0.829680	-0.547511	-0.108919
49870		-0.013861	0.216015	-0.976292	0.552307	-0.812266	-0.187564	-0.833525	-0.541813	-0.108048
49871		-0.014490	0.216853	-0.976097	0.547300	-0.815260	-0.189245	-0.836811	-0.536960	-0.106871
49872		-0.014983	0.217185	-0.976015	0.543248	-0.817721	-0.190300	-0.839438	-0.533070	-0.105734
49873		-0.015236	0.217050	-0.976042	0.539489	-0.820091	-0.190791	-0.841855	-0.529471	-0.104601
49874		-0.015069	0.216426	-0.976183	0.535688	-0.822613	-0.190648	-0.844282	-0.525802	-0.103541
49875		-0.014929	0.215258	-0.976443	0.532410	-0.824890	-0.189988	-0.846355	-0.522705	-0.102291
49876		-0.014781	0.213606	-0.976808	0.530234	-0.826569	-0.188775	-0.847723	-0.520727	-0.101043
49877		-0.014368	0.211726	-0.977223	0.528662	-0.827943	-0.187156	-0.848711	-0.519310	-0.100036
49878		-0.012884	0.210175	-0.977579	0.527884	-0.828886	-0.185164	-0.849219	-0.518434	-0.100268
49879		-0.010628	0.208772	-0.977907	0.528948	-0.828760	-0.182680	-0.848588	-0.519203	-0.101622
49880		-0.007610	0.207623	-0.978179	0.532355	-0.827223	-0.179723	-0.846487	-0.522106	-0.104234
49881		-0.004306	0.206451	-0.978447	0.537514	-0.824607	-0.176357	-0.843244	-0.526688	-0.107419
49882		-0.000374	0.205436	-0.978670	0.544047	-0.821117	-0.172571	-0.839055	-0.532507	-0.111460
49883		0.003918	0.204983	-0.978758	0.551217	-0.817084	-0.168917	-0.834352	-0.538847	-0.116192
49884		0.008449	0.205098	-0.978705	0.557429	-0.813527	-0.165671	-0.830182	-0.544159	-0.121201
49885		0.012003	0.205251	-0.978636	0.562480	-0.810564	-0.163102	-0.826724	-0.548505	-0.125178
49886		0.014184	0.205421	-0.978571	0.565551	-0.808732	-0.161571	-0.824591	-0.551140	-0.127647
49887		0.015515	0.206011	-0.978427	0.565968	-0.808502	-0.161258	-0.824281	-0.551256	-0.129140
49888		0.016662	0.207237	-0.978149	0.564175	-0.809622	-0.161921	-0.825487	-0.549149	-0.130408
49889		0.017057	0.208621	-0.977848	0.560230	-0.812046	-0.163475	-0.828161	-0.545032	-0.130726
49890		0.016685	0.209984	-0.977563	0.555110	-0.815122	-0.165617	-0.831609	-0.539892	-0.130164
49891		0.015750	0.211619	-0.977225	0.550408	-0.817774	-0.168219	-0.834747	-0.535223	-0.129356
49892		0.015103	0.213806	-0.976759	0.547441	-0.819217	-0.170856	-0.836708	-0.532137	-0.129419
49893		0.014688	0.216450	-0.976183	0.546063	-0.819579	-0.173510	-0.837615	-0.530509	-0.130234
49894		0.014339	0.219230	-0.975568	0.545403	-0.819459	-0.176132	-0.838051	-0.529552	-0.131319
49895		0.013566	0.221945	-0.974965	0.544388	-0.819516	-0.178984	-0.838724	-0.528331	-0.131942
49896		0.012948	0.224516	-0.974384	0.542559	-0.820117	-0.181760	-0.839918	-0.526308	-0.132432
49897		0.011929	0.226627	-0.973909	0.539819	-0.821312	-0.184506	-0.841696	-0.523534	-0.132135
49898		0.011019	0.228161	-0.973561	0.535999	-0.823276	-0.186874	-0.844146	-0.519769	-0.131365
49899		0.010832	0.229218	-0.973315	0.530253	-0.826561	-0.188756	-0.847770	-0.514058	-0.130496
49900		0.011983	0.229429	-0.973252	0.523291	-0.830836	-0.189414	-0.852070	-0.507024	-0.130014
49901		0.014329	0.228609	-0.973413	0.516026	-0.835545	-0.188634	-0.856453	-0.499603	-0.129940
49902		0.018319	0.226580	-0.973820	0.509911	-0.839915	-0.185832	-0.860032	-0.493157	-0.130922
49903		0.024260	0.223832	-0.974326	0.506724	-0.842889	-0.181020	-0.861767	-0.489323	-0.133869
49904		0.032238	0.220885	-0.974767	0.506871	-0.844170	-0.174528	-0.861419	-0.488454	-0.139174
49905		0.040779	0.217627	-0.975180	0.509288	-0.844217	-0.167104	-0.859630	-0.489833	-0.145261
49906		0.049475	0.214297	-0.975515	0.514236	-0.842771	-0.159056	-0.856220	-0.493776	-0.151895
49907		0.058439	0.211530	-0.975623	0.523241	-0.838786	-0.150520	-0.850179	-0.501690	-0.159699
49908		0.067794	0.210054	-0.975336	0.537776	-0.831109	-0.141613	-0.840358	-0.514912	-0.169307
49909		0.076921	0.210426	-0.974579	0.556871	-0.819870	-0.133069	-0.827030	-0.532479	-0.180245
49910		0.084877	0.211901	-0.973599	0.575601	-0.808015	-0.125682	-0.813314	-0.549737	-0.190552
49911		0.090659	0.213602	-0.972705	0.587712	-0.799986	-0.120897	-0.803975	-0.560710	-0.198063
49912		0.095057	0.215435	-0.971881	0.591898	-0.797206	-0.118823	-0.800388	-0.563959	-0.203296
49913		0.097602	0.216375	-0.971419	0.590243	-0.798473	-0.118548	-0.801303	-0.561803	-0.205646
49914		0.098445	0.215795	-0.971463	0.586993	-0.800885	-0.118419	-0.803585	-0.558584	-0.205513
49915		0.098714	0.214129	-0.971805	0.585754	-0.801969	-0.117207	-0.804455	-0.557669	-0.204593
49916		0.100650	0.212425	-0.971980	0.588078	-0.800716	-0.114099	-0.802517	-0.560116	-0.205514
49917		0.105143	0.211157	-0.971781	0.594650	-0.796595	-0.108752	-0.797080	-0.566435	-0.209321
49918		0.111949	0.210156	-0.971237	0.605392	-0.789487	-0.101048	-0.788015	-0.576667	-0.215609
49919		0.119464	0.208625	-0.970672	0.618607	-0.780345	-0.091584	-0.776566	-0.589523	-0.222280
49920		0.127145	0.206616	-0.970126	0.632011	-0.770683	-0.081307	-0.764458	-0.602792	-0.228572
49921		0.134255	0.204332	-0.969651	0.644137	-0.761580	-0.071300	-0.753036	-0.615016	-0.233864
49922		0.140433	0.201841	-0.969298	0.652869	-0.754880	-0.062604	-0.744339	-0.624033	-0.237786
49923		0.145058	0.198784	-0.969249	0.657309	-0.751555	-0.055764	-0.739529	-0.629007	-0.239681
49924		0.148371	0.195350	-0.969445	0.658303	-0.751051	-0.050591	-0.737986	-0.630683	-0.240034
49925		0.150596	0.191664	-0.969838	0.657059	-0.752393	-0.046663	-0.738643	-0.630214	-0.239242
49926		0.152232	0.188026	-0.970295	0.654244	-0.755022	-0.043664	-0.740804	-0.628162	-0.237953
49927		0.153809	0.184791	-0.970667	0.650724	-0.758194	-0.041230	-0.743573	-0.625295	-0.236865
49928		0.155754	0.182162	-0.970854	0.646968	-0.761515	-0.039091	-0.746441	-0.622023	-0.236462
49929		0.157661	0.179888	-0.970970	0.643481	-0.764560	-0.037162	-0.749050	-0.618942	-0.236296
49930		0.159122	0.177584	-0.971156	0.640227	-0.767369	-0.035420	-0.751525	-0.616124	-0.235799
49931		0.160211	0.175374	-0.971379	0.636031	-0.770902	-0.034278	-0.754849	-0.612335	-0.235050
49932		0.161652	0.173547	-0.971468	0.630699	-0.775302	-0.033555	-0.759004	-0.607280	-0.234785
49933		0.163286	0.171605	-0.971540	0.625129	-0.779837	-0.032679	-0.763251	-0.602001	-0.234612
49934		0.165686	0.169750	-0.971459	0.620952	-0.783237	-0.030955	-0.766138	-0.598100	-0.235178
49935		0.168759	0.167797	-0.971270	0.619577	-0.784441	-0.027868	-0.766580	-0.597073	-0.236344
49936		0.172361	0.165674	-0.971001	0.620883	-0.783552	-0.023480	-0.764720	-0.598831	-0.237918
49937		0.176316	0.163384	-0.970679	0.624409	-0.780890	-0.018020	-0.760938	-0.602923	-0.239702
49938		0.180200	0.160938	-0.970375	0.630266	-0.776291	-0.011708	-0.755178	-0.609484	-0.241322
49939		0.183836	0.158415	-0.970108	0.637447	-0.770478	-0.005020	-0.748242	-0.617469	-0.242623
49940		0.187340	0.156224	-0.969793	0.644569	-0.764545	0.001354	-0.741238	-0.625352	-0.243927
49941		0.190553	0.154354	-0.969466	0.651412	-0.758689	0.007243	-0.734406	-0.632903	-0.245118
49942		0.193635	0.153042	-0.969063	0.658355	-0.752601	0.012693	-0.727375	-0.640445	-0.246486
49943		0.196464	0.152213	-0.968624	0.665079	-0.746566	0.017578	-0.720467	-0.647665	-0.247907
49944		0.199102	0.151928	-0.968130	0.670867	-0.741262	0.021643	-0.714350	-0.653796	-0.249510
49945		0.201153	0.151754	-0.967733	0.676184	-0.736306	0.025088	-0.708740	-0.659412	-0.250724
49946		0.202662	0.151802	-0.967411	0.680489	-0.732236	0.027655	-0.704176	-0.663917	-0.251696
49947		0.203800	0.152010	-0.967139	0.683983	-0.728899	0.029567	-0.700452	-0.667533	-0.252522
49948		0.204829	0.152664	-0.966819	0.686504	-0.726476	0.030729	-0.697680	-0.670020	-0.253608
49949		0.205796	0.153502	-0.966481	0.689087	-0.723983	0.031742	-0.694843	-0.672522	-0.254769
49950		0.206641	0.154503	-0.966141	0.692538	-0.720632	0.032880	-0.691152	-0.675883	-0.255911
49951		0.207277	0.155523	-0.965841	0.696154	-0.717090	0.033931	-0.687318	-0.679408	-0.256904
49952		0.208019	0.156823	-0.965471	0.699570	-0.713716	0.034798	-0.683615	-0.682654	-0.258175
49953		0.208423	0.158066	-0.965181	0.703512	-0.709787	0.035677	-0.679434	-0.686453	-0.259137
49954		0.208556	0.159371	-0.964938	0.707148	-0.706137	0.036212	-0.675607	-0.689907	-0.259968
49955		0.208637	0.160789	-0.964685	0.710507	-0.702741	0.036535	-0.672049	-0.693039	-0.260859
49956		0.208417	0.162110	-0.964512	0.714776	-0.698370	0.037074	-0.667576	-0.697137	-0.261425
49957		0.207662	0.162882	-0.964544	0.720309	-0.692605	0.038120	-0.661839	-0.702686	-0.261153
49958		0.206991	0.163902	-0.964516	0.726407	-0.686140	0.039294	-0.655353	-0.708765	-0.261084
49959		0.206712	0.165307	-0.964336	0.732974	-0.679038	0.040716	-0.648090	-0.715249	-0.261531
49960		0.206112	0.166618	-0.964239	0.740378	-0.670856	0.042339	-0.639811	-0.722628	-0.261631
49961		0.205025	0.167503	-0.964317	0.748558	-0.661592	0.044233	-0.630576	-0.730916	-0.261029
49962		0.203672	0.168275	-0.964470	0.756778	-0.652049	0.046047	-0.621132	-0.739267	-0.260150
49963		0.202480	0.169263	-0.964547	0.765029	-0.642213	0.047898	-0.611337	-0.747605	-0.259527
49964		0.201530	0.170664	-0.964500	0.773642	-0.631657	0.049882	-0.600720	-0.756230	-0.259331
49965		0.200096	0.171671	-0.964620	0.782363	-0.620662	0.051832	-0.589804	-0.765054	-0.258500
49966		0.198263	0.172608	-0.964831	0.789674	-0.611240	0.052919	-0.580609	-0.772394	-0.257490
49967		0.196237	0.173665	-0.965055	0.795449	-0.603689	0.053113	-0.573369	-0.778074	-0.256608
49968		0.193864	0.174521	-0.965380	0.800666	-0.596770	0.052903	-0.566877	-0.783204	-0.255426
49969		0.191167	0.174752	-0.965876	0.805731	-0.589929	0.052737	-0.560582	-0.788318	-0.253578
49970		0.188816	0.175197	-0.966258	0.810381	-0.583541	0.052551	-0.554645	-0.792960	-0.252158
49971		0.186749	0.175649	-0.966578	0.815235	-0.576727	0.052704	-0.548194	-0.797831	-0.250898
49972		0.184759	0.175628	-0.966964	0.820804	-0.568695	0.053541	-0.540504	-0.803580	-0.249227
49973		0.183026	0.175209	-0.967369	0.827023	-0.559456	0.055145	-0.531539	-0.810130	-0.247297
49974		0.181540	0.174497	-0.967778	0.833578	-0.549422	0.057302	-0.521720	-0.817121	-0.245199
49975		0.180281	0.173309	-0.968226	0.840644	-0.538234	0.060183	-0.510702	-0.824783	-0.242725
49976		0.179269	0.171765	-0.968689	0.847876	-0.526370	0.063577	-0.498968	-0.832725	-0.239998
49977		0.178688	0.170100	-0.969091	0.855161	-0.513953	0.067469	-0.486590	-0.840785	-0.237300
49978		0.178441	0.168331	-0.969445	0.862568	-0.500820	0.071808	-0.473430	-0.849026	-0.234563
49979		0.178226	0.166017	-0.969884	0.870141	-0.486819	0.076568	-0.459446	-0.857582	-0.231221
49980		0.178047	0.163401	-0.970360	0.877586	-0.472447	0.081468	-0.445132	-0.866080	-0.227516
49981		0.178086	0.160608	-0.970820	0.884748	-0.457965	0.086533	-0.430704	-0.874341	-0.223655
49982		0.178203	0.158115	-0.971207	0.891356	-0.444023	0.091264	-0.416808	-0.881955	-0.220063
49983		0.178309	0.155434	-0.971620	0.897527	-0.430414	0.095857	-0.403299	-0.889148	-0.216253
49984		0.178408	0.152384	-0.972085	0.903282	-0.417138	0.100390	-0.390195	-0.895977	-0.212067
49985		0.178636	0.149203	-0.972537	0.908257	-0.405107	0.104679	-0.378363	-0.902013	-0.207882
49986		0.179081	0.146407	-0.972880	0.912452	-0.394511	0.108588	-0.367914	-0.907153	-0.204239
49987		0.179615	0.143898	-0.973156	0.916312	-0.384403	0.112283	-0.357926	-0.911881	-0.200900
49988		0.179992	0.141365	-0.973457	0.920024	-0.374377	0.115745	-0.348078	-0.916437	-0.197445
49989		0.180092	0.138677	-0.973825	0.923604	-0.364441	0.118907	-0.338412	-0.920843	-0.193715
49990		0.179896	0.136477	-0.974172	0.926982	-0.354897	0.121462	-0.329154	-0.924890	-0.190356
49991		0.179357	0.135014	-0.974475	0.930367	-0.345237	0.123406	-0.319764	-0.928753	-0.187534
49992		0.178132	0.133857	-0.974860	0.933954	-0.334944	0.124666	-0.309836	-0.932682	-0.184680
49993		0.176056	0.132388	-0.975437	0.937734	-0.323974	0.125281	-0.299431	-0.936757	-0.181182
49994		0.173470	0.130959	-0.976093	0.941744	-0.312037	0.125501	-0.288142	-0.941001	-0.177459
49995		0.170491	0.129505	-0.976812	0.946030	-0.298790	0.125505	-0.275608	-0.945491	-0.173457
49996		0.167087	0.127645	-0.977644	0.950337	-0.284922	0.125220	-0.262568	-0.950014	-0.168913
49997		0.163134	0.125273	-0.978618	0.954426	-0.271297	0.124373	-0.249916	-0.954308	-0.163822
49998		0.158833	0.122704	-0.979651	0.958291	-0.257943	0.123062	-0.237594	-0.958337	-0.158556
49999		0.154318	0.120189	-0.980684	0.962216	-0.243652	0.121551	-0.224337	-0.962387	-0.153247
50000		0.149651	0.118048	-0.981667	0.966190	-0.228286	0.119840	-0.209954	-0.966411	-0.148220
50001		0.144771	0.116168	-0.982622	0.969974	-0.212806	0.117749	-0.195429	-0.970164	-0.143488
50002		0.139574	0.114179	-0.983607	0.973455	-0.197791	0.115174	-0.181398	-0.973572	-0.138755
50003		0.134076	0.112247	-0.984593	0.976804	-0.182370	0.112224	-0.166963	-0.976802	-0.134095
50004		0.128245	0.110534	-0.985563	0.980074	-0.166121	0.108900	-0.151686	-0.979891	-0.129636
50005		0.121757	0.108731	-0.986586	0.983259	-0.148968	0.104929	-0.135561	-0.982846	-0.125049
50006		0.114512	0.106946	-0.987649	0.986400	-0.130238	0.100264	-0.117907	-0.985698	-0.120406
50007		0.106443	0.105157	-0.988743	0.989456	-0.109432	0.094881	-0.098223	-0.988416	-0.115697
50008		0.097746	0.103938	-0.989769	0.992197	-0.087531	0.088794	-0.077406	-0.990725	-0.111683
50009		0.088423	0.102314	-0.990814	0.994603	-0.063272	0.082227	-0.054278	-0.992738	-0.107357
50010		0.078498	0.100407	-0.991845	0.996491	-0.036902	0.075130	-0.029057	-0.994262	-0.102952
50011		0.068281	0.098695	-0.992772	0.997663	-0.009218	0.067701	-0.002470	-0.995075	-0.099094
50012		0.058009	0.096782	-0.993614	0.997990	0.019804	0.060194	0.025503	-0.995109	-0.095439
50013		0.047843	0.094028	-0.994419	0.997323	0.050610	0.052769	0.055289	-0.994282	-0.091355
50014		0.037846	0.090921	-0.995139	0.995502	0.083128	0.045454	0.086857	-0.992383	-0.087366
50015		0.028221	0.087586	-0.995757	0.992421	0.116735	0.038394	0.119602	-0.989294	-0.083628
50016		0.018939	0.083943	-0.996291	0.988167	0.150129	0.031433	0.152211	-0.985096	-0.080106
50017		0.010180	0.079380	-0.996792	0.982855	0.182733	0.024589	0.184099	-0.979953	-0.076158
50018		0.001925	0.073729	-0.997276	0.976522	0.214685	0.017757	0.215410	-0.973896	-0.071585
50019		-0.005693	0.067016	-0.997736	0.969385	0.245301	0.010946	0.245479	-0.967128	-0.066361
50020		-0.012792	0.060016	-0.998115	0.961818	0.273660	0.004128	0.273392	-0.959952	-0.061225
50021		-0.019206	0.052550	-0.998434	0.954176	0.299236	-0.002605	0.298631	-0.952731	-0.055889
50022		-0.025021	0.044574	-0.998693	0.946722	0.321915	-0.009351	0.321078	-0.945719	-0.050253
50023		-0.029905	0.035948	-0.998906	0.939303	0.342725	-0.015787	0.341783	-0.938748	-0.044015
50024		-0.034103	0.026898	-0.999056	0.931453	0.363194	-0.022017	0.362259	-0.931325	-0.037440
50025		-0.037490	0.017547	-0.999143	0.922569	0.384826	-0.027859	0.384007	-0.922822	-0.030616
50026		-0.040399	0.009148	-0.999142	0.912329	0.408113	-0.033152	0.407460	-0.912886	-0.024833
50027		-0.042767	0.002186	-0.999083	0.900677	0.432859	-0.037607	0.432379	-0.901459	-0.020481
50028		-0.044629	-0.003858	-0.998996	0.887827	0.458308	-0.041433	0.458008	-0.888785	-0.017029
50029		-0.045553	-0.009577	-0.998916	0.874107	0.483691	-0.044499	0.483593	-0.875186	-0.013662
50030		-0.045773	-0.015032	-0.998839	0.860171	0.507829	-0.047061	0.507947	-0.861327	-0.010315
50031		-0.045177	-0.020180	-0.998775	0.845706	0.531395	-0.048990	0.531733	-0.846884	-0.006940
50032		-0.043934	-0.024977	-0.998722	0.829865	0.555684	-0.050403	0.556232	-0.831019	-0.003686
50033		-0.042118	-0.029180	-0.998686	0.812023	0.581372	-0.051232	0.582103	-0.813114	-0.000791
50034		-0.040215	-0.032622	-0.998658	0.792293	0.607941	-0.051764	0.608814	-0.793312	0.001398
50035		-0.037599	-0.036049	-0.998642	0.770678	0.635105	-0.051942	0.636115	-0.771584	0.003902
50036		-0.034354	-0.039979	-0.998610	0.746895	0.662888	-0.052233	0.664054	-0.747651	0.007087
50037		-0.031105	-0.043383	-0.998574	0.721977	0.689925	-0.052463	0.691217	-0.722580	0.009862
50038		-0.028528	-0.045718	-0.998547	0.695547	0.716547	-0.052678	0.717914	-0.696039	0.011357
50039		-0.026253	-0.047104	-0.998545	0.667168	0.743048	-0.052592	0.744444	-0.667578	0.011920
50040		-0.024065	-0.048143	-0.998550	0.637611	0.768573	-0.052422	0.769983	-0.637948	0.012201
50041		-0.021235	-0.049536	-0.998547	0.607494	0.792604	-0.052238	0.794040	-0.607721	0.013262
50042		-0.018587	-0.050963	-0.998528	0.577007	0.815060	-0.052340	0.816527	-0.577131	0.014257
50043		-0.016841	-0.051690	-0.998521	0.545366	0.836552	-0.052504	0.838029	-0.545443	0.014102
50044		-0.016346	-0.051941	-0.998516	0.511837	0.857448	-0.052982	0.858927	-0.511943	0.012570
50045		-0.016594	-0.051872	-0.998516	0.477937	0.876764	-0.053490	0.878237	-0.478116	0.010242
50046		-0.018269	-0.051460	-0.998508	0.444990	0.893893	-0.054210	0.895349	-0.445316	0.006569
50047		-0.020466	-0.051002	-0.998489	0.413506	0.908845	-0.054899	0.910271	-0.414005	0.002489
50048		-0.023532	-0.050502	-0.998447	0.385558	0.921002	-0.055672	0.922383	-0.386269	-0.002202
50049		-0.027403	-0.050012	-0.998373	0.360872	0.930900	-0.056537	0.932213	-0.361834	-0.007461
50050		-0.032338	-0.049383	-0.998256	0.338055	0.939373	-0.057422	0.940571	-0.339322	-0.013684
50051		-0.038909	-0.048597	-0.998060	0.316409	0.946821	-0.058437	0.947825	-0.318069	-0.021463
50052		-0.047091	-0.047925	-0.997740	0.295478	0.953479	-0.059745	0.954188	-0.297624	-0.030739
50053		-0.056041	-0.047651	-0.997291	0.274774	0.959553	-0.061288	0.959874	-0.277465	-0.040681
50054		-0.065939	-0.047504	-0.996692	0.254143	0.965125	-0.062813	0.964916	-0.257444	-0.051566
50055		-0.077060	-0.046897	-0.995923	0.231612	0.970725	-0.063631	0.969751	-0.235572	-0.063942
50056		-0.090154	-0.046031	-0.994863	0.208617	0.975897	-0.064058	0.973833	-0.213320	-0.078378
50057		-0.104245	-0.045129	-0.993527	0.184907	0.980673	-0.063946	0.977212	-0.190376	-0.093886
50058		-0.117845	-0.044390	-0.992039	0.161636	0.984820	-0.063268	0.979789	-0.167805	-0.108881
50059		-0.130754	-0.043873	-0.990444	0.139419	0.988279	-0.062183	0.981563	-0.146217	-0.123105
50060		-0.143025	-0.043737	-0.988752	0.116833	0.991292	-0.060750	0.982799	-0.124207	-0.136669
50061		-0.153847	-0.043795	-0.987124	0.092875	0.993953	-0.058573	0.983720	-0.100691	-0.148850
50062		-0.163410	-0.043353	-0.985605	0.068695	0.996109	-0.055204	0.984164	-0.076727	-0.159797
50063		-0.172301	-0.042275	-0.984137	0.045894	0.997649	-0.050891	0.983975	-0.053935	-0.169956
50064		-0.180409	-0.040846	-0.982743	0.023808	0.998663	-0.045879	0.983303	-0.031674	-0.179196
50065		-0.187507	-0.039542	-0.981467	0.001753	0.999174	-0.040590	0.982262	-0.009332	-0.187283
50066		-0.193667	-0.038249	-0.980321	-0.019818	0.999188	-0.035070	0.980867	0.012636	-0.194268
50067		-0.198951	-0.036879	-0.979315	-0.038764	0.998806	-0.029738	0.979242	0.032045	-0.200143
50068		-0.203436	-0.035193	-0.978456	-0.054846	0.998194	-0.024500	0.977551	0.048680	-0.204998
50069		-0.207236	-0.033089	-0.977731	-0.068101	0.997491	-0.019323	0.975918	0.062580	-0.208970
50070		-0.210623	-0.030586	-0.977089	-0.078342	0.996824	-0.014316	0.974423	0.073532	-0.212350
50071		-0.212810	-0.027697	-0.976701	-0.085475	0.996294	-0.009628	0.973348	0.081435	-0.214389
50072		-0.213303	-0.024353	-0.976682	-0.089406	0.995981	-0.005308	0.972887	0.086189	-0.214623
50073		-0.212592	-0.020797	-0.976920	-0.091404	0.995813	-0.001308	0.972857	0.089016	-0.213602
50074		-0.211212	-0.017197	-0.977289	-0.092812	0.995680	0.002538	0.973024	0.091241	-0.211896
50075		-0.209255	-0.013924	-0.977762	-0.095318	0.995427	0.006224	0.973204	0.094501	-0.209626
50076		-0.208487	-0.011155	-0.977962	-0.101402	0.994793	0.010270	0.972754	0.101308	-0.208533
50077		-0.210480	-0.009525	-0.977552	-0.112272	0.993572	0.014492	0.971130	0.112802	-0.210197
50078		-0.214565	-0.009223	-0.976666	-0.125218	0.991963	0.018142	0.968650	0.126188	-0.213995
50079		-0.218946	-0.010307	-0.975682	-0.137411	0.990305	0.020374	0.966013	0.138530	-0.218240
50080		-0.223067	-0.011963	-0.974730	-0.147037	0.988897	0.021512	0.963650	0.148120	-0.222349
50081		-0.227291	-0.013996	-0.973726	-0.153726	0.987875	0.021684	0.961617	0.154616	-0.226686
50082		-0.231824	-0.016058	-0.972625	-0.158932	0.987054	0.021585	0.959687	0.159585	-0.231375
50083		-0.235962	-0.018175	-0.971592	-0.165372	0.985992	0.021718	0.957588	0.165799	-0.235662
50084		-0.239217	-0.020300	-0.970754	-0.174113	0.984473	0.022318	0.955228	0.174359	-0.239037
50085		-0.241512	-0.022956	-0.970126	-0.185350	0.982406	0.022896	0.952532	0.185342	-0.241517
50086		-0.243548	-0.026090	-0.969538	-0.198688	0.979780	0.023545	0.949319	0.198370	-0.243807
50087		-0.245648	-0.029989	-0.968895	-0.213423	0.976668	0.023880	0.945573	0.212650	-0.246317
50088		-0.248430	-0.034424	-0.968038	-0.227639	0.973455	0.023803	0.941522	0.226277	-0.249671
50089		-0.251200	-0.039085	-0.967146	-0.240540	0.970360	0.023262	0.937571	0.238481	-0.253156
50090		-0.253463	-0.043438	-0.966369	-0.252183	0.967414	0.022659	0.933895	0.249446	-0.256158
50091		-0.255505	-0.047710	-0.965630	-0.262933	0.964565	0.021915	0.930368	0.259495	-0.258995
50092		-0.258088	-0.051901	-0.964726	-0.272233	0.962001	0.021075	0.926973	0.268069	-0.262410
50093		-0.260037	-0.055890	-0.963980	-0.280610	0.959612	0.020059	0.923926	0.275719	-0.265218
50094		-0.261351	-0.059430	-0.963413	-0.289553	0.956963	0.019517	0.920790	0.284060	-0.267311
50095		-0.262860	-0.063261	-0.962758	-0.299539	0.953893	0.019104	0.917159	0.293405	-0.269690
50096		-0.264634	-0.067328	-0.961996	-0.310712	0.950315	0.018963	0.912922	0.303922	-0.272405
50097		-0.265862	-0.071680	-0.961343	-0.322716	0.946311	0.018689	0.908390	0.315209	-0.274720
50098		-0.266794	-0.076127	-0.960742	-0.335096	0.942004	0.018413	0.903621	0.326853	-0.276831
50099		-0.267542	-0.080798	-0.960153	-0.346757	0.937788	0.017706	0.898989	0.337676	-0.278915
50100		-0.268402	-0.085322	-0.959521	-0.358435	0.933395	0.017264	0.894139	0.348560	-0.281107
50101		-0.269255	-0.089630	-0.958889	-0.371035	0.928456	0.017402	0.888726	0.360467	-0.283248
50102		-0.269589	-0.093415	-0.958434	-0.384875	0.922787	0.018317	0.882719	0.373815	-0.284727
50103		-0.269494	-0.096889	-0.958116	-0.399735	0.916418	0.019763	0.876119	0.388318	-0.285699
50104		-0.269552	-0.100479	-0.957729	-0.414780	0.909672	0.021303	0.869079	0.402989	-0.286881
50105		-0.269394	-0.104540	-0.957339	-0.429684	0.902703	0.022338	0.861858	0.417371	-0.288102
50106		-0.268265	-0.108652	-0.957198	-0.444224	0.895625	0.022835	0.854809	0.431336	-0.288530
50107		-0.266689	-0.113017	-0.957133	-0.459489	0.887880	0.023190	0.847199	0.445977	-0.288718
50108		-0.265345	-0.117735	-0.956938	-0.476010	0.879117	0.023830	0.838455	0.461836	-0.289313
50109		-0.263700	-0.122866	-0.956748	-0.493492	0.869409	0.024367	0.828811	0.478573	-0.289897
50110		-0.261784	-0.128391	-0.956548	-0.511760	0.858771	0.024789	0.818273	0.496012	-0.290518
50111		-0.260039	-0.134743	-0.956151	-0.531667	0.846576	0.025293	0.806046	0.514931	-0.291782
50112		-0.258173	-0.141626	-0.955661	-0.552746	0.832948	0.025884	0.792350	0.534921	-0.293328
50113		-0.255746	-0.148924	-0.955204	-0.574225	0.818279	0.026166	0.777727	0.555195	-0.294788
50114		-0.252825	-0.156509	-0.954769	-0.595444	0.802975	0.026048	0.762579	0.575097	-0.296205
50115		-0.249515	-0.164575	-0.954284	-0.616853	0.786661	0.025621	0.746481	0.595045	-0.297802
50116		-0.245761	-0.173028	-0.953762	-0.638126	0.769531	0.024824	0.729655	0.614722	-0.299535
50117		-0.240975	-0.181544	-0.953401	-0.658340	0.752365	0.023134	0.713106	0.633236	-0.300819
50118		-0.235168	-0.189768	-0.953249	-0.678186	0.734588	0.021072	0.696247	0.651436	-0.301449
50119		-0.228437	-0.197588	-0.953297	-0.697345	0.716494	0.018598	0.679357	0.669026	-0.301461
50120		-0.221325	-0.205083	-0.953392	-0.715863	0.698057	0.016026	0.662235	0.686045	-0.301308
50121		-0.214227	-0.212719	-0.953340	-0.734487	0.678485	0.013658	0.643922	0.703142	-0.301589
50122		-0.206781	-0.220081	-0.953313	-0.753156	0.657741	0.011520	0.624498	0.720376	-0.301764
50123		-0.198952	-0.227096	-0.953334	-0.772422	0.635032	0.009925	0.603144	0.738351	-0.301755
50124		-0.190879	-0.233903	-0.953339	-0.791936	0.610541	0.008766	0.580002	0.756657	-0.301776
50125		-0.182467	-0.240584	-0.953323	-0.811113	0.584840	0.007655	0.555700	0.774649	-0.301855
50126		-0.173749	-0.246984	-0.953315	-0.829771	0.558064	0.006650	0.530368	0.792189	-0.301904
50127		-0.164737	-0.253186	-0.953288	-0.847751	0.530365	0.005638	0.504163	0.809080	-0.302009
50128		-0.155175	-0.259062	-0.953314	-0.864539	0.502548	0.004158	0.478009	0.824822	-0.301953
50129		-0.145360	-0.264342	-0.953412	-0.880348	0.474321	0.002711	0.451507	0.839728	-0.301660
50130		-0.135606	-0.269383	-0.953438	-0.895056	0.445952	0.001304	0.424836	0.853557	-0.301586
50131		-0.125936	-0.274117	-0.953415	-0.908937	0.416933	0.000188	0.397458	0.866618	-0.301661
50132		-0.116349	-0.278514	-0.953359	-0.921634	0.388059	-0.000890	0.370208	0.878544	-0.301838
50133		-0.106705	-0.282152	-0.953417	-0.932797	0.360394	-0.002257	0.344243	0.889104	-0.301646
50134		-0.097288	-0.285452	-0.953442	-0.943176	0.332277	-0.003240	0.317732	0.898949	-0.301558
50135		-0.088109	-0.288771	-0.953335	-0.952683	0.303940	-0.004016	0.290916	0.907872	-0.301887
50136		-0.078905	-0.291705	-0.953248	-0.961200	0.275809	-0.004838	0.264326	0.915881	-0.302150
50137		-0.069591	-0.293893	-0.953302	-0.968839	0.247626	-0.005616	0.237713	0.923205	-0.301968
50138		-0.060325	-0.295748	-0.953359	-0.975860	0.218317	-0.005977	0.209902	0.929984	-0.301779
50139		-0.051106	-0.297228	-0.953438	-0.982169	0.187904	-0.005932	0.180918	0.936134	-0.301531
50140		-0.041818	-0.297894	-0.953682	-0.987559	0.157145	-0.005783	0.151589	0.941575	-0.300760
50141		-0.032618	-0.297786	-0.954075	-0.992090	0.125417	-0.005228	0.121214	0.946358	-0.299522
50142		-0.023633	-0.297066	-0.954564	-0.995625	0.093338	-0.004397	0.090404	0.950284	-0.297972
50143		-0.015015	-0.295986	-0.955074	-0.998132	0.061002	-0.003213	0.059212	0.953242	-0.296349
50144		-0.006551	-0.294428	-0.955651	-0.999602	0.028142	-0.001819	0.027430	0.955259	-0.294495
50145		0.001594	-0.292275	-0.956333	-0.999988	-0.004899	-0.000169	-0.004635	0.956322	-0.292280
50146		0.009375	-0.289469	-0.957141	-0.999272	-0.038114	0.001739	-0.036984	0.956428	-0.289616
50147		0.016910	-0.286644	-0.957888	-0.997415	-0.071747	0.003862	-0.069833	0.955347	-0.287116
50148		0.024410	-0.283512	-0.958658	-0.994382	-0.105687	0.005936	-0.103000	0.953127	-0.284499
50149		0.031791	-0.279989	-0.959477	-0.990209	-0.139369	0.007861	-0.135922	0.949833	-0.281679
50150		0.039310	-0.276167	-0.960305	-0.984827	-0.173280	0.009518	-0.169030	0.945360	-0.278788
50151		0.046780	-0.271900	-0.961188	-0.978322	-0.206805	0.010887	-0.201738	0.939842	-0.275680
50152		0.053973	-0.267018	-0.962179	-0.970671	-0.240102	0.012182	-0.234274	0.933302	-0.272145
50153		0.060529	-0.261280	-0.963363	-0.961894	-0.273081	0.013628	-0.266637	0.925829	-0.267853
50154		0.066693	-0.255350	-0.964546	-0.951831	-0.306242	0.015259	-0.299281	0.917067	-0.263474
50155		0.072475	-0.249975	-0.965536	-0.940328	-0.339823	0.017396	-0.332460	0.906660	-0.259688
50156		0.078207	-0.245036	-0.966354	-0.927768	-0.372652	0.019408	-0.364870	0.895035	-0.256481
50157		0.083862	-0.241183	-0.966850	-0.914229	-0.404621	0.021636	-0.396425	0.882107	-0.254429
50158		0.089639	-0.237990	-0.967122	-0.899630	-0.435998	0.023908	-0.427353	0.867909	-0.253185
50159		0.095517	-0.235210	-0.967240	-0.884072	-0.466617	0.026167	-0.457485	0.852611	-0.252512
50160		0.101616	-0.232389	-0.967300	-0.867322	-0.496943	0.028275	-0.487264	0.836088	-0.252054
50161		0.107514	-0.229685	-0.967308	-0.848567	-0.528174	0.031097	-0.518050	0.817482	-0.251689
50162		0.112935	-0.226221	-0.967507	-0.826905	-0.561269	0.034712	-0.550884	0.796117	-0.250450
50163		0.117848	-0.222284	-0.967833	-0.802432	-0.595464	0.039053	-0.584991	0.772018	-0.248542
50164		0.122472	-0.217685	-0.968305	-0.775559	-0.629776	0.043486	-0.619281	0.745651	-0.245957
50165		0.126371	-0.212491	-0.968957	-0.746613	-0.663515	0.048135	-0.653146	0.717353	-0.242498
50166		0.130252	-0.207082	-0.969614	-0.715839	-0.696286	0.052545	-0.686010	0.687243	-0.238930
50167		0.133852	-0.201946	-0.970207	-0.683412	-0.727788	0.057202	-0.717657	0.655394	-0.235429
50168		0.136932	-0.196729	-0.970849	-0.648813	-0.758404	0.062169	-0.748526	0.621386	-0.231490
50169		0.139697	-0.191961	-0.971409	-0.612558	-0.787535	0.067534	-0.777983	0.585610	-0.227603
50170		0.142174	-0.187003	-0.972017	-0.576761	-0.813717	0.072187	-0.804446	0.550358	-0.223545
50171		0.143938	-0.181898	-0.972725	-0.542309	-0.836715	0.076217	-0.827757	0.516548	-0.219080
50172		0.144421	-0.176204	-0.973702	-0.508003	-0.857646	0.079854	-0.849161	0.483111	-0.213374
50173		0.144035	-0.170864	-0.974710	-0.473508	-0.876801	0.083729	-0.868933	0.449473	-0.207196
50174		0.143529	-0.165782	-0.975662	-0.439700	-0.893901	0.087205	-0.886602	0.416482	-0.201195
50175		0.142443	-0.161276	-0.976576	-0.407749	-0.908591	0.090575	-0.901915	0.385296	-0.195183
50176		0.140652	-0.156703	-0.977579	-0.377462	-0.921306	0.093374	-0.915281	0.355866	-0.188733
50177		0.138763	-0.152592	-0.978499	-0.348675	-0.932320	0.095944	-0.926915	0.327865	-0.182577
50178		0.137037	-0.148391	-0.979388	-0.321065	-0.941994	0.097801	-0.937090	0.301045	-0.176732
50179		0.135929	-0.144275	-0.980157	-0.293644	-0.950751	0.099224	-0.946201	0.274329	-0.171600
50180		0.135447	-0.139716	-0.980884	-0.264977	-0.959054	0.100017	-0.954694	0.246365	-0.166923
50181		0.135497	-0.134974	-0.981541	-0.233949	-0.967022	0.100682	-0.962761	0.215988	-0.162605
50182		0.135358	-0.129677	-0.982274	-0.200626	-0.974448	0.100998	-0.970272	0.183399	-0.157916
50183		0.134490	-0.124135	-0.983109	-0.165713	-0.980968	0.101195	-0.976960	0.149304	-0.152501
50184		0.132886	-0.118335	-0.984042	-0.130761	-0.986262	0.100944	-0.982468	0.115261	-0.146533
50185		0.131263	-0.112919	-0.984896	-0.095974	-0.990272	0.100745	-0.986691	0.081300	-0.140823
50186		0.129618	-0.107642	-0.985704	-0.060274	-0.993107	0.100525	-0.989730	0.046382	-0.135213
50187		0.127677	-0.102892	-0.986464	-0.024510	-0.994628	0.100572	-0.991513	0.011337	-0.129513
50188		0.125432	-0.098283	-0.987222	0.011033	-0.994881	0.100447	-0.992041	-0.023491	-0.123705
50189		0.123597	-0.094074	-0.987863	0.047009	-0.993824	0.100523	-0.991218	-0.058863	-0.118411
50190		0.121834	-0.089893	-0.988471	0.084072	-0.991377	0.100519	-0.988984	-0.095349	-0.113226
50191		0.119914	-0.085968	-0.989055	0.122852	-0.987302	0.100710	-0.985154	-0.133584	-0.107830
50192		0.117709	-0.081785	-0.989675	0.163295	-0.981442	0.100526	-0.979530	-0.173442	-0.102169
50193		0.115767	-0.077476	-0.990250	0.204797	-0.973670	0.100121	-0.971934	-0.214391	-0.096852
50194		0.113451	-0.072548	-0.990891	0.247048	-0.963947	0.098860	-0.962339	-0.256014	-0.091438
50195		0.110683	-0.067479	-0.991562	0.289312	-0.952297	0.097101	-0.950814	-0.297619	-0.085881
50196		0.107413	-0.061833	-0.992290	0.331238	-0.938817	0.094357	-0.937413	-0.338819	-0.080359
50197		0.103868	-0.055963	-0.993015	0.372749	-0.923456	0.091032	-0.922101	-0.379601	-0.075057
50198		0.099668	-0.049296	-0.993799	0.414092	-0.906118	0.086476	-0.904762	-0.420143	-0.069898
50199		0.095239	-0.042360	-0.994553	0.455539	-0.886488	0.081380	-0.885107	-0.460808	-0.065132
50200		0.089777	-0.034896	-0.995350	0.497468	-0.864220	0.075168	-0.862824	-0.501903	-0.060227
50201		0.083509	-0.027581	-0.996125	0.538901	-0.839585	0.068425	-0.838219	-0.542527	-0.055250
50202		0.076452	-0.019821	-0.996876	0.579023	-0.813058	0.060573	-0.811719	-0.581846	-0.050683
50203		0.069019	-0.012405	-0.997538	0.617291	-0.784984	0.052472	-0.783702	-0.619392	-0.046521
50204		0.060605	-0.004732	-0.998151	0.654070	-0.755194	0.043293	-0.754002	-0.655484	-0.042674
50205		0.052118	0.002118	-0.998639	0.689697	-0.723278	0.034461	-0.722220	-0.690554	-0.039157
50206		0.042763	0.008880	-0.999046	0.724234	-0.689106	0.024875	-0.688227	-0.724606	-0.035900
50207		0.034272	0.014444	-0.999308	0.756770	-0.653473	0.016508	-0.652783	-0.756812	-0.033326
50208		0.025485	0.019900	-0.999477	0.787035	-0.616860	0.007786	-0.616382	-0.786821	-0.031383
50209		0.017821	0.023498	-0.999565	0.814895	-0.579609	0.000904	-0.579335	-0.814556	-0.029478
50210		0.009307	0.026694	-0.999600	0.841849	-0.539673	-0.006573	-0.539633	-0.841451	-0.027495
50212		-0.005848	0.031106	-0.999499	0.892387	-0.450859	-0.019252	-0.451232	-0.892053	-0.025122
50213		-0.012282	0.035218	-0.999304	0.914233	-0.404386	-0.025488	-0.405003	-0.913910	-0.027231
50214		-0.016449	0.038097	-0.999139	0.932707	-0.359463	-0.029061	-0.360260	-0.932381	-0.029621
50215		-0.022215	0.040576	-0.998929	0.947869	-0.316846	-0.033949	-0.317885	-0.947609	-0.031422
50216		-0.025980	0.039186	-0.998894	0.959655	-0.278879	-0.035900	-0.279977	-0.959527	-0.030360
50217		-0.030720	0.038153	-0.998800	0.969271	-0.242871	-0.039089	-0.244071	-0.969308	-0.029520
50218		-0.033510	0.035733	-0.998799	0.976898	-0.209875	-0.040284	-0.211063	-0.977075	-0.027875
50219		-0.035817	0.034854	-0.998750	0.983210	-0.177706	-0.041461	-0.178929	-0.983466	-0.027904
50220		-0.036697	0.033817	-0.998754	0.988321	-0.146690	-0.041280	-0.147903	-0.988604	-0.028039
50221		-0.037251	0.032348	-0.998782	0.992416	-0.115965	-0.040769	-0.117143	-0.992726	-0.027783
50222		-0.036915	0.030754	-0.998845	0.995599	-0.085030	-0.039413	-0.086144	-0.995904	-0.027480
50223		-0.036232	0.030611	-0.998874	0.997839	-0.053707	-0.037840	-0.054805	-0.998087	-0.028599
50224		-0.035012	0.031697	-0.998884	0.999143	-0.020957	-0.035686	-0.022065	-0.999278	-0.030937
50225		-0.033808	0.033902	-0.998853	0.999349	0.013752	-0.033358	0.012605	-0.999331	-0.034345
50226		-0.032030	0.036727	-0.998812	0.998262	0.050630	-0.030151	0.049462	-0.998042	-0.038285
50227		-0.030518	0.040523	-0.998712	0.995673	0.088969	-0.026816	0.087768	-0.995210	-0.043063
50228		-0.028915	0.044688	-0.998582	0.991648	0.126903	-0.023035	0.125694	-0.990908	-0.047984
50229		-0.027719	0.048069	-0.998459	0.986165	0.164623	-0.019452	0.163434	-0.985185	-0.051967
50230		-0.026238	0.051547	-0.998326	0.979215	0.202249	-0.015293	0.201122	-0.977977	-0.055782
50231		-0.025115	0.056438	-0.998090	0.971066	0.238560	-0.010946	0.237486	-0.969486	-0.060797
50232		-0.023639	0.062147	-0.997787	0.961754	0.273855	-0.005728	0.272893	-0.959761	-0.066244
50233		-0.022754	0.069098	-0.997350	0.951676	0.307102	-0.000435	0.306259	-0.949165	-0.072747
50234		-0.022030	0.077620	-0.996740	0.941015	0.338320	0.005548	0.337647	-0.937825	-0.080495
50235		-0.022164	0.087284	-0.995937	0.929290	0.369167	0.011673	0.368686	-0.925255	-0.089294
50236		-0.023121	0.098374	-0.994881	0.916551	0.399505	0.018202	0.399250	-0.911438	-0.099402
50237		-0.025241	0.109500	-0.993666	0.903273	0.428381	0.024262	0.428324	-0.896939	-0.109721
50238		-0.027364	0.119435	-0.992465	0.890076	0.454811	0.030191	0.454990	-0.882543	-0.118751
50239		-0.029623	0.128082	-0.991321	0.877279	0.478656	0.035629	0.479065	-0.868610	-0.126543
50240		-0.031209	0.134985	-0.990356	0.864969	0.500154	0.040913	0.500853	-0.855351	-0.132368
50241		-0.032441	0.140216	-0.989589	0.853185	0.519607	0.045654	0.520599	-0.842822	-0.136486
50242		-0.033325	0.144514	-0.988941	0.842189	0.536852	0.050070	0.538151	-0.831207	-0.139599
50243		-0.034529	0.147964	-0.988390	0.832657	0.551205	0.053428	0.552711	-0.821145	-0.142236
50244		-0.035893	0.150731	-0.987923	0.825243	0.562019	0.055767	0.563637	-0.813274	-0.144562
50245		-0.037215	0.152537	-0.987597	0.819616	0.570055	0.057162	0.571703	-0.807323	-0.146236
50246		-0.038275	0.153327	-0.987434	0.814682	0.576999	0.058016	0.578644	-0.802224	-0.146997
50247		-0.039539	0.153539	-0.987351	0.810246	0.583189	0.058243	0.584755	-0.797694	-0.147463
50248		-0.040789	0.152785	-0.987417	0.806249	0.588747	0.057793	0.590169	-0.793747	-0.147197
50249		-0.042308	0.151453	-0.987559	0.802465	0.593998	0.056718	0.595197	-0.790082	-0.146667
50250		-0.044351	0.150721	-0.987581	0.799647	0.597914	0.055340	0.598830	-0.787262	-0.147042
50251		-0.046897	0.150871	-0.987440	0.798437	0.599678	0.053704	0.600249	-0.785891	-0.148584
50252		-0.049771	0.151641	-0.987182	0.798969	0.599142	0.051753	0.599310	-0.786151	-0.150977
50253		-0.052291	0.152396	-0.986935	0.800694	0.597004	0.049762	0.596787	-0.787631	-0.153240
50254		-0.053963	0.152977	-0.986755	0.803078	0.593925	0.048158	0.593425	-0.789843	-0.154902
50255		-0.055189	0.154463	-0.986456	0.804862	0.591550	0.047598	0.590890	-0.791334	-0.156969
50256		-0.056432	0.157097	-0.985969	0.804185	0.592408	0.048362	0.591694	-0.790173	-0.159766
50257		-0.057613	0.160009	-0.985433	0.800438	0.597310	0.050191	0.596640	-0.785887	-0.162490
50258		-0.058814	0.162595	-0.984938	0.794736	0.604692	0.052367	0.604099	-0.779686	-0.164784
50259		-0.060331	0.164659	-0.984504	0.788596	0.612525	0.054120	0.611945	-0.773111	-0.166804
