// Start Time: Unknown
// Update Rate: 100.0Hz
// Filter Profile: human (46.1)
// Option Flags: AHS Disabled ICC Disabled 
// Firmware Version: 4.0.2
PacketCounter	SampleTimeFine	Mat[1][1]	Mat[2][1]	Mat[3][1]	Mat[1][2]	Mat[2][2]	Mat[3][2]	Mat[1][3]	Mat[2][3]	Mat[3][3]
16630		-0.064462	0.063645	-0.995889	0.965534	-0.248201	-0.078359	-0.252167	-0.966616	-0.045452
16631		-0.064116	0.063159	-0.995942	0.965892	-0.246969	-0.077843	-0.250883	-0.966963	-0.045170
16632		-0.063783	0.062726	-0.995991	0.966220	-0.245834	-0.077359	-0.249701	-0.967280	-0.044927
16633		-0.063517	0.062415	-0.996027	0.966506	-0.244830	-0.076977	-0.248661	-0.967555	-0.044773
16634		-0.063347	0.062076	-0.996059	0.966851	-0.243561	-0.076669	-0.247360	-0.967897	-0.044589
16635		-0.063172	0.061719	-0.996092	0.967075	-0.242760	-0.076374	-0.246525	-0.968121	-0.044352
16636		-0.062964	0.061480	-0.996120	0.967405	-0.241542	-0.076057	-0.245281	-0.968441	-0.044267
16637		-0.062728	0.061282	-0.996147	0.967646	-0.240677	-0.075740	-0.244391	-0.968669	-0.044202
16638		-0.062487	0.061079	-0.996175	0.967965	-0.239496	-0.075402	-0.243185	-0.968974	-0.044157
16639		-0.062234	0.060916	-0.996201	0.968176	-0.238743	-0.075082	-0.242410	-0.969170	-0.044119
16640		-0.061956	0.060857	-0.996222	0.968317	-0.238266	-0.074776	-0.241916	-0.969291	-0.044167
16641		-0.061729	0.060761	-0.996242	0.968395	-0.238029	-0.074521	-0.241663	-0.969356	-0.044148
16642		-0.061444	0.060623	-0.996268	0.968498	-0.237712	-0.074197	-0.241322	-0.969442	-0.044108
16643		-0.060975	0.060527	-0.996302	0.968501	-0.237848	-0.073723	-0.241431	-0.969415	-0.044118
16645		-0.060059	0.060311	-0.996371	0.968521	-0.238051	-0.072790	-0.241577	-0.969378	-0.044115
16646		-0.059547	0.060043	-0.996418	0.968567	-0.238035	-0.072226	-0.241519	-0.969399	-0.043982
16647		-0.058958	0.059806	-0.996467	0.968860	-0.237047	-0.071551	-0.240489	-0.969656	-0.043968
16648		-0.058317	0.059606	-0.996517	0.969069	-0.236402	-0.070851	-0.239802	-0.969825	-0.043976
16649		-0.057672	0.059408	-0.996566	0.969298	-0.235672	-0.070143	-0.239030	-0.970015	-0.043992
16650		-0.057107	0.059339	-0.996603	0.969485	-0.235078	-0.069550	-0.238406	-0.970164	-0.044103
16651		-0.056527	0.059179	-0.996646	0.969725	-0.234276	-0.068911	-0.237569	-0.970367	-0.044145
16652		-0.056033	0.059033	-0.996682	0.969853	-0.233899	-0.068379	-0.237159	-0.970467	-0.044147
16653		-0.055458	0.058896	-0.996722	0.970013	-0.233415	-0.067764	-0.236641	-0.970592	-0.044186
16654		-0.054827	0.058758	-0.996765	0.970044	-0.233474	-0.067120	-0.236663	-0.970586	-0.044197
16655		-0.054188	0.058422	-0.996820	0.970281	-0.232697	-0.066383	-0.235836	-0.970793	-0.044077
16656		-0.053412	0.058038	-0.996885	0.970545	-0.231847	-0.065499	-0.234926	-0.971019	-0.043945
16657		-0.052636	0.057786	-0.996940	0.970840	-0.230850	-0.064639	-0.233879	-0.971272	-0.043950
16658		-0.052010	0.057521	-0.996989	0.971130	-0.229829	-0.063921	-0.232813	-0.971530	-0.043907
16659		-0.051574	0.057304	-0.997024	0.971481	-0.228488	-0.063385	-0.231440	-0.971859	-0.043886
16660		-0.051165	0.057143	-0.997054	0.971701	-0.227681	-0.062913	-0.230606	-0.972058	-0.043876
16661		-0.050832	0.057003	-0.997079	0.971905	-0.226917	-0.062521	-0.229819	-0.972244	-0.043867
16662		-0.050550	0.056855	-0.997102	0.972006	-0.226576	-0.062197	-0.229455	-0.972333	-0.043810
16663		-0.050307	0.056672	-0.997125	0.972125	-0.226143	-0.061898	-0.229001	-0.972444	-0.043716
16664		-0.050144	0.056495	-0.997143	0.972151	-0.226088	-0.061697	-0.228927	-0.972467	-0.043584
16665		-0.050015	0.056353	-0.997157	0.972215	-0.225861	-0.061528	-0.228686	-0.972528	-0.043491
16666		-0.049992	0.056231	-0.997165	0.972270	-0.225637	-0.061468	-0.228454	-0.972587	-0.043392
16667		-0.050021	0.056063	-0.997173	0.972358	-0.225268	-0.061441	-0.228075	-0.972683	-0.043245
16668		-0.049974	0.055906	-0.997185	0.972460	-0.224855	-0.061341	-0.227651	-0.972787	-0.043130
16669		-0.049937	0.055717	-0.997197	0.972655	-0.224040	-0.061226	-0.226823	-0.972986	-0.043005
16670		-0.049846	0.055513	-0.997213	0.972729	-0.223759	-0.061078	-0.226526	-0.973062	-0.042846
16671		-0.049783	0.055379	-0.997224	0.972760	-0.223650	-0.060982	-0.226407	-0.973095	-0.042737
16672		-0.049729	0.055223	-0.997235	0.972798	-0.223509	-0.060888	-0.226253	-0.973136	-0.042606
16673		-0.049624	0.055031	-0.997251	0.972925	-0.223003	-0.060720	-0.225731	-0.973263	-0.042475
16674		-0.049422	0.054812	-0.997273	0.972989	-0.222793	-0.060464	-0.225499	-0.973324	-0.042321
16675		-0.049175	0.054641	-0.997294	0.973108	-0.222355	-0.060165	-0.225041	-0.973433	-0.042237
16676		-0.048972	0.054497	-0.997312	0.973166	-0.222164	-0.059926	-0.224833	-0.973485	-0.042154
16677		-0.048777	0.054433	-0.997325	0.973225	-0.221965	-0.059713	-0.224621	-0.973534	-0.042149
16678		-0.048626	0.054450	-0.997332	0.973223	-0.222008	-0.059571	-0.224659	-0.973523	-0.042196
16679		-0.048519	0.054418	-0.997339	0.973318	-0.221628	-0.059443	-0.224273	-0.973612	-0.042213
16680		-0.048285	0.054370	-0.997353	0.973260	-0.221943	-0.059218	-0.224575	-0.973543	-0.042200
16681		-0.048012	0.054327	-0.997368	0.973251	-0.222052	-0.058947	-0.224670	-0.973520	-0.042213
16682		-0.047733	0.054273	-0.997385	0.973147	-0.222578	-0.058684	-0.225181	-0.973403	-0.042191
16683		-0.047475	0.054271	-0.997397	0.973140	-0.222673	-0.058436	-0.225265	-0.973381	-0.042242
16684		-0.047274	0.054305	-0.997405	0.973036	-0.223171	-0.058270	-0.225756	-0.973265	-0.042291
16685		-0.047085	0.054310	-0.997413	0.973138	-0.222780	-0.058069	-0.225358	-0.973355	-0.042361
16686		-0.046902	0.054294	-0.997423	0.973084	-0.223059	-0.057900	-0.225627	-0.973292	-0.042371
16687		-0.046652	0.054314	-0.997433	0.973067	-0.223195	-0.057666	-0.225754	-0.973260	-0.042439
16688		-0.046373	0.054269	-0.997449	0.973043	-0.223368	-0.057391	-0.225912	-0.973222	-0.042448
16689		-0.046076	0.054228	-0.997465	0.973131	-0.223063	-0.057079	-0.225593	-0.973294	-0.042493
16690		-0.045821	0.054193	-0.997479	0.973130	-0.223132	-0.056825	-0.225649	-0.973281	-0.042513
16691		-0.045517	0.054186	-0.997493	0.973183	-0.222980	-0.056520	-0.225484	-0.973316	-0.042584
16693		-0.045061	0.054232	-0.997511	0.973161	-0.223182	-0.056095	-0.225669	-0.973267	-0.042720
16694		-0.044824	0.054297	-0.997518	0.973281	-0.222720	-0.055858	-0.225200	-0.973369	-0.042863
16695		-0.044572	0.054342	-0.997527	0.973266	-0.222843	-0.055628	-0.225315	-0.973338	-0.042957
16696		-0.044362	0.054393	-0.997534	0.973357	-0.222497	-0.055419	-0.224963	-0.973415	-0.043073
16697		-0.044145	0.054444	-0.997541	0.973337	-0.222631	-0.055224	-0.225090	-0.973381	-0.043164
16698		-0.043974	0.054530	-0.997543	0.973301	-0.222823	-0.055086	-0.225279	-0.973333	-0.043276
16699		-0.043778	0.054574	-0.997550	0.973266	-0.223018	-0.054913	-0.225469	-0.973285	-0.043352
16700		-0.043623	0.054585	-0.997556	0.973418	-0.222398	-0.054737	-0.224842	-0.973427	-0.043433
16701		-0.043362	0.054685	-0.997562	0.973332	-0.222825	-0.054524	-0.225264	-0.973323	-0.043565
16702		-0.043162	0.054933	-0.997557	0.973289	-0.223045	-0.054394	-0.225488	-0.973259	-0.043839
16703		-0.042986	0.055338	-0.997542	0.973046	-0.224110	-0.054363	-0.226568	-0.972991	-0.044213
16704		-0.042906	0.055526	-0.997535	0.973061	-0.224055	-0.054325	-0.226520	-0.972993	-0.044416
16705		-0.042691	0.055534	-0.997544	0.973096	-0.223957	-0.054113	-0.226412	-0.973016	-0.044479
16706		-0.042345	0.055680	-0.997550	0.973020	-0.224355	-0.053826	-0.226802	-0.972916	-0.044678
16707		-0.042024	0.055809	-0.997557	0.972974	-0.224617	-0.053555	-0.227057	-0.972848	-0.044862
16708		-0.041718	0.055796	-0.997570	0.973226	-0.223605	-0.053207	-0.226031	-0.973081	-0.044974
16709		-0.041351	0.055810	-0.997585	0.973323	-0.223271	-0.052836	-0.225681	-0.973157	-0.045089
16710		-0.041048	0.055804	-0.997598	0.973476	-0.222679	-0.052512	-0.225075	-0.973293	-0.045184
16711		-0.040762	0.055777	-0.997611	0.973513	-0.222587	-0.052222	-0.224968	-0.973316	-0.045226
16712		-0.040445	0.055796	-0.997623	0.973498	-0.222724	-0.051924	-0.225092	-0.973283	-0.045310
16713		-0.040116	0.055849	-0.997633	0.973517	-0.222714	-0.051615	-0.225069	-0.973283	-0.045436
16714		-0.039828	0.055886	-0.997642	0.973676	-0.222084	-0.051312	-0.224428	-0.973425	-0.045569
16715		-0.039553	0.055856	-0.997655	0.973724	-0.221938	-0.051030	-0.224268	-0.973460	-0.045610
16716		-0.039345	0.055888	-0.997662	0.973933	-0.221075	-0.050793	-0.223397	-0.973654	-0.045733
16717		-0.039106	0.055858	-0.997673	0.974008	-0.220802	-0.050540	-0.223111	-0.973718	-0.045772
16718		-0.038863	0.055887	-0.997680	0.974201	-0.220011	-0.050273	-0.222311	-0.973895	-0.045895
16719		-0.038622	0.055974	-0.997685	0.974217	-0.219991	-0.050056	-0.222283	-0.973895	-0.046035
16720		-0.038353	0.056114	-0.997687	0.974235	-0.219963	-0.049823	-0.222250	-0.973893	-0.046232
16721		-0.038134	0.056286	-0.997686	0.974194	-0.220181	-0.049658	-0.222466	-0.973834	-0.046437
16722		-0.037984	0.056398	-0.997686	0.974344	-0.219550	-0.049506	-0.221834	-0.973970	-0.046611
16723		-0.037815	0.056467	-0.997688	0.974331	-0.219644	-0.049361	-0.221923	-0.973945	-0.046712
16724		-0.037631	0.056589	-0.997688	0.974327	-0.219694	-0.049211	-0.221971	-0.973926	-0.046869
16725		-0.037325	0.056801	-0.997688	0.974283	-0.219942	-0.048971	-0.222215	-0.973858	-0.047131
16726		-0.037036	0.057030	-0.997685	0.974393	-0.219512	-0.048719	-0.221782	-0.973942	-0.047440
16727		-0.036688	0.057217	-0.997687	0.974362	-0.219711	-0.048430	-0.221974	-0.973886	-0.047690
16728		-0.036257	0.057269	-0.997700	0.974423	-0.219533	-0.048012	-0.221778	-0.973923	-0.047845
16729		-0.035702	0.057220	-0.997723	0.974401	-0.219748	-0.047470	-0.221964	-0.973877	-0.047910
16730		-0.034943	0.057204	-0.997751	0.974466	-0.219623	-0.046719	-0.221801	-0.973906	-0.048069
16731		-0.034024	0.057222	-0.997782	0.974382	-0.220174	-0.045853	-0.222309	-0.973781	-0.048265
16732		-0.032906	0.057042	-0.997829	0.974530	-0.219758	-0.044700	-0.221831	-0.973885	-0.048358
16733		-0.031598	0.056772	-0.997887	0.974598	-0.219722	-0.043361	-0.221720	-0.973909	-0.048387
16734		-0.030077	0.056484	-0.997950	0.974803	-0.219120	-0.041782	-0.221031	-0.974062	-0.048470
16735		-0.028300	0.056124	-0.998023	0.974869	-0.219163	-0.039968	-0.220973	-0.974073	-0.048511
16736		-0.026308	0.055854	-0.998092	0.975013	-0.218881	-0.037949	-0.220583	-0.974152	-0.048700
16737		-0.024020	0.055667	-0.998160	0.975022	-0.219223	-0.035689	-0.220806	-0.974086	-0.049011
16738		-0.021300	0.055261	-0.998245	0.975155	-0.219062	-0.032934	-0.220497	-0.974145	-0.049222
16739		-0.017910	0.054529	-0.998352	0.975252	-0.219123	-0.029464	-0.220368	-0.974172	-0.049255
16741		-0.009300	0.052451	-0.998580	0.975688	-0.218199	-0.020548	-0.218966	-0.974494	-0.049146
16742		-0.004074	0.051281	-0.998676	0.975670	-0.218714	-0.015210	-0.219204	-0.974441	-0.049142
16743		0.001727	0.050075	-0.998744	0.975813	-0.218410	-0.009263	-0.218599	-0.974572	-0.049241
16744		0.008424	0.048738	-0.998776	0.975801	-0.218645	-0.002439	-0.218496	-0.974587	-0.049400
16745		0.016145	0.047447	-0.998743	0.976044	-0.217504	0.005445	-0.216973	-0.974905	-0.049822
16746		0.025285	0.045728	-0.998634	0.976109	-0.216777	0.014788	-0.215804	-0.975150	-0.050117
16747		0.035698	0.043990	-0.998394	0.976434	-0.214309	0.025471	-0.212844	-0.975775	-0.050603
16748		0.047552	0.042197	-0.997977	0.976262	-0.213324	0.037498	-0.211310	-0.976070	-0.051339
16749		0.060411	0.040799	-0.997339	0.976241	-0.210719	0.050513	-0.208098	-0.976695	-0.052559
16750		0.074480	0.039448	-0.996442	0.975958	-0.208134	0.064709	-0.204840	-0.977305	-0.054001
16751		0.089716	0.039397	-0.995188	0.975819	-0.203447	0.079916	-0.199320	-0.978293	-0.056697
16752		0.106208	0.039910	-0.993543	0.975017	-0.200228	0.096185	-0.195096	-0.978936	-0.060179
16753		0.123321	0.041604	-0.991494	0.974664	-0.192952	0.113132	-0.186604	-0.980326	-0.064345
16755		0.159801	0.044451	-0.986148	0.970667	-0.188865	0.148779	-0.179636	-0.980996	-0.073328
16756		0.178905	0.047020	-0.982742	0.968345	-0.185141	0.167426	-0.174074	-0.981586	-0.078654
16757		0.198189	0.048688	-0.978954	0.964722	-0.186278	0.186043	-0.173299	-0.981290	-0.083888
16758		0.216309	0.050239	-0.975031	0.960762	-0.188557	0.203428	-0.173629	-0.980776	-0.089054
16759		0.232486	0.051643	-0.971228	0.956097	-0.195306	0.218479	-0.178404	-0.979382	-0.094782
16761		0.256799	0.056242	-0.964827	0.947327	-0.212331	0.239764	-0.191378	-0.975578	-0.107806
16763		0.272832	0.061389	-0.960101	0.943579	-0.211749	0.254598	-0.187671	-0.975394	-0.115697
16764		0.277519	0.064323	-0.958564	0.943912	-0.204077	0.259583	-0.178924	-0.976839	-0.117350
16765		0.280935	0.068794	-0.957258	0.944927	-0.194317	0.263351	-0.167895	-0.978524	-0.119595
16766		0.282880	0.071159	-0.956512	0.945611	-0.187688	0.265694	-0.160619	-0.979648	-0.120382
16767		0.283009	0.072788	-0.956351	0.947049	-0.178891	0.266640	-0.151674	-0.981173	-0.119562
16768		0.280826	0.074440	-0.956867	0.948400	-0.174458	0.264769	-0.147224	-0.981847	-0.119591
16769		0.275250	0.075820	-0.958378	0.950463	-0.171220	0.259431	-0.144423	-0.982311	-0.119192
16770		0.266079	0.076998	-0.960871	0.953506	-0.167368	0.250628	-0.141521	-0.982883	-0.117951
16771		0.253138	0.077858	-0.964292	0.957664	-0.161441	0.238363	-0.137118	-0.983806	-0.115428
16772		0.237778	0.077559	-0.968218	0.962287	-0.154431	0.223950	-0.132154	-0.984955	-0.111354
16773		0.221277	0.075118	-0.972314	0.967236	-0.144156	0.208984	-0.124466	-0.986700	-0.104555
16775		0.188287	0.063456	-0.980062	0.976869	-0.115098	0.180221	-0.101367	-0.991325	-0.083660
16776		0.172555	0.056324	-0.983388	0.981080	-0.098806	0.166490	-0.087787	-0.993511	-0.072308
16777		0.156849	0.051040	-0.986303	0.984641	-0.085623	0.152154	-0.076684	-0.995019	-0.063686
16778		0.140736	0.047467	-0.988909	0.987436	-0.079220	0.136724	-0.071851	-0.995726	-0.058020
16779		0.125092	0.040071	-0.991336	0.989883	-0.072477	0.121979	-0.066961	-0.996565	-0.048731
16780		0.114040	0.026703	-0.993117	0.992055	-0.056515	0.112398	-0.053125	-0.998045	-0.032936
16781		0.110360	0.010863	-0.993832	0.992736	-0.049415	0.109698	-0.047919	-0.998719	-0.016238
16782		0.111744	-0.002958	-0.993733	0.991767	-0.062599	0.111709	-0.062537	-0.998034	-0.004061
16783		0.115138	-0.015483	-0.993229	0.989289	-0.088527	0.116061	-0.089725	-0.995953	0.005124
16784		0.119260	-0.026316	-0.992514	0.986427	-0.110501	0.121459	-0.112870	-0.993528	0.012780
16785		0.123295	-0.039072	-0.991601	0.982633	-0.134827	0.127492	-0.138675	-0.990099	0.021770
16786		0.126658	-0.052583	-0.990552	0.978605	-0.156606	0.133444	-0.162143	-0.986260	0.031623
16787		0.129237	-0.068199	-0.989266	0.975740	-0.169046	0.139124	-0.176720	-0.983246	0.044698
16788		0.132402	-0.084535	-0.987585	0.974684	-0.170006	0.145224	-0.180172	-0.981811	0.059885
16789		0.136025	-0.100792	-0.985565	0.975092	-0.162298	0.151177	-0.175193	-0.981580	0.076205
16790		0.139377	-0.116173	-0.983401	0.976602	-0.148125	0.155912	-0.163779	-0.982122	0.092810
16791		0.143707	-0.128376	-0.981258	0.977513	-0.136212	0.160978	-0.154325	-0.982327	0.105915
16792		0.147590	-0.145307	-0.978316	0.978175	-0.124823	0.166108	-0.146253	-0.981481	0.123713
16793		0.152568	-0.162585	-0.974828	0.977493	-0.120595	0.173099	-0.145703	-0.979297	0.140527
16794		0.160262	-0.180127	-0.970500	0.975341	-0.122249	0.183751	-0.151741	-0.976017	0.156094
16795		0.172015	-0.198996	-0.964786	0.971304	-0.129041	0.199793	-0.164255	-0.971467	0.171089
16796		0.187647	-0.219348	-0.957431	0.965446	-0.138273	0.220896	-0.180840	-0.965799	0.185822
16797		0.205296	-0.241467	-0.948445	0.957681	-0.150199	0.245535	-0.201744	-0.958715	0.200413
16798		0.224614	-0.264436	-0.937882	0.947329	-0.166228	0.273745	-0.228290	-0.949969	0.213171
16799		0.244856	-0.287416	-0.925979	0.933997	-0.186369	0.304823	-0.260184	-0.939499	0.222812
16800		0.265465	-0.309065	-0.913240	0.916156	-0.214184	0.338798	-0.300312	-0.926609	0.226294
16801		0.285021	-0.332013	-0.899183	0.904321	-0.217836	0.367083	-0.317751	-0.917777	0.238159
16802		0.306343	-0.338468	-0.889715	0.884477	-0.244339	0.397491	-0.351930	-0.908701	0.224516
16803		0.327149	-0.333769	-0.884066	0.852773	-0.298788	0.428373	-0.407126	-0.894049	0.186881
16804		0.349426	-0.318719	-0.881090	0.838510	-0.313239	0.445849	-0.418093	-0.894594	0.157795
16806		0.376812	-0.283864	-0.881722	0.839110	-0.298543	0.454715	-0.392309	-0.911204	0.125699
16807		0.382244	-0.278706	-0.881029	0.851135	-0.265051	0.453120	-0.359805	-0.923077	0.135903
16808		0.388306	-0.269440	-0.881261	0.861661	-0.232910	0.450880	-0.326739	-0.934428	0.141726
16809		0.392190	-0.266162	-0.880537	0.873422	-0.192625	0.447246	-0.288653	-0.944486	0.156926
16810		0.391066	-0.266597	-0.880905	0.884076	-0.157294	0.440078	-0.255885	-0.950886	0.174179
16811		0.379996	-0.287033	-0.879326	0.889964	-0.145662	0.432141	-0.252124	-0.946781	0.200098
16812		0.376192	-0.300852	-0.876338	0.874497	-0.197241	0.443115	-0.306162	-0.933051	0.188894
16813		0.376310	-0.293686	-0.878714	0.866124	-0.225245	0.446200	-0.328969	-0.928985	0.169606
16814		0.366136	-0.281466	-0.886973	0.862696	-0.254657	0.436927	-0.348854	-0.925163	0.149581
16815		0.346760	-0.265322	-0.899645	0.873722	-0.257467	0.412700	-0.341127	-0.929147	0.142538
16816		0.320491	-0.250101	-0.913639	0.889482	-0.252221	0.381060	-0.325742	-0.934791	0.141625
16817		0.293860	-0.238677	-0.925570	0.906990	-0.235997	0.348818	-0.301687	-0.941987	0.147127
16818		0.271361	-0.238459	-0.932470	0.923915	-0.206952	0.321795	-0.269712	-0.948846	0.164157
16819		0.248505	-0.250876	-0.935578	0.934783	-0.190987	0.299508	-0.253823	-0.948992	0.187053
16820		0.229677	-0.251263	-0.940274	0.944266	-0.176556	0.277832	-0.235820	-0.951680	0.196708
16821		0.209646	-0.250474	-0.945152	0.950431	-0.174808	0.257143	-0.229628	-0.952211	0.201410
16822		0.189328	-0.248131	-0.950045	0.954992	-0.178479	0.236928	-0.228352	-0.952143	0.203172
16823		0.173571	-0.245179	-0.953814	0.955199	-0.193842	0.223651	-0.239723	-0.949901	0.200549
16824		0.167088	-0.238033	-0.956777	0.950207	-0.220019	0.220679	-0.263037	-0.946009	0.189418
16825		0.171252	-0.217316	-0.960961	0.946523	-0.234409	0.221689	-0.273434	-0.947537	0.165552
16826		0.177574	-0.193789	-0.964838	0.947160	-0.232469	0.221012	-0.267125	-0.953102	0.142269
16827		0.185217	-0.171435	-0.967628	0.950785	-0.217636	0.220551	-0.248401	-0.960856	0.122688
16828		0.193558	-0.152439	-0.969174	0.953432	-0.203676	0.222450	-0.231308	-0.967098	0.105917
16829		0.200177	-0.138159	-0.969970	0.954011	-0.197990	0.225085	-0.223142	-0.970418	0.092172
16830		0.203523	-0.125209	-0.971031	0.953188	-0.201196	0.225727	-0.223631	-0.971516	0.078400
16831		0.204214	-0.110024	-0.972724	0.950873	-0.213880	0.223819	-0.232672	-0.970644	0.060942
16832		0.203580	-0.089561	-0.974953	0.947813	-0.231537	0.219182	-0.245368	-0.968695	0.037751
16833		0.200995	-0.066282	-0.977347	0.946796	-0.242856	0.211182	-0.251353	-0.967795	0.013943
16834		0.193473	-0.047257	-0.979967	0.949817	-0.241216	0.199153	-0.245795	-0.969320	-0.001784
16835		0.183138	-0.028556	-0.982672	0.954210	-0.235330	0.184672	-0.236525	-0.971496	-0.015850
16836		0.172841	-0.007891	-0.984918	0.957968	-0.231105	0.169963	-0.228961	-0.972897	-0.032385
16837		0.164480	0.012373	-0.986303	0.961526	-0.225062	0.157525	-0.220030	-0.974266	-0.048915
16838		0.158845	0.028954	-0.986879	0.964489	-0.218192	0.148839	-0.211019	-0.975476	-0.062585
16839		0.156429	0.042807	-0.986761	0.966480	-0.212563	0.143993	-0.203585	-0.976209	-0.074623
16840		0.156271	0.054210	-0.986225	0.967903	-0.207385	0.141969	-0.196832	-0.976756	-0.084879
16841		0.157821	0.063639	-0.985415	0.969363	-0.200200	0.142321	-0.188223	-0.977686	-0.093285
16842		0.163150	0.070982	-0.984045	0.970052	-0.193458	0.146875	-0.179946	-0.978537	-0.100419
16843		0.179541	0.072604	-0.981068	0.966256	-0.200256	0.162010	-0.184702	-0.977050	-0.106108
16844		0.207535	0.065744	-0.976016	0.956463	-0.222934	0.188361	-0.205204	-0.972614	-0.109148
16845		0.241238	0.068481	-0.968047	0.947240	-0.233544	0.219531	-0.211048	-0.969932	-0.121208
16846		0.265066	0.052105	-0.962822	0.936396	-0.252101	0.244148	-0.230007	-0.966297	-0.115614
16847		0.274547	0.036691	-0.960873	0.924694	-0.284168	0.253358	-0.263754	-0.958072	-0.111946
16848		0.287369	0.055250	-0.956225	0.931007	-0.250677	0.265306	-0.225045	-0.966493	-0.123475
16849		0.288211	0.073927	-0.954709	0.917635	-0.306237	0.253306	-0.273641	-0.949080	-0.156099
16850		0.285357	0.098995	-0.953295	0.904582	-0.356498	0.233754	-0.316708	-0.929037	-0.191278
16851		0.280171	0.091526	-0.955577	0.904064	-0.359849	0.230601	-0.322758	-0.928510	-0.183565
16852		0.284199	0.085594	-0.954937	0.898215	-0.372118	0.233964	-0.335323	-0.924230	-0.182637
16853		0.291342	0.073317	-0.953805	0.910569	-0.326880	0.253009	-0.293230	-0.942218	-0.161994
16854		0.291289	0.060392	-0.954727	0.919877	-0.291677	0.262205	-0.262637	-0.954609	-0.140515
16855		0.280565	0.051698	-0.958442	0.928211	-0.268821	0.257216	-0.244352	-0.961802	-0.123408
16856		0.264261	0.051254	-0.963088	0.939164	-0.240843	0.244880	-0.219402	-0.969210	-0.111781
16857		0.243704	0.053801	-0.968356	0.947580	-0.225946	0.225922	-0.206642	-0.972653	-0.106045
16858		0.223480	0.055032	-0.973154	0.953870	-0.217691	0.206741	-0.200469	-0.974465	-0.101143
16859		0.204908	0.051760	-0.977412	0.956848	-0.220808	0.188904	-0.206043	-0.973943	-0.094772
16860		0.186141	0.047289	-0.981384	0.957648	-0.232067	0.170457	-0.219686	-0.971550	-0.088483
16861		0.167267	0.037988	-0.985179	0.960132	-0.233293	0.154019	-0.223984	-0.971664	-0.075496
16863		0.143520	0.011543	-0.989580	0.967215	-0.213331	0.137787	-0.209517	-0.976912	-0.041782
16864		0.141921	0.000767	-0.989878	0.964481	-0.225174	0.138105	-0.222789	-0.974318	-0.032697
16865		0.146067	-0.010551	-0.989218	0.958730	-0.245047	0.144179	-0.243927	-0.969454	-0.025678
16866		0.154256	-0.023764	-0.987745	0.952251	-0.263021	0.155040	-0.263482	-0.964497	-0.017943
16867		0.163968	-0.041239	-0.985603	0.943803	-0.284094	0.168901	-0.286969	-0.957909	-0.007661
16868		0.175584	-0.056115	-0.982864	0.935423	-0.301672	0.184332	-0.306846	-0.951759	-0.000477
16869		0.187484	-0.070020	-0.979769	0.930100	-0.308084	0.199997	-0.315855	-0.948779	0.007365
16870		0.198524	-0.087980	-0.976139	0.929396	-0.299282	0.215992	-0.311144	-0.950100	0.022354
16871		0.210599	-0.106064	-0.971802	0.933529	-0.273209	0.232123	-0.290125	-0.956089	0.041476
16872		0.222508	-0.123798	-0.967039	0.940037	-0.235755	0.246476	-0.258498	-0.963895	0.063918
16873		0.233363	-0.143140	-0.961796	0.946709	-0.192371	0.258332	-0.222000	-0.970827	0.090620
16874		0.242455	-0.163361	-0.956310	0.951697	-0.151358	0.267141	-0.188385	-0.974887	0.118773
16875		0.248961	-0.186691	-0.950350	0.956059	-0.109485	0.271964	-0.154822	-0.976299	0.151230
16876		0.252883	-0.213778	-0.943583	0.959265	-0.071554	0.273297	-0.125942	-0.974258	0.186975
16877		0.254875	-0.241349	-0.936370	0.960852	-0.045579	0.273287	-0.108636	-0.969367	0.220284
16878		0.256211	-0.268105	-0.928696	0.960600	-0.036452	0.275535	-0.107725	-0.962700	0.248203
16879		0.258302	-0.292887	-0.920596	0.958704	-0.039689	0.281621	-0.119021	-0.955323	0.270541
16880		0.261052	-0.318473	-0.911278	0.955627	-0.048218	0.290608	-0.136490	-0.946705	0.291754
16881		0.264294	-0.346145	-0.900185	0.950721	-0.063379	0.303502	-0.162109	-0.936038	0.312337
16882		0.267583	-0.374270	-0.887875	0.941991	-0.092152	0.322738	-0.202611	-0.922730	0.327900
16883		0.271091	-0.399964	-0.875522	0.926092	-0.139597	0.350522	-0.262417	-0.905837	0.332560
16884		0.277507	-0.415376	-0.866287	0.899766	-0.203707	0.385907	-0.336765	-0.886547	0.317211
16885		0.292938	-0.419032	-0.859418	0.850756	-0.295974	0.434296	-0.436350	-0.858377	0.269792
16886		0.322717	-0.420748	-0.847835	0.796168	-0.363723	0.483552	-0.511831	-0.831070	0.217606
16887		0.359237	-0.413515	-0.836632	0.765903	-0.381593	0.517474	-0.533236	-0.826675	0.179630
16888		0.392738	-0.393822	-0.831060	0.741573	-0.398832	0.539447	-0.543899	-0.828153	0.135411
16889		0.393807	-0.401458	-0.826890	0.740980	-0.393681	0.544026	-0.543935	-0.826950	0.142438
16890		0.398006	-0.397313	-0.826882	0.763829	-0.355689	0.538564	-0.508091	-0.845948	0.161913
16891		0.408276	-0.380682	-0.829694	0.779680	-0.327292	0.533834	-0.474773	-0.864847	0.163185
16892		0.410117	-0.376926	-0.830500	0.804974	-0.278475	0.523898	-0.428744	-0.883390	0.189208
16893		0.413113	-0.367210	-0.833363	0.822478	-0.242437	0.514543	-0.390984	-0.897987	0.201868
16894		0.411118	-0.366352	-0.834727	0.841112	-0.200577	0.502294	-0.351443	-0.908601	0.225683
16895		0.402097	-0.371016	-0.837057	0.853003	-0.180426	0.489728	-0.332724	-0.910930	0.243929
16896		0.393295	-0.372961	-0.840368	0.851702	-0.196478	0.485798	-0.346297	-0.906806	0.240378
16897		0.387995	-0.362875	-0.847220	0.843852	-0.229799	0.484878	-0.370641	-0.903058	0.217052
16898		0.379396	-0.346200	-0.858024	0.843494	-0.251685	0.474523	-0.380231	-0.903770	0.196529
16899		0.363873	-0.327989	-0.871791	0.850347	-0.265006	0.454624	-0.380141	-0.906750	0.182476
16900		0.341178	-0.316886	-0.884975	0.861192	-0.271971	0.429395	-0.376757	-0.908634	0.180109
16901		0.316018	-0.313341	-0.895517	0.873642	-0.271972	0.403461	-0.369976	-0.909862	0.187800
16902		0.290641	-0.315267	-0.903402	0.884655	-0.271204	0.379254	-0.364572	-0.909426	0.200080
16903		0.267219	-0.318353	-0.909530	0.896524	-0.263939	0.355782	-0.353325	-0.910488	0.214882
16904		0.246693	-0.316011	-0.916122	0.906026	-0.260250	0.333746	-0.343888	-0.912364	0.222112
16905		0.227322	-0.307830	-0.923886	0.913214	-0.262079	0.312018	-0.338180	-0.914634	0.221539
16906		0.206711	-0.296465	-0.932405	0.920688	-0.263525	0.287903	-0.331065	-0.917967	0.218478
16907		0.184951	-0.289215	-0.939227	0.927240	-0.265293	0.264282	-0.325604	-0.919769	0.219106
16908		0.168450	-0.282156	-0.944464	0.931826	-0.266875	0.245924	-0.321443	-0.921502	0.217965
16909		0.161217	-0.273772	-0.948187	0.935493	-0.263697	0.235196	-0.314424	-0.924939	0.213600
16910		0.162754	-0.258916	-0.952089	0.939610	-0.253773	0.229634	-0.301070	-0.931967	0.201978
16911		0.168794	-0.237739	-0.956550	0.948033	-0.226396	0.223559	-0.269707	-0.944577	0.187170
16912		0.174785	-0.215416	-0.960753	0.958954	-0.184043	0.215723	-0.223290	-0.959023	0.174406
16913		0.181100	-0.195066	-0.963925	0.967610	-0.139939	0.210112	-0.175877	-0.970756	0.163405
16914		0.188479	-0.177174	-0.965963	0.972404	-0.104040	0.208818	-0.137496	-0.978665	0.152675
16915		0.195972	-0.162931	-0.966979	0.974490	-0.077634	0.210575	-0.109379	-0.983578	0.143561
16916		0.204391	-0.146811	-0.967818	0.974656	-0.061325	0.215138	-0.090936	-0.987262	0.130556
16917		0.211826	-0.128327	-0.968846	0.973657	-0.057896	0.220546	-0.084394	-0.990041	0.112683
16918		0.217582	-0.109222	-0.969912	0.972477	-0.060601	0.224981	-0.083351	-0.992168	0.093030
16919		0.221015	-0.087815	-0.971309	0.971359	-0.069288	0.227290	-0.087259	-0.993724	0.069987
16920		0.222002	-0.069427	-0.972571	0.969813	-0.087479	0.227617	-0.100882	-0.993744	0.047910
16921		0.221548	-0.054010	-0.973652	0.967010	-0.116567	0.226503	-0.125730	-0.991713	0.026403
16922		0.219600	-0.037380	-0.974874	0.963850	-0.146241	0.222724	-0.150892	-0.988543	0.003914
16923		0.214560	-0.022132	-0.976460	0.960359	-0.177392	0.215043	-0.177975	-0.983891	-0.016807
16924		0.206626	-0.009623	-0.978373	0.956573	-0.208143	0.204070	-0.205605	-0.978051	-0.033802
16925		0.196095	-0.001263	-0.980584	0.953368	-0.233722	0.190954	-0.229426	-0.972303	-0.044627
16926		0.182731	0.006691	-0.983140	0.950888	-0.255319	0.174998	-0.249844	-0.966834	-0.053017
16927		0.166560	0.011124	-0.985969	0.951825	-0.262908	0.157826	-0.257463	-0.964757	-0.054378
16928		0.154013	0.015500	-0.987947	0.954543	-0.260587	0.144717	-0.255203	-0.965326	-0.054930
16929		0.156145	0.031156	-0.987243	0.955560	-0.257794	0.142998	-0.250050	-0.965698	-0.070025
16930		0.184966	0.070731	-0.980196	0.960027	-0.226223	0.164835	-0.210085	-0.971504	-0.109747
16931		0.199330	0.066059	-0.977703	0.962171	-0.202293	0.182496	-0.185727	-0.977095	-0.103883
16932		0.205198	0.071120	-0.976133	0.970414	-0.144450	0.193472	-0.127243	-0.986953	-0.098657
16933		0.204557	0.066085	-0.976621	0.969091	-0.154239	0.192543	-0.137909	-0.985821	-0.095593
16934		0.201501	0.053427	-0.978030	0.964241	-0.186319	0.188482	-0.172156	-0.981036	-0.089060
16935		0.203447	0.057778	-0.977380	0.960695	-0.204357	0.187893	-0.188878	-0.977190	-0.097082
16936		0.206536	0.058229	-0.976705	0.952865	-0.238704	0.187264	-0.222239	-0.969345	-0.104785
16937		0.209153	0.058955	-0.976104	0.947674	-0.258409	0.187454	-0.241183	-0.964235	-0.109917
16938		0.211471	0.057219	-0.975708	0.944827	-0.267481	0.189091	-0.250163	-0.961863	-0.110627
16939		0.214527	0.052617	-0.975300	0.942763	-0.272158	0.192687	-0.255297	-0.960813	-0.107991
16940		0.218446	0.047269	-0.974704	0.941223	-0.273917	0.197658	-0.257644	-0.960591	-0.104327
16941		0.222480	0.042341	-0.974017	0.940449	-0.272695	0.202959	-0.257016	-0.961168	-0.100489
16942		0.226108	0.037955	-0.973363	0.940563	-0.268457	0.208020	-0.253410	-0.962544	-0.096399
16943		0.229839	0.036519	-0.972543	0.940765	-0.264285	0.212404	-0.249272	-0.963753	-0.095099
16944		0.234578	0.036728	-0.971403	0.940420	-0.261594	0.217205	-0.246136	-0.964479	-0.095904
16945		0.241194	0.037765	-0.969742	0.939038	-0.261359	0.223380	-0.245015	-0.964502	-0.098501
16946		0.249278	0.037653	-0.967700	0.936941	-0.262124	0.231156	-0.244953	-0.964299	-0.100621
16947		0.257992	0.035132	-0.965508	0.933983	-0.264778	0.239934	-0.247216	-0.963669	-0.101123
16948		0.266185	0.031265	-0.963415	0.929974	-0.271243	0.248143	-0.253561	-0.962003	-0.101276
16949		0.273752	0.026667	-0.961430	0.924456	-0.283139	0.255371	-0.265408	-0.958708	-0.102162
16950		0.282354	0.024748	-0.958991	0.917046	-0.300417	0.262252	-0.281607	-0.953487	-0.107519
16951		0.292196	0.024810	-0.956036	0.908770	-0.318615	0.269482	-0.297922	-0.947559	-0.115645
16952		0.303563	0.026885	-0.952432	0.900413	-0.335015	0.277527	-0.311617	-0.941829	-0.125906
16953		0.316427	0.029444	-0.948160	0.891835	-0.349852	0.286765	-0.323272	-0.936342	-0.136962
16954		0.330487	0.030700	-0.943311	0.884304	-0.359349	0.298119	-0.329826	-0.932698	-0.145908
16955		0.344273	0.028684	-0.938431	0.877553	-0.365126	0.310779	-0.333731	-0.930516	-0.150875
16956		0.357206	0.024169	-0.933713	0.871821	-0.367341	0.324020	-0.335160	-0.929772	-0.152287
16957		0.368628	0.019106	-0.929381	0.866972	-0.367766	0.336314	-0.335369	-0.929722	-0.152133
16958		0.379059	0.018037	-0.925197	0.863366	-0.366719	0.346578	-0.333036	-0.930157	-0.154580
16959		0.387641	0.020015	-0.921593	0.862285	-0.361313	0.354848	-0.325882	-0.932230	-0.157318
16960		0.393686	0.024285	-0.918924	0.864281	-0.350263	0.361019	-0.313097	-0.936337	-0.158883
16961		0.397259	0.031917	-0.917151	0.869045	-0.334198	0.364792	-0.294867	-0.941962	-0.160501
16962		0.396719	0.040168	-0.917061	0.876163	-0.314534	0.365249	-0.273776	-0.948396	-0.159976
16963		0.392052	0.048858	-0.918644	0.882908	-0.300469	0.360821	-0.258395	-0.952539	-0.160937
16964		0.382788	0.056183	-0.922126	0.889798	-0.290867	0.351647	-0.248459	-0.955113	-0.161332
16965		0.369229	0.062028	-0.927266	0.897739	-0.281779	0.338622	-0.240280	-0.957472	-0.159726
16966		0.351518	0.065250	-0.933904	0.906502	-0.272916	0.322136	-0.233858	-0.959823	-0.155084
16967		0.329477	0.066344	-0.941830	0.915820	-0.265038	0.301708	-0.229604	-0.961953	-0.148083
16968		0.303049	0.064796	-0.950769	0.925378	-0.258369	0.277348	-0.227678	-0.963871	-0.138260
16969		0.272512	0.061985	-0.960154	0.935295	-0.251204	0.249240	-0.225746	-0.965947	-0.126430
16970		0.238384	0.058101	-0.969432	0.945229	-0.243056	0.217865	-0.222968	-0.968271	-0.112859
16971		0.202229	0.053364	-0.977883	0.954923	-0.232314	0.184804	-0.217314	-0.971176	-0.097939
16972		0.164106	0.048571	-0.985246	0.963626	-0.221468	0.149587	-0.210935	-0.973957	-0.083148
16973		0.126552	0.046083	-0.990889	0.967793	-0.224889	0.113144	-0.217626	-0.973294	-0.073059
16974		0.091355	0.045417	-0.994782	0.972735	-0.217913	0.079381	-0.213171	-0.974911	-0.064086
16975		0.060950	0.037143	-0.997450	0.979837	-0.192723	0.052697	-0.190274	-0.980550	-0.048140
16976		0.044484	0.024951	-0.998698	0.985000	-0.167928	0.039678	-0.166719	-0.985483	-0.032047
16977		0.047256	0.017960	-0.998721	0.987150	-0.153632	0.043946	-0.152646	-0.987965	-0.024989
16978		0.065651	0.013757	-0.997748	0.988470	-0.137622	0.063143	-0.136444	-0.990389	-0.022633
16979		0.095458	0.010557	-0.995378	0.986865	-0.131920	0.093242	-0.130326	-0.991204	-0.023011
16980		0.132299	0.008458	-0.991174	0.984016	-0.121378	0.130308	-0.119205	-0.992570	-0.024381
16981		0.172803	0.006487	-0.984935	0.979346	-0.107711	0.171113	-0.104978	-0.994161	-0.024966
16982		0.214711	0.003270	-0.976672	0.972288	-0.095424	0.213428	-0.092500	-0.995431	-0.023668
16983		0.256632	-0.000849	-0.966509	0.963000	-0.084907	0.255775	-0.082280	-0.996389	-0.020972
16984		0.297139	-0.006062	-0.954815	0.952178	-0.072652	0.296779	-0.071169	-0.997339	-0.015815
16985		0.335039	-0.011659	-0.942132	0.940030	-0.063759	0.335081	-0.063976	-0.997897	-0.010402
16986		0.368909	-0.016202	-0.929324	0.927234	-0.062832	0.369175	-0.064373	-0.997893	-0.008156
16987		0.397365	-0.020702	-0.917427	0.914996	-0.067191	0.397828	-0.069879	-0.997525	-0.007757
16988		0.418015	-0.029026	-0.907976	0.904631	-0.078134	0.418972	-0.083105	-0.996520	-0.006403
16989		0.430878	-0.038717	-0.901579	0.896243	-0.098246	0.432547	-0.105323	-0.994409	-0.007632
16990		0.437645	-0.047219	-0.897907	0.889796	-0.120911	0.440050	-0.129345	-0.991540	-0.010901
16991		0.440867	-0.053659	-0.895967	0.883840	-0.147989	0.443763	-0.156405	-0.987532	-0.017818
16992		0.441906	-0.058236	-0.895169	0.877424	-0.179596	0.444829	-0.186674	-0.982015	-0.028267
16993		0.442601	-0.060744	-0.894659	0.870926	-0.208451	0.445013	-0.213524	-0.976145	-0.039357
16994		0.443075	-0.062495	-0.894304	0.865207	-0.231395	0.444830	-0.234736	-0.970851	-0.048454
16995		0.443875	-0.063207	-0.893857	0.859103	-0.253610	0.444550	-0.254790	-0.965239	-0.058270
16996		0.446181	-0.067128	-0.892422	0.851826	-0.273933	0.446490	-0.274436	-0.959403	-0.065043
16997		0.455416	-0.057639	-0.888411	0.836608	-0.313535	0.449203	-0.304440	-0.947826	-0.094568
16998		0.475193	-0.046744	-0.878639	0.821676	-0.333589	0.462133	-0.314706	-0.941559	-0.120110
16999		0.497698	-0.043213	-0.866273	0.815160	-0.317919	0.484191	-0.296328	-0.947132	-0.123002
17000		0.514322	-0.041996	-0.856568	0.808154	-0.310500	0.500476	-0.286982	-0.949645	-0.125758
17001		0.531826	-0.041019	-0.845860	0.794522	-0.321509	0.515138	-0.293082	-0.946018	-0.138396
17002		0.545353	-0.049776	-0.836727	0.778707	-0.339300	0.527722	-0.310170	-0.939360	-0.146277
17003		0.562105	-0.052633	-0.825390	0.763459	-0.350778	0.542297	-0.318071	-0.934978	-0.156991
17004		0.577704	-0.059447	-0.814079	0.743920	-0.372104	0.555088	-0.335920	-0.926286	-0.170742
17006		0.607902	-0.063304	-0.791484	0.712754	-0.395778	0.579087	-0.349911	-0.916162	-0.195474
17007		0.620016	-0.061119	-0.782205	0.704292	-0.396001	0.589200	-0.345765	-0.916214	-0.202481
17009		0.634734	-0.058379	-0.770523	0.695083	-0.392506	0.602327	-0.337598	-0.917895	-0.208558
17010		0.639236	-0.059365	-0.766716	0.693185	-0.387217	0.607912	-0.332974	-0.920075	-0.206373
17012		0.646023	-0.061708	-0.760820	0.690781	-0.376817	0.617115	-0.324771	-0.924230	-0.200806
17013		0.649055	-0.061151	-0.758280	0.689041	-0.375187	0.620046	-0.322413	-0.924930	-0.201382
17014		0.651932	-0.060222	-0.755882	0.685341	-0.379780	0.621349	-0.324488	-0.923115	-0.206318
17015		0.655332	-0.058917	-0.753040	0.679884	-0.388342	0.622052	-0.329087	-0.919630	-0.214436
17016		0.659296	-0.057114	-0.749712	0.672923	-0.399992	0.622239	-0.335417	-0.914737	-0.225280
17017		0.663359	-0.055623	-0.746231	0.665986	-0.410821	0.622647	-0.341201	-0.910018	-0.235478
17018		0.666733	-0.054343	-0.743313	0.659794	-0.420789	0.622582	-0.346611	-0.905530	-0.244698
17019		0.668401	-0.053370	-0.741884	0.655997	-0.427824	0.621799	-0.350581	-0.902285	-0.250948
17020		0.667888	-0.052940	-0.742376	0.656736	-0.427389	0.621319	-0.350176	-0.902516	-0.250681
17021		0.665632	-0.051267	-0.744517	0.661112	-0.422316	0.620145	-0.346215	-0.904998	-0.247214
17022		0.661337	-0.048390	-0.748526	0.668908	-0.413497	0.617724	-0.339405	-0.909219	-0.241092
17023		0.655398	-0.043861	-0.754009	0.679898	-0.400505	0.614276	-0.328927	-0.915244	-0.232669
17024		0.647994	-0.039083	-0.760642	0.692579	-0.385315	0.609808	-0.316920	-0.921957	-0.222614
17025		0.640024	-0.033683	-0.767616	0.705940	-0.368639	0.604775	-0.303344	-0.928962	-0.212160
17026		0.632345	-0.026294	-0.774240	0.719399	-0.350856	0.599470	-0.287410	-0.936060	-0.202946
17027		0.624883	-0.017448	-0.780524	0.732654	-0.332263	0.593986	-0.269703	-0.943025	-0.194842
17028		0.617182	-0.007603	-0.786784	0.746298	-0.311110	0.588429	-0.249250	-0.950343	-0.186338
17029		0.608727	0.001568	-0.793378	0.760944	-0.284162	0.583280	-0.224533	-0.958775	-0.174170
17030		0.598978	0.009649	-0.800707	0.777211	-0.247744	0.578417	-0.192789	-0.968778	-0.155892
17031		0.587098	0.016368	-0.809351	0.794680	-0.202188	0.572367	-0.154272	-0.979210	-0.131712
17032		0.572475	0.026417	-0.819497	0.810988	-0.165389	0.561200	-0.120711	-0.985875	-0.116105
17033		0.559391	0.028443	-0.828416	0.821171	-0.155210	0.549170	-0.112959	-0.987472	-0.110179
17034		0.551599	0.029745	-0.833579	0.828036	-0.139905	0.542939	-0.100472	-0.989718	-0.101801
17035		0.545077	0.034821	-0.837662	0.832140	-0.144200	0.535489	-0.102145	-0.988936	-0.107576
17036		0.533591	0.041304	-0.844733	0.841168	-0.129657	0.525000	-0.087841	-0.990698	-0.103928
17037		0.510759	0.025197	-0.859355	0.855412	-0.114884	0.505047	-0.086001	-0.993059	-0.080232
17038		0.476581	0.020639	-0.878888	0.874869	-0.109446	0.471832	-0.086453	-0.993778	-0.070217
17039		0.435978	0.022472	-0.899677	0.891457	-0.147859	0.428301	-0.123401	-0.988753	-0.084496
17040		0.387376	0.015162	-0.921797	0.907502	-0.182421	0.378368	-0.162419	-0.983104	-0.084425
17041		0.332029	0.007808	-0.943237	0.923163	-0.208051	0.323241	-0.193717	-0.978087	-0.076287
17042		0.272124	0.004392	-0.962252	0.938410	-0.222478	0.264366	-0.212919	-0.974928	-0.064663
17043		0.209703	0.005043	-0.977752	0.952708	-0.225988	0.203166	-0.219936	-0.974117	-0.052195
17044		0.145406	0.007824	-0.989341	0.965513	-0.219404	0.140169	-0.215968	-0.975603	-0.039457
17045		0.080910	0.010382	-0.996667	0.973719	-0.214409	0.076813	-0.212897	-0.976689	-0.027457
17046		0.018272	0.013456	-0.999742	0.976475	-0.215112	0.014952	-0.214856	-0.976497	-0.017070
17047		-0.041142	0.015775	-0.999029	0.976426	-0.211412	-0.043550	-0.211894	-0.977270	-0.006705
17048		-0.097626	0.015512	-0.995102	0.976105	-0.193550	-0.098780	-0.194134	-0.980968	0.003755
17049		-0.150142	0.013416	-0.988573	0.973006	-0.175248	-0.150156	-0.175260	-0.984433	0.013258
17050		-0.197089	0.011182	-0.980322	0.968118	-0.155473	-0.196409	-0.154610	-0.987777	0.019816
17051		-0.236389	0.009731	-0.971610	0.962260	-0.136397	-0.235480	-0.134816	-0.990606	0.022879
17052		-0.266898	0.009663	-0.963676	0.955789	-0.125407	-0.265971	-0.123422	-0.992058	0.024235
17053		-0.287655	0.010827	-0.957673	0.950331	-0.120861	-0.286817	-0.118851	-0.992610	0.024477
17054		-0.298963	0.009824	-0.954214	0.945345	-0.133352	-0.297557	-0.130170	-0.991020	0.030580
17055		-0.301761	0.006697	-0.953360	0.940520	-0.161623	-0.298832	-0.156086	-0.986830	0.042473
17056		-0.298046	0.002008	-0.954550	0.934488	-0.203336	-0.292209	-0.194681	-0.979107	0.058727
17057		-0.287738	-0.002048	-0.957707	0.925506	-0.257732	-0.277512	-0.246264	-0.966214	0.076054
17058		-0.271526	-0.002904	-0.962427	0.913891	-0.314347	-0.256884	-0.301790	-0.949304	0.088007
17059		-0.250045	-0.000591	-0.968234	0.900991	-0.366306	-0.232456	-0.354533	-0.930494	0.092125
17060		-0.220705	0.004794	-0.975329	0.892082	-0.403281	-0.203849	-0.394309	-0.915064	0.084729
17061		-0.179205	0.010587	-0.983755	0.906865	-0.385896	-0.169352	-0.381420	-0.922482	0.059553
17062		-0.131494	0.017206	-0.991168	0.915182	-0.382159	-0.128047	-0.380987	-0.923936	0.034505
17063		-0.096899	0.023810	-0.995009	0.925510	-0.365588	-0.098879	-0.366118	-0.930472	0.013389
17064		-0.079631	0.013084	-0.996739	0.932109	-0.353433	-0.079107	-0.353316	-0.935368	0.015949
17065		-0.064139	-0.009531	-0.997895	0.939609	-0.337441	-0.057170	-0.336186	-0.941298	0.030598
17066		-0.050266	-0.039172	-0.997967	0.946022	-0.322206	-0.035003	-0.320180	-0.945859	0.053253
17067		-0.033728	-0.063489	-0.997412	0.941652	-0.336425	-0.010427	-0.334893	-0.939567	0.071131
17068		-0.013297	-0.076769	-0.996960	0.931538	-0.363310	0.015552	-0.363400	-0.928500	0.076344
17069		0.009508	-0.087346	-0.996133	0.922974	-0.382524	0.042351	-0.384744	-0.919808	0.076981
17070		0.030755	-0.088467	-0.995604	0.913458	-0.401881	0.063928	-0.405770	-0.911408	0.068451
17071		0.045209	-0.080729	-0.995710	0.907492	-0.413371	0.074718	-0.417629	-0.906977	0.054573
17072		0.050996	-0.066599	-0.996476	0.905868	-0.417006	0.074229	-0.420480	-0.906460	0.039064
17073		0.050354	-0.047503	-0.997601	0.904417	-0.421558	0.065724	-0.423669	-0.905556	0.021735
17074		0.048575	-0.022964	-0.998556	0.901454	-0.429527	0.053730	-0.430140	-0.902762	-0.000163
17075		0.045574	-0.001526	-0.998960	0.898451	-0.437093	0.041656	-0.436702	-0.899415	-0.018549
17076		0.039077	0.009387	-0.999192	0.896510	-0.441943	0.030909	-0.441296	-0.896994	-0.025685
17077		0.031957	0.016374	-0.999355	0.894774	-0.446012	0.021305	-0.445375	-0.894877	-0.028905
17078		0.022964	0.017915	-0.999576	0.896061	-0.443752	0.012633	-0.443337	-0.895971	-0.026243
17079		0.011481	0.020150	-0.999731	0.894680	-0.446705	0.001271	-0.446560	-0.894454	-0.023156
17080		-0.004346	0.021405	-0.999761	0.894118	-0.447629	-0.013471	-0.447811	-0.893963	-0.017193
17081		-0.025115	0.022812	-0.999424	0.892799	-0.449268	-0.032690	-0.449755	-0.893106	-0.009084
17082		-0.050031	0.027531	-0.998368	0.888763	-0.454800	-0.057080	-0.455629	-0.890168	-0.001714
17083		-0.079595	0.035497	-0.996195	0.884532	-0.458294	-0.087004	-0.459638	-0.888092	0.005080
17084		-0.113418	0.044958	-0.992530	0.881456	-0.456396	-0.121398	-0.458445	-0.888640	0.012135
17085		-0.152239	0.051014	-0.987026	0.879856	-0.447903	-0.158859	-0.450196	-0.892626	0.023304
17086		-0.193918	0.052573	-0.979608	0.880070	-0.431872	-0.197392	-0.433443	-0.900401	0.037480
17087		-0.235679	0.049303	-0.970580	0.884193	-0.403587	-0.235203	-0.403310	-0.913612	0.051523
17088		-0.274108	0.038792	-0.960916	0.889919	-0.368546	-0.268733	-0.364566	-0.928800	0.066500
17089		-0.299617	0.023639	-0.953767	0.896666	-0.334524	-0.289971	-0.325913	-0.942091	0.079033
17090		-0.298205	0.020271	-0.954287	0.904557	-0.313166	-0.289317	-0.304715	-0.949482	0.075051
17091		-0.276066	0.017963	-0.960971	0.918261	-0.290370	-0.269224	-0.283873	-0.956746	0.063667
17092		-0.241321	0.009265	-0.970401	0.938151	-0.253590	-0.235722	-0.248268	-0.967267	0.052504
17093		-0.198438	-0.001064	-0.980113	0.954045	-0.229310	-0.192911	-0.224544	-0.973353	0.046518
17094		-0.149113	-0.008625	-0.988783	0.963811	-0.224740	-0.143387	-0.220982	-0.974381	0.041825
17095		-0.095000	-0.011090	-0.995415	0.969431	-0.228271	-0.089977	-0.226226	-0.973535	0.032437
17096		-0.037188	-0.010344	-0.999255	0.969805	-0.241558	-0.033591	-0.241031	-0.970331	0.019014
17097		0.022125	-0.007189	-0.999729	0.967568	-0.251540	0.023222	-0.251639	-0.967820	0.001391
17098		0.081919	-0.003069	-0.996634	0.964871	-0.250223	0.080079	-0.249626	-0.968183	-0.017536
17099		0.140099	0.001259	-0.990137	0.960915	-0.241330	0.135658	-0.238779	-0.970442	-0.035020
17100		0.195113	0.004432	-0.980771	0.954918	-0.228985	0.188936	-0.223745	-0.973420	-0.048910
17101		0.246261	0.009418	-0.969158	0.946952	-0.215375	0.238526	-0.206486	-0.976486	-0.061957
17102		0.293374	0.014205	-0.955892	0.936517	-0.205094	0.284380	-0.192008	-0.978639	-0.073472
17103		0.335023	0.016158	-0.942071	0.924579	-0.198157	0.325403	-0.181420	-0.980037	-0.081327
17104		0.370129	0.014852	-0.928862	0.912307	-0.194397	0.360424	-0.175215	-0.980810	-0.085502
17105		0.397095	0.011071	-0.917711	0.901112	-0.194392	0.387568	-0.174105	-0.980862	-0.087168
17106		0.416582	0.007387	-0.909068	0.890611	-0.203956	0.406466	-0.182407	-0.978952	-0.091543
17107		0.430204	0.005167	-0.902717	0.881365	-0.218684	0.418776	-0.195246	-0.975782	-0.098633
17108		0.440312	0.004689	-0.897832	0.873668	-0.232732	0.427246	-0.206951	-0.972530	-0.106571
17109		0.446915	0.007169	-0.894548	0.866974	-0.249954	0.431136	-0.220505	-0.968231	-0.117923
17110		0.450405	0.010431	-0.892763	0.860980	-0.269748	0.431218	-0.236323	-0.962874	-0.130477
17111		0.451277	0.017339	-0.892216	0.852424	-0.304213	0.425239	-0.264050	-0.952446	-0.152064
17112		0.452692	0.032767	-0.891065	0.846369	-0.330256	0.417841	-0.280588	-0.943323	-0.177237
17113		0.458170	0.048623	-0.887534	0.840361	-0.349028	0.414696	-0.289610	-0.935850	-0.200775
17114		0.469211	0.070871	-0.880238	0.835629	-0.357995	0.416609	-0.285595	-0.931030	-0.227197
17115		0.474776	0.050939	-0.878631	0.814818	-0.402779	0.416943	-0.332656	-0.913879	-0.232736
17116		0.492156	0.039884	-0.869593	0.796525	-0.423635	0.431372	-0.351185	-0.904955	-0.240263
17117		0.511340	0.032601	-0.858760	0.783370	-0.428567	0.450180	-0.353360	-0.902921	-0.244682
17118		0.526831	0.032077	-0.849364	0.769131	-0.443330	0.460322	-0.361783	-0.895784	-0.258232
17119		0.540115	0.040360	-0.840623	0.764381	-0.441458	0.469932	-0.352133	-0.896374	-0.269288
17120		0.549757	0.051956	-0.833707	0.762355	-0.439170	0.475337	-0.341442	-0.896901	-0.281046
17121		0.558782	0.065719	-0.826706	0.764808	-0.426292	0.483056	-0.320672	-0.902195	-0.288466
17122		0.566743	0.076766	-0.820311	0.769368	-0.405502	0.493600	-0.294746	-0.910865	-0.288876
17123		0.569920	0.075696	-0.818206	0.772410	-0.389036	0.502030	-0.280310	-0.918107	-0.280188
17124		0.574162	0.063145	-0.816303	0.766504	-0.391884	0.508821	-0.287767	-0.917845	-0.273406
17125		0.583337	0.056816	-0.810241	0.758865	-0.393743	0.518738	-0.289554	-0.917463	-0.272801
17126		0.589438	0.049859	-0.806273	0.751272	-0.400677	0.524451	-0.296907	-0.914862	-0.273632
17127		0.590369	0.048825	-0.805655	0.747270	-0.410305	0.522721	-0.305042	-0.910641	-0.278717
17128		0.585392	0.052240	-0.809066	0.749626	-0.415005	0.515589	-0.308832	-0.908318	-0.282101
17129		0.576986	0.058565	-0.814652	0.756664	-0.413830	0.506166	-0.307483	-0.908469	-0.283088
17130		0.564628	0.063450	-0.822903	0.765704	-0.412400	0.493583	-0.308047	-0.908791	-0.281436
17131		0.549119	0.070107	-0.832799	0.777237	-0.409118	0.478043	-0.307199	-0.909784	-0.279144
17132		0.531234	0.079870	-0.843452	0.791586	-0.401620	0.460536	-0.301964	-0.912317	-0.276578
17133		0.513022	0.090461	-0.853596	0.805968	-0.392915	0.442757	-0.295339	-0.915114	-0.274482
17134		0.496135	0.093525	-0.863193	0.817572	-0.384994	0.428201	-0.292276	-0.918168	-0.267473
17135		0.481165	0.091122	-0.871882	0.827708	-0.374834	0.417612	-0.288757	-0.922603	-0.255779
17136		0.468415	0.089937	-0.878919	0.837979	-0.360454	0.409712	-0.279961	-0.928431	-0.244207
17137		0.457355	0.090909	-0.884625	0.848487	-0.342454	0.403479	-0.266263	-0.935126	-0.233758
17138		0.448457	0.094429	-0.888802	0.859311	-0.319137	0.399670	-0.245909	-0.942993	-0.224263
17139		0.443352	0.099268	-0.890834	0.868100	-0.295089	0.399155	-0.223252	-0.950299	-0.217003
17140		0.440544	0.102377	-0.891874	0.874902	-0.271580	0.400987	-0.201163	-0.956955	-0.209213
17141		0.437693	0.101319	-0.893398	0.878500	-0.259793	0.400932	-0.191476	-0.960334	-0.202718
17142		0.432613	0.092118	-0.896861	0.881123	-0.253903	0.398943	-0.190965	-0.962833	-0.191009
17143		0.426350	0.080218	-0.900995	0.879965	-0.267467	0.392585	-0.209494	-0.960222	-0.184623
17144		0.420544	0.069385	-0.904615	0.878254	-0.281286	0.386714	-0.227623	-0.957112	-0.179230
17145		0.411272	0.062881	-0.909341	0.884943	-0.266657	0.381798	-0.218474	-0.961738	-0.165315
17146		0.387555	0.045372	-0.920729	0.900271	-0.233452	0.367440	-0.198275	-0.971309	-0.131322
17147		0.347012	0.024384	-0.937543	0.917878	-0.214088	0.334165	-0.192569	-0.976510	-0.096673
17148		0.301813	0.031689	-0.952840	0.937590	-0.190941	0.290632	-0.172726	-0.981090	-0.087340
17149		0.250034	0.033440	-0.967659	0.954303	-0.177451	0.240451	-0.163671	-0.983561	-0.076280
17150		0.199066	0.042950	-0.979044	0.969313	-0.155673	0.190258	-0.144239	-0.986875	-0.072621
17151		0.152877	0.053377	-0.986803	0.981145	-0.127682	0.145094	-0.118253	-0.990378	-0.071891
17152		0.111731	0.050320	-0.992464	0.989097	-0.102046	0.106178	-0.095934	-0.993506	-0.061173
17153		0.085919	0.054923	-0.994787	0.992126	-0.096047	0.080386	-0.091131	-0.993860	-0.062743
17154		0.071399	0.047683	-0.996307	0.991754	-0.109971	0.065810	-0.106427	-0.992790	-0.055142
17155		0.066797	0.040569	-0.996941	0.989794	-0.128750	0.061079	-0.125878	-0.990847	-0.048755
17156		0.069078	0.032767	-0.997073	0.986743	-0.149373	0.063453	-0.146857	-0.988238	-0.042651
17157		0.078887	0.024885	-0.996573	0.982046	-0.173780	0.073397	-0.171358	-0.984470	-0.038147
17158		0.098979	0.021028	-0.994867	0.978462	-0.184059	0.093457	-0.181149	-0.982690	-0.038793
17159		0.126205	0.027191	-0.991631	0.973666	-0.194714	0.118580	-0.189860	-0.980483	-0.051049
17160		0.148314	0.029916	-0.988488	0.971724	-0.190104	0.140046	-0.183726	-0.981308	-0.057265
17161		0.161560	0.041299	-0.985998	0.964179	-0.219592	0.148787	-0.210373	-0.974717	-0.075297
17162		0.176563	0.087874	-0.980359	0.957284	-0.247038	0.150264	-0.228981	-0.965013	-0.127738
17163		0.179049	0.082753	-0.980354	0.952354	-0.264653	0.151595	-0.246909	-0.960787	-0.126196
17164		0.186167	0.044128	-0.981527	0.936166	-0.311186	0.163573	-0.298219	-0.949324	-0.099244
17165		0.208502	0.031032	-0.977530	0.922219	-0.339025	0.185942	-0.325637	-0.940265	-0.099306
17166		0.223771	0.013759	-0.974545	0.905214	-0.373563	0.202578	-0.361267	-0.927503	-0.096047
17167		0.234535	0.001197	-0.972107	0.898151	-0.382849	0.216221	-0.371911	-0.923810	-0.090867
17168		0.239906	-0.002897	-0.970792	0.894363	-0.388267	0.222177	-0.377570	-0.921542	-0.090557
17169		0.240981	0.005950	-0.970511	0.898102	-0.380417	0.220670	-0.367886	-0.924796	-0.097017
17170		0.236505	0.017372	-0.971475	0.905279	-0.367082	0.213825	-0.352896	-0.930027	-0.102543
17171		0.228007	0.030572	-0.973179	0.915017	-0.348363	0.203437	-0.332800	-0.936861	-0.107403
17172		0.217143	0.042643	-0.975208	0.925850	-0.325528	0.191918	-0.309274	-0.944570	-0.110167
17173		0.206616	0.051942	-0.977042	0.935021	-0.304597	0.181537	-0.288175	-0.951064	-0.111502
17174		0.196886	0.050745	-0.979112	0.941836	-0.287218	0.174504	-0.272363	-0.956520	-0.104342
17175		0.189771	0.044882	-0.980802	0.946138	-0.275251	0.170468	-0.262316	-0.960324	-0.094699
17176		0.184527	0.040380	-0.981998	0.948239	-0.270052	0.167079	-0.258443	-0.961999	-0.088121
17177		0.178004	0.036714	-0.983345	0.950595	-0.264694	0.162193	-0.254331	-0.963633	-0.082017
17178		0.170793	0.034989	-0.984686	0.952829	-0.260337	0.156017	-0.250892	-0.964884	-0.077802
17179		0.165014	0.035717	-0.985644	0.954872	-0.256014	0.150585	-0.246960	-0.966013	-0.076351
17180		0.161678	0.037336	-0.986137	0.956698	-0.251032	0.147347	-0.242050	-0.967259	-0.076306
17181		0.162707	0.041528	-0.985800	0.956842	-0.250465	0.147376	-0.240788	-0.967235	-0.080488
17182		0.167450	0.046472	-0.984785	0.956454	-0.249885	0.150840	-0.239073	-0.967160	-0.086292
17183		0.174302	0.050024	-0.983421	0.955626	-0.249454	0.156686	-0.237481	-0.967094	-0.091284
17184		0.182060	0.052858	-0.981866	0.955541	-0.245049	0.163987	-0.231937	-0.968069	-0.095121
17185		0.189425	0.054668	-0.980372	0.955918	-0.238414	0.171406	-0.224364	-0.969624	-0.097419
17186		0.196344	0.056341	-0.978915	0.956459	-0.230878	0.178552	-0.215950	-0.971350	-0.099220
17187		0.202705	0.058991	-0.977461	0.956715	-0.224791	0.184837	-0.208821	-0.972620	-0.102004
17188		0.208336	0.062296	-0.976071	0.956543	-0.221147	0.190053	-0.204016	-0.973249	-0.105662
17189		0.212507	0.065867	-0.974937	0.956362	-0.218773	0.193677	-0.200533	-0.973550	-0.109483
17190		0.214765	0.069293	-0.974205	0.956379	-0.217168	0.195389	-0.198028	-0.973672	-0.112910
17191		0.214877	0.072606	-0.973938	0.956701	-0.216134	0.194961	-0.196346	-0.973660	-0.115905
17192		0.212825	0.076015	-0.974129	0.957635	-0.214188	0.192507	-0.194013	-0.973830	-0.118379
17193		0.208542	0.078602	-0.974850	0.959464	-0.209653	0.188346	-0.189576	-0.974611	-0.119137
17194		0.203279	0.079386	-0.975897	0.961562	-0.204097	0.183690	-0.184596	-0.975726	-0.117824
17195		0.196423	0.081714	-0.977108	0.964767	-0.194016	0.177717	-0.175052	-0.977589	-0.116944
17196		0.187643	0.082003	-0.978808	0.968067	-0.184100	0.170160	-0.166245	-0.979481	-0.113929
17197		0.179463	0.081122	-0.980414	0.971232	-0.173180	0.163453	-0.156528	-0.981544	-0.109868
17198		0.173183	0.080199	-0.981619	0.973253	-0.166690	0.158089	-0.150947	-0.982742	-0.106922
17199		0.169530	0.081222	-0.982172	0.974194	-0.164500	0.154549	-0.149015	-0.983027	-0.107014
17200		0.168779	0.083814	-0.982084	0.974330	-0.164785	0.153383	-0.148977	-0.982762	-0.109475
17201		0.169736	0.086698	-0.981669	0.974333	-0.164224	0.153964	-0.147865	-0.982606	-0.112348
17202		0.170950	0.089197	-0.981234	0.974255	-0.163869	0.154838	-0.146982	-0.982441	-0.114914
17203		0.172114	0.090978	-0.980867	0.974475	-0.161416	0.156020	-0.144134	-0.982684	-0.116438
17204		0.173084	0.091182	-0.980677	0.974364	-0.161150	0.156986	-0.143722	-0.982709	-0.116737
17205		0.173705	0.089831	-0.980692	0.972835	-0.170399	0.156705	-0.153032	-0.981272	-0.116990
17206		0.174490	0.088555	-0.980669	0.970115	-0.186008	0.155815	-0.168614	-0.978549	-0.118365
17207		0.175244	0.088101	-0.980575	0.966994	-0.202520	0.154622	-0.184963	-0.975307	-0.120684
17208		0.175829	0.088968	-0.980392	0.964306	-0.215859	0.153355	-0.197983	-0.972363	-0.123747
17209		0.176151	0.089517	-0.980284	0.962489	-0.224437	0.152458	-0.206365	-0.970368	-0.125694
17210		0.176452	0.090166	-0.980171	0.960906	-0.231633	0.151676	-0.213363	-0.968616	-0.127513
17211		0.176732	0.091097	-0.980034	0.959182	-0.239272	0.150730	-0.220764	-0.966670	-0.129665
17212		0.177164	0.094330	-0.979650	0.957156	-0.248176	0.149199	-0.229052	-0.964111	-0.134257
17213		0.175650	0.097663	-0.979596	0.957145	-0.249688	0.146731	-0.230264	-0.963389	-0.137335
17214		0.172826	0.101387	-0.979720	0.958128	-0.247865	0.143367	-0.228302	-0.963475	-0.139980
17215		0.170421	0.105772	-0.979678	0.960700	-0.238921	0.141324	-0.219118	-0.965261	-0.142332
17216		0.168446	0.109742	-0.979583	0.962618	-0.232164	0.139519	-0.212113	-0.966466	-0.144747
17217		0.167765	0.113242	-0.979301	0.964802	-0.222926	0.139503	-0.202514	-0.968236	-0.146656
17218		0.167092	0.116821	-0.978996	0.966590	-0.215176	0.139298	-0.194383	-0.969563	-0.148872
17219		0.165789	0.119502	-0.978894	0.967628	-0.211250	0.138092	-0.190289	-0.970099	-0.150656
17220		0.164198	0.122138	-0.978837	0.968039	-0.210658	0.136101	-0.189577	-0.969900	-0.152824
17221		0.162423	0.123860	-0.978916	0.968723	-0.208641	0.134333	-0.187604	-0.970117	-0.153874
17222		0.160949	0.124695	-0.979054	0.969820	-0.204068	0.133440	-0.183154	-0.970983	-0.153777
17223		0.159859	0.126076	-0.979056	0.970589	-0.200934	0.132601	-0.180007	-0.971458	-0.154489
17224		0.158415	0.125374	-0.979380	0.972576	-0.190891	0.132878	-0.170296	-0.973572	-0.152176
17225		0.156832	0.125070	-0.979674	0.974738	-0.179326	0.133148	-0.159029	-0.975807	-0.150035
17226		0.155471	0.124442	-0.979971	0.976940	-0.166337	0.133867	-0.146347	-0.978185	-0.147433
17227		0.154605	0.123777	-0.980192	0.978525	-0.156089	0.134632	-0.136333	-0.979957	-0.145251
17228		0.154162	0.123097	-0.980347	0.979270	-0.150981	0.135035	-0.131391	-0.980842	-0.143821
17229		0.153971	0.122612	-0.980438	0.979047	-0.152763	0.134649	-0.133265	-0.980627	-0.143564
17230		0.153960	0.121998	-0.980517	0.978275	-0.158252	0.133918	-0.138831	-0.979833	-0.143712
17231		0.154005	0.121143	-0.980615	0.976998	-0.166826	0.132828	-0.147501	-0.978516	-0.144049
17232		0.154554	0.120669	-0.980588	0.975184	-0.177878	0.131813	-0.158520	-0.976626	-0.145167
17233		0.155762	0.120318	-0.980439	0.973365	-0.187728	0.131601	-0.168222	-0.974824	-0.146355
17234		0.157336	0.119610	-0.980275	0.972020	-0.194077	0.132330	-0.174421	-0.973667	-0.146799
17235		0.159154	0.119227	-0.980028	0.971213	-0.197128	0.133740	-0.177245	-0.973101	-0.147169
17236		0.160521	0.118626	-0.979878	0.970913	-0.197660	0.135123	-0.177653	-0.973067	-0.146904
17237		0.161486	0.118995	-0.979675	0.970551	-0.198957	0.135816	-0.178752	-0.972757	-0.147619
17238		0.162188	0.120469	-0.979379	0.970014	-0.201543	0.135846	-0.181022	-0.972043	-0.149545
17239		0.162999	0.122046	-0.979048	0.969389	-0.204492	0.135900	-0.183622	-0.971230	-0.151642
17240		0.164105	0.123561	-0.978674	0.968643	-0.207806	0.136187	-0.186547	-0.970335	-0.153789
17241		0.165455	0.124627	-0.978311	0.968097	-0.209805	0.137001	-0.188181	-0.969768	-0.155365
17242		0.167001	0.125420	-0.977947	0.967646	-0.211121	0.138166	-0.189137	-0.969380	-0.156619
17243		0.168634	0.125704	-0.977630	0.967292	-0.211782	0.139620	-0.189494	-0.969199	-0.157306
17244		0.170580	0.126453	-0.977196	0.966713	-0.213418	0.141133	-0.190705	-0.968743	-0.158648
17245		0.172841	0.127623	-0.976647	0.966071	-0.215175	0.142851	-0.191919	-0.968200	-0.160484
17246		0.175574	0.128770	-0.976008	0.965340	-0.216991	0.145027	-0.193110	-0.967643	-0.162405
17247		0.179093	0.130270	-0.975169	0.964427	-0.219142	0.147846	-0.194440	-0.966957	-0.164882
17248		0.183106	0.131577	-0.974248	0.963504	-0.220863	0.151258	-0.195273	-0.966389	-0.167216
17249		0.187590	0.133061	-0.973193	0.962299	-0.223562	0.154923	-0.196955	-0.965564	-0.169983
17250		0.192089	0.134591	-0.972104	0.961145	-0.225901	0.158647	-0.198246	-0.964808	-0.172755
17251		0.196482	0.135934	-0.971039	0.959847	-0.228894	0.162175	-0.200220	-0.963914	-0.175450
17252		0.200419	0.136370	-0.970173	0.958633	-0.231601	0.165481	-0.202126	-0.963205	-0.177146
17253		0.204131	0.136811	-0.969337	0.957311	-0.234907	0.168444	-0.204659	-0.962342	-0.178923
17254		0.207416	0.136652	-0.968661	0.956233	-0.237233	0.171288	-0.206392	-0.961793	-0.179877
17255		0.210523	0.136724	-0.967981	0.955210	-0.239421	0.173928	-0.207975	-0.961241	-0.181004
17256		0.213228	0.137064	-0.967340	0.954266	-0.241577	0.176117	-0.209548	-0.960653	-0.182307
17257		0.215540	0.137230	-0.966804	0.953483	-0.243252	0.178043	-0.210744	-0.960207	-0.183277
17258		0.217563	0.137457	-0.966319	0.953059	-0.243519	0.179937	-0.210583	-0.960106	-0.183985
17259		0.219018	0.137023	-0.966052	0.953193	-0.241572	0.181839	-0.208455	-0.960660	-0.183518
17260		0.220017	0.136331	-0.965923	0.953705	-0.238184	0.183617	-0.205034	-0.961604	-0.182424
17261		0.220620	0.135659	-0.965880	0.954260	-0.234888	0.184975	-0.201780	-0.962509	-0.181275
17262		0.220501	0.134670	-0.966045	0.954884	-0.231805	0.185639	-0.198935	-0.963395	-0.179708
17263		0.219761	0.133927	-0.966317	0.955370	-0.229992	0.185395	-0.197416	-0.963933	-0.178493
17264		0.218549	0.133651	-0.966630	0.955505	-0.230411	0.184176	-0.198107	-0.963871	-0.178060
17265		0.217164	0.133563	-0.966954	0.955552	-0.231439	0.182635	-0.199397	-0.963637	-0.177887
17266		0.215868	0.133820	-0.967209	0.955803	-0.231455	0.181299	-0.199604	-0.963598	-0.177869
17267		0.214321	0.133875	-0.967545	0.956598	-0.229007	0.180210	-0.197449	-0.964175	-0.177146
17268		0.212454	0.133770	-0.967972	0.957686	-0.225336	0.179056	-0.194166	-0.965054	-0.175983
17269		0.210249	0.133976	-0.968424	0.958947	-0.221079	0.177607	-0.190303	-0.966010	-0.174957
17270		0.207459	0.134247	-0.968988	0.960260	-0.217007	0.175525	-0.186714	-0.966895	-0.173932
17271		0.204329	0.134545	-0.969612	0.961535	-0.213337	0.173024	-0.183575	-0.967670	-0.172960
17272		0.201426	0.134825	-0.970180	0.962831	-0.209228	0.170824	-0.179958	-0.968528	-0.171958
17273		0.198638	0.134954	-0.970737	0.964283	-0.203991	0.168958	-0.175220	-0.969626	-0.170654
17274		0.195785	0.134693	-0.971353	0.965821	-0.198071	0.167205	-0.169876	-0.970889	-0.168868
17275		0.192948	0.134737	-0.971914	0.967140	-0.193253	0.165210	-0.165565	-0.971854	-0.167597
17276		0.190305	0.135197	-0.972371	0.968246	-0.189413	0.163162	-0.162120	-0.972545	-0.166950
17277		0.187606	0.135504	-0.972853	0.969425	-0.185035	0.161172	-0.158172	-0.973345	-0.166074
17278		0.184989	0.135851	-0.973306	0.970608	-0.180401	0.159296	-0.153945	-0.974166	-0.165230
17279		0.182413	0.136074	-0.973760	0.971750	-0.175798	0.157470	-0.149757	-0.974976	-0.164297
17280		0.179987	0.136314	-0.974178	0.972874	-0.170984	0.155821	-0.145328	-0.975799	-0.163392
17281		0.177797	0.136873	-0.974502	0.973870	-0.166662	0.154273	-0.141297	-0.976468	-0.162928
17282		0.175946	0.137647	-0.974729	0.974879	-0.161744	0.153132	-0.136578	-0.977186	-0.162647
17283		0.174390	0.138446	-0.974895	0.975881	-0.156335	0.152365	-0.131316	-0.977953	-0.162370
17284		0.173249	0.138978	-0.975023	0.976918	-0.149864	0.152224	-0.124965	-0.978890	-0.161733
17285		0.172566	0.139923	-0.975009	0.977861	-0.143282	0.152509	-0.118361	-0.979741	-0.161550
17286		0.172296	0.140950	-0.974909	0.978791	-0.135845	0.153342	-0.110823	-0.980652	-0.161366
17287		0.172247	0.142273	-0.974725	0.979629	-0.128442	0.154366	-0.103234	-0.981459	-0.161499
17288		0.172255	0.143397	-0.974559	0.980398	-0.121019	0.155480	-0.095645	-0.982238	-0.161432
17290		0.172049	0.145533	-0.974279	0.981813	-0.105924	0.157557	-0.080270	-0.983667	-0.161110
17292		0.172046	0.147761	-0.973944	0.982710	-0.094420	0.159270	-0.068426	-0.984506	-0.161451
17293		0.172662	0.148819	-0.973674	0.982975	-0.089094	0.160694	-0.062834	-0.984843	-0.161669
17294		0.173724	0.150125	-0.973284	0.983125	-0.083953	0.162531	-0.057310	-0.985096	-0.162176
17295		0.174949	0.151527	-0.972848	0.983177	-0.079561	0.164415	-0.052487	-0.985246	-0.162897
17296		0.176359	0.153168	-0.972336	0.983079	-0.077117	0.166160	-0.049533	-0.985187	-0.164176
17297		0.177879	0.154544	-0.971841	0.982878	-0.076129	0.167793	-0.048054	-0.985049	-0.165439
17298		0.179509	0.155457	-0.971396	0.982691	-0.074280	0.169709	-0.045772	-0.985046	-0.166100
17299		0.181184	0.156234	-0.970960	0.982472	-0.072764	0.171624	-0.043838	-0.985036	-0.166679
17300		0.182909	0.157047	-0.970505	0.982229	-0.071441	0.173558	-0.042077	-0.985004	-0.167324
17301		0.184386	0.158008	-0.970070	0.982063	-0.069209	0.175392	-0.039424	-0.985009	-0.167935
17302		0.185365	0.158820	-0.969751	0.981997	-0.066447	0.176823	-0.036354	-0.985069	-0.168278
17303		0.185980	0.159798	-0.969472	0.981981	-0.063901	0.177847	-0.033531	-0.985079	-0.168803
17304		0.186239	0.160422	-0.969319	0.982096	-0.058838	0.178956	-0.028324	-0.985293	-0.168508
17305		0.186261	0.161005	-0.969218	0.982265	-0.052089	0.180116	-0.021486	-0.985578	-0.167851
17306		0.186023	0.161607	-0.969164	0.982436	-0.045299	0.181017	-0.014648	-0.985815	-0.167196
17307		0.185662	0.162200	-0.969134	0.982585	-0.038215	0.181843	-0.007541	-0.986018	-0.166470
17308		0.184954	0.162629	-0.969198	0.982746	-0.032220	0.182133	-0.001608	-0.986161	-0.165782
17309		0.183924	0.163397	-0.969264	0.982940	-0.030181	0.181432	0.000392	-0.986099	-0.166160
17310		0.182321	0.163809	-0.969498	0.983237	-0.028530	0.180084	0.001840	-0.986079	-0.166265
17311		0.180013	0.164074	-0.969884	0.983662	-0.027885	0.177852	0.002136	-0.986054	-0.166413
17312		0.177158	0.164098	-0.970406	0.984181	-0.027574	0.175010	0.001961	-0.986059	-0.166387
17313		0.173788	0.163544	-0.971108	0.984776	-0.024978	0.172027	0.003877	-0.986220	-0.165395
17314		0.169824	0.162631	-0.971962	0.985453	-0.021542	0.168577	0.006478	-0.986452	-0.163924
17315		0.165100	0.161395	-0.972982	0.986243	-0.018785	0.164234	0.008229	-0.986711	-0.162276
17316		0.159823	0.160170	-0.974065	0.987121	-0.018891	0.158858	0.007043	-0.986909	-0.161126
17317		0.154276	0.159925	-0.974999	0.988023	-0.021803	0.152761	0.003173	-0.986888	-0.161373
17318		0.148132	0.159390	-0.976039	0.988966	-0.025540	0.145923	-0.001669	-0.986885	-0.161415
17319		0.141538	0.159620	-0.976979	0.989906	-0.030160	0.138483	-0.007361	-0.986718	-0.162278
17320		0.134777	0.160057	-0.977863	0.990813	-0.032851	0.131185	-0.011126	-0.986561	-0.163014
17321		0.128129	0.159744	-0.978808	0.991698	-0.031458	0.124682	-0.010874	-0.986657	-0.162449
17322		0.121769	0.158855	-0.979764	0.992510	-0.029207	0.118618	-0.009773	-0.986870	-0.161221
17323		0.115470	0.156513	-0.980903	0.993267	-0.027437	0.112547	-0.009298	-0.987295	-0.158628
17324		0.109389	0.154021	-0.981994	0.993910	-0.030158	0.105986	-0.013291	-0.987607	-0.156382
17325		0.103856	0.151107	-0.983047	0.994389	-0.035745	0.099560	-0.020095	-0.987871	-0.153971
17326		0.099012	0.147858	-0.984040	0.994714	-0.041755	0.093812	-0.027218	-0.988127	-0.151210
17327		0.094788	0.144471	-0.984959	0.994942	-0.046785	0.088886	-0.033240	-0.988402	-0.148175
17328		0.091140	0.140577	-0.985866	0.995147	-0.049722	0.084908	-0.037083	-0.988820	-0.144427
17329		0.087956	0.136391	-0.986743	0.995274	-0.052948	0.081398	-0.041144	-0.989239	-0.140404
17330		0.084961	0.132476	-0.987538	0.995330	-0.056870	0.078002	-0.045827	-0.989553	-0.136689
17331		0.082387	0.128973	-0.988220	0.995296	-0.061357	0.074970	-0.050965	-0.989748	-0.133422
17332		0.080424	0.126045	-0.988759	0.995143	-0.066644	0.072447	-0.056763	-0.989783	-0.130793
17333		0.079161	0.123128	-0.989229	0.994930	-0.071502	0.070717	-0.062024	-0.989812	-0.128164
17334		0.078627	0.120532	-0.989591	0.994612	-0.076764	0.069676	-0.067567	-0.989737	-0.125919
17335		0.079021	0.118325	-0.989826	0.994136	-0.082877	0.069457	-0.073816	-0.989510	-0.124180
17336		0.080158	0.116214	-0.989984	0.993710	-0.087234	0.070219	-0.078200	-0.989386	-0.122475
17337		0.081848	0.114211	-0.990079	0.993389	-0.089584	0.071788	-0.080496	-0.989409	-0.120788
17338		0.083809	0.112467	-0.990115	0.993036	-0.091981	0.073608	-0.082793	-0.989389	-0.119393
17339		0.085916	0.111438	-0.990050	0.992545	-0.095794	0.075350	-0.086444	-0.989144	-0.118838
17340		0.088338	0.110562	-0.989936	0.991938	-0.100418	0.077302	-0.090861	-0.988783	-0.118541
17341		0.091134	0.109470	-0.989803	0.991109	-0.106725	0.079450	-0.096939	-0.988244	-0.118223
17342		0.094029	0.108249	-0.989667	0.990338	-0.111946	0.081848	-0.101929	-0.987801	-0.117729
17343		0.097141	0.106807	-0.989523	0.989495	-0.117319	0.084475	-0.107067	-0.987334	-0.117082
17344		0.100448	0.105619	-0.989320	0.988501	-0.123553	0.087175	-0.113026	-0.986701	-0.116815
17345		0.103640	0.104398	-0.989121	0.987681	-0.128028	0.089977	-0.117242	-0.986261	-0.116381
17346		0.106559	0.103143	-0.988942	0.986917	-0.132004	0.092573	-0.120996	-0.985868	-0.115859
17347		0.109411	0.102155	-0.988733	0.985894	-0.137899	0.094849	-0.126656	-0.985164	-0.115802
17348		0.111966	0.100838	-0.988582	0.984864	-0.143722	0.096885	-0.132312	-0.984467	-0.115403
17349		0.114327	0.099124	-0.988486	0.983903	-0.148860	0.098870	-0.137345	-0.983878	-0.114547
17350		0.116456	0.097196	-0.988428	0.982934	-0.153968	0.100668	-0.142402	-0.983284	-0.113468
17351		0.118101	0.094665	-0.988479	0.981662	-0.161139	0.101855	-0.149641	-0.982381	-0.111960
17352		0.119565	0.093440	-0.988419	0.980143	-0.169735	0.102518	-0.158190	-0.981050	-0.111879
17353		0.121170	0.092681	-0.988296	0.978017	-0.181369	0.102901	-0.169709	-0.979038	-0.112620
17354		0.122944	0.092221	-0.988119	0.975843	-0.192422	0.103458	-0.180595	-0.976969	-0.113651
17355		0.124562	0.090547	-0.988072	0.974415	-0.198928	0.104611	-0.187083	-0.975822	-0.113010
17356		0.126084	0.088536	-0.988061	0.973197	-0.204139	0.105895	-0.192326	-0.974930	-0.111901
17357		0.126868	0.086035	-0.988181	0.972351	-0.207696	0.106753	-0.196057	-0.974402	-0.110006
17358		0.127117	0.084104	-0.988316	0.971556	-0.211269	0.106982	-0.199803	-0.973803	-0.108568
17359		0.126601	0.083014	-0.988474	0.971097	-0.213641	0.106433	-0.202343	-0.973379	-0.107662
17360		0.125197	0.082458	-0.988699	0.971477	-0.212472	0.105296	-0.201389	-0.973682	-0.106707
17361		0.123402	0.082614	-0.988912	0.972637	-0.207743	0.104017	-0.196847	-0.974689	-0.105989
17362		0.121243	0.082852	-0.989159	0.974370	-0.200155	0.102665	-0.189480	-0.976255	-0.104996
17363		0.118894	0.083340	-0.989403	0.976449	-0.190491	0.101292	-0.180030	-0.978145	-0.104026
17364		0.116434	0.083541	-0.989679	0.978587	-0.179943	0.099940	-0.169737	-0.980123	-0.102703
17365		0.114152	0.083394	-0.989957	0.980715	-0.168583	0.098885	-0.158644	-0.982153	-0.101030
17366		0.111809	0.082730	-0.990280	0.982612	-0.157852	0.097756	-0.148230	-0.983991	-0.098940
17367		0.109552	0.081868	-0.990604	0.984344	-0.147379	0.096680	-0.138079	-0.985686	-0.096732
17368		0.107667	0.080755	-0.990902	0.985760	-0.138172	0.095847	-0.129175	-0.987110	-0.094482
17369		0.106257	0.079314	-0.991170	0.986989	-0.129390	0.095455	-0.120677	-0.988417	-0.092030
17370		0.105363	0.077798	-0.991386	0.987941	-0.121930	0.095428	-0.113455	-0.989485	-0.089707
17371		0.104660	0.076446	-0.991566	0.988666	-0.115909	0.095418	-0.107637	-0.990314	-0.087711
17373		0.104079	0.074900	-0.991745	0.989573	-0.107625	0.095723	-0.099566	-0.991366	-0.085320
17374		0.104245	0.074049	-0.991791	0.989914	-0.103920	0.096289	-0.095936	-0.991825	-0.084135
17375		0.104767	0.073130	-0.991804	0.990250	-0.099742	0.097249	-0.091813	-0.992322	-0.082867
17376		0.105793	0.072854	-0.991716	0.990380	-0.097178	0.098512	-0.089196	-0.992597	-0.082434
17377		0.107559	0.073232	-0.991498	0.990380	-0.095221	0.100404	-0.087058	-0.992759	-0.082769
17378		0.110219	0.073722	-0.991170	0.990260	-0.093505	0.103163	-0.085074	-0.992886	-0.083309
17379		0.113528	0.073697	-0.990798	0.990138	-0.090790	0.106700	-0.082091	-0.993139	-0.083278
17380		0.117441	0.073306	-0.990371	0.989878	-0.088659	0.110821	-0.079681	-0.993361	-0.082976
17381		0.121817	0.072889	-0.989873	0.989462	-0.087559	0.115319	-0.078267	-0.993489	-0.082787
17382		0.126625	0.072715	-0.989282	0.988885	-0.087598	0.120136	-0.077923	-0.993498	-0.082998
17383		0.131511	0.073351	-0.988597	0.988214	-0.088519	0.124892	-0.078349	-0.993370	-0.084127
17384		0.136420	0.074919	-0.987814	0.987476	-0.090058	0.129543	-0.079255	-0.993115	-0.086266
17385		0.141060	0.076428	-0.987046	0.986832	-0.090571	0.134017	-0.079155	-0.992953	-0.088197
17386		0.145154	0.077716	-0.986352	0.986419	-0.088818	0.138165	-0.076869	-0.993011	-0.089552
17387		0.148346	0.078693	-0.985800	0.986229	-0.085466	0.141589	-0.073110	-0.993229	-0.090288
17388		0.150924	0.080257	-0.985282	0.985866	-0.085551	0.144045	-0.072731	-0.993096	-0.092035
17389		0.153054	0.081484	-0.984853	0.985260	-0.089630	0.145702	-0.076400	-0.992636	-0.094001
17390		0.155026	0.082518	-0.984458	0.984557	-0.094944	0.147083	-0.081332	-0.992057	-0.095963
17391		0.156748	0.082978	-0.984147	0.983916	-0.099552	0.148317	-0.085667	-0.991566	-0.097248
17392		0.157996	0.083096	-0.983937	0.983400	-0.103285	0.149187	-0.089229	-0.991175	-0.098035
17393		0.158542	0.083044	-0.983854	0.983083	-0.105838	0.149484	-0.091716	-0.990910	-0.098419
17394		0.158407	0.082740	-0.983901	0.982953	-0.107407	0.149222	-0.093331	-0.990766	-0.098343
17395		0.157714	0.082733	-0.984013	0.982879	-0.109286	0.148344	-0.095266	-0.990561	-0.098552
17396		0.156644	0.082831	-0.984176	0.983004	-0.109669	0.147228	-0.095738	-0.990511	-0.098602
17397		0.155160	0.082697	-0.984422	0.983352	-0.108327	0.145891	-0.094574	-0.990670	-0.098129
17398		0.153485	0.082738	-0.984681	0.983765	-0.106579	0.144387	-0.093000	-0.990856	-0.097753
17399		0.151634	0.082856	-0.984958	0.984353	-0.103147	0.142864	-0.089758	-0.991209	-0.097200
17400		0.149621	0.082643	-0.985284	0.985002	-0.099061	0.141270	-0.085929	-0.991644	-0.096225
17401		0.147580	0.082764	-0.985581	0.985467	-0.097051	0.139413	-0.084113	-0.991832	-0.095884
17402		0.145634	0.082972	-0.985853	0.985724	-0.097271	0.137428	-0.084492	-0.991793	-0.095953
17403		0.143989	0.083083	-0.986085	0.985799	-0.099063	0.135601	-0.086419	-0.991607	-0.096167
17404		0.142619	0.082771	-0.986311	0.985809	-0.101020	0.134069	-0.088540	-0.991435	-0.096004
17405		0.141679	0.082384	-0.986479	0.985802	-0.102469	0.133024	-0.090124	-0.991319	-0.095732
17406		0.141022	0.082251	-0.986584	0.985717	-0.104331	0.132200	-0.092058	-0.991136	-0.095789
17407		0.140066	0.082787	-0.986675	0.985562	-0.107389	0.130898	-0.095121	-0.990764	-0.096633
17408		0.139017	0.083889	-0.986730	0.985176	-0.112851	0.129204	-0.100514	-0.990064	-0.098333
17409		0.138556	0.085721	-0.986638	0.984624	-0.118938	0.127940	-0.106381	-0.989194	-0.100882
17410		0.138768	0.086740	-0.986519	0.984202	-0.122679	0.127656	-0.109952	-0.988649	-0.102393
17411		0.139334	0.087588	-0.986364	0.984093	-0.123107	0.128082	-0.110210	-0.988521	-0.103348
17412		0.140244	0.088721	-0.986134	0.984180	-0.121397	0.129044	-0.108265	-0.988631	-0.104343
17413		0.141146	0.089540	-0.985931	0.983896	-0.123011	0.129683	-0.109669	-0.988358	-0.105460
17414		0.141944	0.090825	-0.985699	0.983015	-0.129966	0.129581	-0.116338	-0.987350	-0.107731
17415		0.143295	0.093029	-0.985298	0.981351	-0.142244	0.129291	-0.128125	-0.985450	-0.111677
17416		0.145893	0.095117	-0.984717	0.979094	-0.156492	0.129944	-0.141740	-0.983089	-0.115959
17417		0.148692	0.096470	-0.984167	0.976843	-0.169160	0.131005	-0.153843	-0.980856	-0.119389
17418		0.151581	0.098318	-0.983543	0.975404	-0.175980	0.132735	-0.160034	-0.979471	-0.122575
17419		0.154607	0.099719	-0.982931	0.974153	-0.181232	0.134840	-0.164692	-0.978372	-0.125161
17420		0.157421	0.100723	-0.982382	0.973584	-0.182434	0.137306	-0.165390	-0.978045	-0.126782
17421		0.159597	0.101278	-0.981973	0.973287	-0.182451	0.139368	-0.165047	-0.977985	-0.127691
17422		0.161468	0.102546	-0.981536	0.972937	-0.183126	0.140921	-0.165294	-0.977727	-0.129340
17423		0.163000	0.104929	-0.981031	0.972376	-0.185468	0.141725	-0.167078	-0.977032	-0.132262
17424		0.163982	0.107218	-0.980619	0.971965	-0.187365	0.142049	-0.168503	-0.976421	-0.134937
17425		0.164325	0.109605	-0.980298	0.971642	-0.189286	0.141710	-0.170025	-0.975786	-0.137601
17426		0.164031	0.112318	-0.980040	0.971510	-0.190676	0.140751	-0.171061	-0.975206	-0.140395
17427		0.163018	0.114875	-0.979913	0.971523	-0.191787	0.139140	-0.171951	-0.974690	-0.142868
17428		0.161175	0.117037	-0.979962	0.971867	-0.191615	0.136960	-0.171746	-0.974467	-0.144628
17429		0.158805	0.118708	-0.980148	0.972229	-0.191653	0.134310	-0.171905	-0.974257	-0.145847
17430		0.156370	0.119525	-0.980440	0.972239	-0.193567	0.131464	-0.174067	-0.973779	-0.146475
17431		0.153901	0.119226	-0.980867	0.972182	-0.195663	0.128755	-0.176568	-0.973397	-0.146022
17432		0.151403	0.118323	-0.981365	0.971797	-0.199406	0.125885	-0.180795	-0.972747	-0.145176
17433		0.148995	0.118668	-0.981692	0.971082	-0.204848	0.122622	-0.186546	-0.971574	-0.145758
17434		0.146129	0.119675	-0.982000	0.970570	-0.209415	0.118907	-0.191415	-0.970476	-0.146754
17435		0.142697	0.120294	-0.982429	0.970264	-0.213070	0.114841	-0.195511	-0.969603	-0.147122
17436		0.139165	0.120978	-0.982852	0.969784	-0.217481	0.110546	-0.200378	-0.968538	-0.147588
17437		0.135820	0.121541	-0.983250	0.969646	-0.219979	0.106749	-0.203319	-0.967903	-0.147730
17438		0.132473	0.121906	-0.983661	0.969953	-0.220260	0.103330	-0.204064	-0.967794	-0.147422
17439		0.128837	0.121554	-0.984188	0.970853	-0.217724	0.100201	-0.202102	-0.968411	-0.146062
17440		0.125011	0.120451	-0.984817	0.971410	-0.216780	0.096795	-0.201829	-0.968761	-0.144107
17441		0.121168	0.119533	-0.985409	0.971539	-0.217846	0.093038	-0.203546	-0.968636	-0.142527
17442		0.117064	0.118767	-0.985997	0.971789	-0.218387	0.089072	-0.204751	-0.968608	-0.140981
17443		0.112691	0.118005	-0.986598	0.971856	-0.219814	0.084716	-0.206871	-0.968378	-0.139455
17444		0.108067	0.117656	-0.987157	0.972022	-0.220812	0.080092	-0.208553	-0.968194	-0.138227
17445		0.103285	0.117308	-0.987710	0.972138	-0.221987	0.075292	-0.210426	-0.967967	-0.136968
17446		0.098599	0.117243	-0.988197	0.972543	-0.221716	0.070732	-0.210806	-0.968037	-0.135884
17447		0.093953	0.117144	-0.988661	0.973684	-0.217919	0.066709	-0.207634	-0.968911	-0.134536
17448		0.089506	0.117279	-0.989057	0.975491	-0.210739	0.063290	-0.201010	-0.970482	-0.133268
17449		0.085548	0.117054	-0.989434	0.977858	-0.200224	0.060860	-0.190985	-0.972733	-0.131591
17450		0.082392	0.116335	-0.989787	0.980096	-0.189455	0.059318	-0.180619	-0.974973	-0.129629
17451		0.080152	0.115088	-0.990116	0.981799	-0.180694	0.058476	-0.172179	-0.976783	-0.127476
17452		0.078487	0.113734	-0.990406	0.982738	-0.175776	0.057694	-0.167528	-0.977838	-0.125566
17453		0.077187	0.112449	-0.990655	0.982953	-0.174883	0.056736	-0.166869	-0.978147	-0.124031
17454		0.076305	0.112256	-0.990745	0.982340	-0.178715	0.055408	-0.170841	-0.977476	-0.123910
17455		0.075347	0.112271	-0.990817	0.981149	-0.185677	0.053572	-0.177958	-0.976176	-0.124145
17456		0.074674	0.112568	-0.990834	0.980006	-0.192043	0.052041	-0.184425	-0.974909	-0.124658
17457		0.074565	0.113062	-0.990786	0.979340	-0.195583	0.051385	-0.187971	-0.974148	-0.125309
17458		0.074792	0.113962	-0.990666	0.979215	-0.196217	0.051356	-0.188533	-0.973916	-0.126269
17459		0.074510	0.114490	-0.990626	0.979619	-0.194219	0.051235	-0.186532	-0.974254	-0.126628
17460		0.073071	0.113641	-0.990831	0.980413	-0.190378	0.050467	-0.182897	-0.975111	-0.125326
17461		0.070311	0.111401	-0.991285	0.981211	-0.186711	0.048614	-0.179668	-0.976078	-0.122436
17462		0.067212	0.109874	-0.991670	0.981052	-0.188296	0.045630	-0.181714	-0.975947	-0.120447
17463		0.064128	0.108172	-0.992062	0.980189	-0.193502	0.042261	-0.187394	-0.975118	-0.118438
17464		0.061041	0.106177	-0.992472	0.979321	-0.198517	0.038995	-0.192882	-0.974329	-0.116099
17465		0.057939	0.104477	-0.992838	0.977622	-0.207398	0.035226	-0.202232	-0.972662	-0.114155
17466		0.054550	0.103103	-0.993174	0.976196	-0.214616	0.031338	-0.209920	-0.971241	-0.112356
17467		0.050615	0.101224	-0.993575	0.975638	-0.217655	0.027527	-0.213470	-0.970763	-0.109775
17468		0.046240	0.099208	-0.993992	0.975853	-0.217135	0.023724	-0.213476	-0.971087	-0.106853
17469		0.041450	0.097278	-0.994394	0.976486	-0.214678	0.019702	-0.211558	-0.971828	-0.103889
17470		0.036482	0.095696	-0.994742	0.977534	-0.210199	0.015629	-0.207599	-0.972964	-0.101215
17471		0.031447	0.094790	-0.995000	0.978739	-0.204790	0.011424	-0.202683	-0.974205	-0.099215
17472		0.026135	0.094273	-0.995203	0.979894	-0.199403	0.006844	-0.197802	-0.975372	-0.097589
17473		0.020759	0.094317	-0.995326	0.980937	-0.194313	0.002045	-0.193212	-0.976395	-0.096552
17474		0.015464	0.094983	-0.995359	0.981495	-0.191464	-0.003022	-0.190863	-0.976893	-0.096186
17475		0.010319	0.095324	-0.995393	0.981376	-0.191923	-0.008206	-0.191821	-0.976770	-0.095529
17476		0.005563	0.095677	-0.995397	0.980890	-0.194115	-0.013177	-0.194482	-0.976302	-0.094928
17477		0.001207	0.096331	-0.995349	0.980048	-0.197946	-0.017969	-0.198757	-0.975468	-0.094648
17478		-0.002710	0.096980	-0.995283	0.979422	-0.200597	-0.022213	-0.201805	-0.974862	-0.094441
17479		-0.006222	0.097317	-0.995234	0.978829	-0.203023	-0.025972	-0.204583	-0.974326	-0.093993
17480		-0.009263	0.097800	-0.995163	0.978063	-0.206227	-0.029371	-0.208102	-0.973605	-0.093744
17481		-0.012002	0.098398	-0.995075	0.977400	-0.208895	-0.032445	-0.211059	-0.972975	-0.093667
17482		-0.014584	0.099092	-0.994971	0.976771	-0.211347	-0.035366	-0.213789	-0.972375	-0.093708
17483		-0.017035	0.099923	-0.994849	0.976126	-0.213821	-0.038191	-0.216536	-0.971749	-0.093895
17484		-0.019358	0.100755	-0.994723	0.975516	-0.216097	-0.040873	-0.219075	-0.971159	-0.094105
17485		-0.021449	0.101628	-0.994591	0.974952	-0.218156	-0.043317	-0.221378	-0.970608	-0.094403
17486		-0.023336	0.102534	-0.994456	0.974433	-0.220011	-0.045550	-0.223462	-0.970094	-0.094779
17487		-0.024966	0.103146	-0.994353	0.973849	-0.222174	-0.047498	-0.225819	-0.969536	-0.094902
17488		-0.026095	0.103688	-0.994267	0.973323	-0.224163	-0.048922	-0.227951	-0.969020	-0.095072
17489		-0.026844	0.104251	-0.994189	0.972921	-0.225679	-0.049935	-0.229573	-0.968608	-0.095370
17490		-0.027450	0.104615	-0.994134	0.972765	-0.226189	-0.050662	-0.230162	-0.968450	-0.095557
17491		-0.028080	0.104769	-0.994100	0.972813	-0.225845	-0.051280	-0.229885	-0.968513	-0.095579
17492		-0.028666	0.104753	-0.994085	0.972749	-0.225987	-0.051864	-0.230083	-0.968482	-0.095420
17493		-0.029184	0.104732	-0.994072	0.972735	-0.225930	-0.052361	-0.230074	-0.968497	-0.095283
17494		-0.029668	0.104634	-0.994068	0.972745	-0.225787	-0.052798	-0.229972	-0.968541	-0.095084
17495		-0.030020	0.104378	-0.994085	0.972816	-0.225420	-0.053047	-0.229624	-0.968654	-0.094773
17496		-0.030198	0.104138	-0.994104	0.973003	-0.224604	-0.053086	-0.228808	-0.968870	-0.094544
17497		-0.030223	0.103870	-0.994132	0.973396	-0.222943	-0.052886	-0.227128	-0.969282	-0.094369
17498		-0.030184	0.103393	-0.994182	0.974022	-0.220287	-0.052481	-0.224432	-0.969940	-0.094058
17499		-0.030233	0.102881	-0.994234	0.974723	-0.217251	-0.052120	-0.221360	-0.970679	-0.093712
17500		-0.030188	0.102429	-0.994282	0.975400	-0.214298	-0.051691	-0.218367	-0.971383	-0.093440
17501		-0.030009	0.102026	-0.994329	0.975994	-0.211700	-0.051177	-0.215721	-0.971995	-0.093223
17502		-0.029706	0.101656	-0.994376	0.976497	-0.209508	-0.050590	-0.213472	-0.972508	-0.093043
17503		-0.029366	0.101170	-0.994436	0.976932	-0.207619	-0.049972	-0.211520	-0.972964	-0.092739
17504		-0.028995	0.100798	-0.994484	0.977155	-0.206695	-0.049440	-0.210539	-0.973199	-0.092502
17505		-0.028565	0.100352	-0.994542	0.977545	-0.205008	-0.048763	-0.208782	-0.973602	-0.092243
17506		-0.028070	0.099755	-0.994616	0.977931	-0.203340	-0.047993	-0.207032	-0.974013	-0.091846
17507		-0.027351	0.099175	-0.994694	0.978401	-0.201310	-0.046975	-0.204900	-0.974494	-0.091527
17508		-0.026405	0.098396	-0.994797	0.978966	-0.198850	-0.045654	-0.202308	-0.975078	-0.091075
17509		-0.025304	0.097473	-0.994916	0.979465	-0.196714	-0.044183	-0.200021	-0.975604	-0.090494
17510		-0.024072	0.096584	-0.995034	0.979845	-0.195154	-0.042647	-0.198304	-0.976005	-0.089940
17511		-0.022945	0.095707	-0.995145	0.980124	-0.194050	-0.041262	-0.197057	-0.976312	-0.089352
17512		-0.021856	0.095042	-0.995233	0.980329	-0.193278	-0.039987	-0.196157	-0.976530	-0.088948
17513		-0.020860	0.094609	-0.995296	0.980585	-0.192213	-0.038823	-0.194982	-0.976782	-0.088762
17514		-0.020007	0.094086	-0.995363	0.980944	-0.190591	-0.037733	-0.193258	-0.977150	-0.088480
17515		-0.019334	0.093557	-0.995426	0.981406	-0.188386	-0.036768	-0.190965	-0.977629	-0.088176
17516		-0.018719	0.093084	-0.995482	0.981894	-0.186007	-0.035857	-0.188504	-0.978129	-0.087916
17517		-0.018186	0.092571	-0.995540	0.982319	-0.183908	-0.035045	-0.186332	-0.978575	-0.087589
17518		-0.017598	0.091964	-0.995607	0.982696	-0.182043	-0.034185	-0.184387	-0.978981	-0.087168
17519		-0.016906	0.091258	-0.995684	0.983006	-0.180537	-0.033237	-0.182791	-0.979326	-0.086655
17520		-0.015964	0.090526	-0.995766	0.983338	-0.178940	-0.032032	-0.181082	-0.979687	-0.086161
17521		-0.014930	0.089823	-0.995846	0.983700	-0.177172	-0.030728	-0.179196	-0.980072	-0.085714
17522		-0.013994	0.089029	-0.995931	0.984138	-0.174941	-0.029467	-0.176852	-0.980546	-0.085169
17523		-0.013205	0.088176	-0.996017	0.984570	-0.172679	-0.028341	-0.174490	-0.981023	-0.084536
17524		-0.012485	0.087425	-0.996093	0.984804	-0.171495	-0.027396	-0.173220	-0.981298	-0.083955
17525		-0.011838	0.086785	-0.996157	0.984913	-0.170994	-0.026602	-0.172645	-0.981443	-0.083452
17526		-0.011271	0.086242	-0.996210	0.984874	-0.171312	-0.025973	-0.172903	-0.981435	-0.083007
17527		-0.010755	0.085665	-0.996266	0.984729	-0.172226	-0.025440	-0.173762	-0.981325	-0.082505
17528		-0.010111	0.085178	-0.996314	0.984518	-0.173514	-0.024825	-0.174989	-0.981141	-0.082105
17529		-0.009356	0.084745	-0.996359	0.984330	-0.174679	-0.024100	-0.176086	-0.980972	-0.081783
17530		-0.008540	0.084346	-0.996400	0.984203	-0.175506	-0.023292	-0.176838	-0.980859	-0.081515
17531		-0.007777	0.083905	-0.996443	0.984119	-0.176075	-0.022507	-0.177337	-0.980794	-0.081203
17532		-0.007024	0.083476	-0.996485	0.983887	-0.177457	-0.021801	-0.178653	-0.980582	-0.080885
17533		-0.006198	0.083003	-0.996530	0.983595	-0.179157	-0.021040	-0.180282	-0.980313	-0.080531
17534		-0.005229	0.082413	-0.996585	0.983295	-0.180902	-0.020119	-0.181942	-0.980042	-0.080090
17535		-0.004136	0.081953	-0.996628	0.982887	-0.183213	-0.019145	-0.184165	-0.979651	-0.079793
17536		-0.002968	0.081444	-0.996674	0.982457	-0.185609	-0.018093	-0.186465	-0.979243	-0.079464
17537		-0.001724	0.080832	-0.996726	0.982144	-0.187369	-0.016894	-0.188122	-0.978958	-0.079066
17538		-0.000391	0.080194	-0.996779	0.981952	-0.188489	-0.015549	-0.189129	-0.978796	-0.078673
17539		0.000857	0.079549	-0.996831	0.981861	-0.189065	-0.014243	-0.189598	-0.978737	-0.078269
17540		0.002053	0.078651	-0.996900	0.981872	-0.189104	-0.012897	-0.189532	-0.978802	-0.077614
17541		0.003108	0.077735	-0.996969	0.981926	-0.188904	-0.011668	-0.189238	-0.978914	-0.076917
17542		0.004023	0.076770	-0.997041	0.982001	-0.188583	-0.010558	-0.188835	-0.979052	-0.076147
17543		0.004672	0.075615	-0.997126	0.982149	-0.187859	-0.009644	-0.188049	-0.979281	-0.075143
17544		0.005269	0.074622	-0.997198	0.982257	-0.187334	-0.008829	-0.187468	-0.979458	-0.074285
17545		0.005820	0.073830	-0.997254	0.982300	-0.187139	-0.008121	-0.187225	-0.979555	-0.073612
17546		0.006340	0.073111	-0.997304	0.982279	-0.187273	-0.007484	-0.187316	-0.979583	-0.073003
17547		0.006788	0.072316	-0.997359	0.982249	-0.187457	-0.006907	-0.187461	-0.979607	-0.072304
17548		0.007229	0.071549	-0.997411	0.982181	-0.187832	-0.006356	-0.187800	-0.979592	-0.071632
17549		0.007647	0.070901	-0.997454	0.982096	-0.188291	-0.005855	-0.188227	-0.979551	-0.071072
17550		0.007941	0.070230	-0.997499	0.981978	-0.188916	-0.005483	-0.188829	-0.979479	-0.070465
17551		0.008212	0.069603	-0.997541	0.981807	-0.189813	-0.005162	-0.189705	-0.979350	-0.069895
17552		0.008500	0.069126	-0.997572	0.981540	-0.191195	-0.004885	-0.191069	-0.979115	-0.069475
17553		0.008714	0.068789	-0.997593	0.981193	-0.192971	-0.004736	-0.192833	-0.978790	-0.069177
17554		0.009077	0.068544	-0.997607	0.980683	-0.195552	-0.004513	-0.195394	-0.978295	-0.068995
17555		0.009556	0.068349	-0.997616	0.980297	-0.197488	-0.004140	-0.197300	-0.977920	-0.068890
17556		0.010300	0.067943	-0.997636	0.979938	-0.199273	-0.003454	-0.199036	-0.977586	-0.068633
17557		0.011271	0.067411	-0.997662	0.979757	-0.200177	-0.002457	-0.199874	-0.977438	-0.068302
17558		0.012168	0.066396	-0.997719	0.979770	-0.200123	-0.001369	-0.199758	-0.977518	-0.067487
17559		0.012924	0.065391	-0.997776	0.979966	-0.199164	-0.000360	-0.198745	-0.977782	-0.066655
17560		0.013532	0.064503	-0.997826	0.980240	-0.197811	0.000506	-0.197348	-0.978116	-0.065905
17561		0.013871	0.063583	-0.997880	0.980453	-0.196748	0.001093	-0.196261	-0.978390	-0.065070
17562		0.014235	0.062701	-0.997931	0.980632	-0.195852	0.001682	-0.195341	-0.978627	-0.064275
17563		0.014509	0.061931	-0.997975	0.980746	-0.195275	0.002140	-0.194747	-0.978791	-0.063572
17564		0.014754	0.061284	-0.998011	0.980765	-0.195176	0.002514	-0.194633	-0.978852	-0.062985
17565		0.014929	0.060658	-0.998047	0.980752	-0.195238	0.002805	-0.194687	-0.978878	-0.062406
17566		0.015063	0.060059	-0.998081	0.980767	-0.195161	0.003058	-0.194602	-0.978931	-0.061844
17567		0.015170	0.059472	-0.998115	0.980825	-0.194861	0.003297	-0.194298	-0.979026	-0.061287
17568		0.015193	0.058849	-0.998151	0.980901	-0.194477	0.003465	-0.193913	-0.979140	-0.060679
17569		0.015184	0.058196	-0.998190	0.980930	-0.194327	0.003592	-0.193766	-0.979209	-0.060037
17570		0.015192	0.057610	-0.998224	0.980872	-0.194619	0.003696	-0.194061	-0.979186	-0.059465
17571		0.015258	0.057138	-0.998250	0.980717	-0.195398	0.003805	-0.194838	-0.979058	-0.059018
17572		0.015396	0.056809	-0.998266	0.980606	-0.195950	0.003972	-0.195385	-0.978967	-0.058724
17573		0.015636	0.056412	-0.998285	0.980592	-0.196012	0.004283	-0.195435	-0.978977	-0.058382
17574		0.015986	0.055915	-0.998308	0.980617	-0.195877	0.004731	-0.195281	-0.979033	-0.057962
17575		0.016439	0.055357	-0.998331	0.980652	-0.195690	0.005297	-0.195070	-0.979102	-0.057503
17576		0.016892	0.054817	-0.998354	0.980725	-0.195307	0.005869	-0.194664	-0.979209	-0.057060
17577		0.017200	0.054174	-0.998383	0.980791	-0.194961	0.006318	-0.194303	-0.979314	-0.056487
17578		0.017455	0.053742	-0.998402	0.980938	-0.194204	0.006696	-0.193534	-0.979488	-0.056108
17579		0.017607	0.053296	-0.998424	0.981093	-0.193413	0.006977	-0.192736	-0.979669	-0.055694
17580		0.017756	0.052874	-0.998443	0.981112	-0.193305	0.007211	-0.192622	-0.979713	-0.055307
17581		0.017730	0.052351	-0.998471	0.981189	-0.192913	0.007308	-0.192236	-0.979818	-0.054787
17582		0.017647	0.051667	-0.998508	0.981252	-0.192588	0.007377	-0.191920	-0.979919	-0.054096
17583		0.017577	0.051057	-0.998541	0.981364	-0.192012	0.007457	-0.191351	-0.980064	-0.053480
17584		0.017571	0.050547	-0.998567	0.981540	-0.191104	0.007598	-0.190446	-0.980268	-0.052972
17585		0.017514	0.050025	-0.998594	0.981734	-0.190102	0.007695	-0.189450	-0.980489	-0.052441
17586		0.017434	0.049625	-0.998616	0.981936	-0.189054	0.007748	-0.188408	-0.980712	-0.052025
17587		0.017266	0.049296	-0.998635	0.982121	-0.188094	0.007695	-0.187458	-0.980913	-0.051663
17588		0.017013	0.049015	-0.998653	0.982215	-0.187610	0.007525	-0.186989	-0.981020	-0.051335
17589		0.016738	0.048801	-0.998668	0.982290	-0.187227	0.007314	-0.186620	-0.981104	-0.051071
17590		0.016491	0.048571	-0.998684	0.982383	-0.186742	0.007139	-0.186149	-0.981208	-0.050794
17591		0.016303	0.048305	-0.998700	0.982472	-0.186276	0.007029	-0.185695	-0.981309	-0.050495
17592		0.016178	0.048063	-0.998713	0.982570	-0.185764	0.006977	-0.185190	-0.981418	-0.050230
17593		0.016028	0.047852	-0.998726	0.982657	-0.185303	0.006891	-0.184737	-0.981516	-0.049992
17594		0.015887	0.047711	-0.998735	0.982740	-0.184870	0.006801	-0.184311	-0.981604	-0.049825
17595		0.015827	0.047545	-0.998744	0.982797	-0.184563	0.006788	-0.184009	-0.981670	-0.049649
17596		0.015750	0.047379	-0.998753	0.982865	-0.184205	0.006761	-0.183655	-0.981745	-0.049469
17597		0.015666	0.047335	-0.998756	0.982929	-0.183862	0.006704	-0.183316	-0.981812	-0.049408
17598		0.015604	0.047271	-0.998760	0.982977	-0.183606	0.006667	-0.183063	-0.981863	-0.049331
17599		0.015583	0.047150	-0.998766	0.983009	-0.183434	0.006677	-0.182893	-0.981901	-0.049207
17600		0.015648	0.047029	-0.998771	0.983054	-0.183190	0.006775	-0.182646	-0.981952	-0.049099
17601		0.015664	0.046935	-0.998775	0.983114	-0.182865	0.006825	-0.182321	-0.982017	-0.049007
17602		0.015656	0.046634	-0.998789	0.983188	-0.182465	0.006892	-0.181923	-0.982106	-0.048707
17603		0.015581	0.046407	-0.998801	0.983277	-0.181984	0.006883	-0.181447	-0.982206	-0.048467
17604		0.015602	0.046178	-0.998811	0.983396	-0.181337	0.006978	-0.180799	-0.982336	-0.048240
17605		0.015660	0.045895	-0.998824	0.983522	-0.180646	0.007120	-0.180107	-0.982477	-0.047968
17606		0.015711	0.045635	-0.998835	0.983675	-0.179807	0.007258	-0.179267	-0.982643	-0.047716
17607		0.015715	0.045389	-0.998846	0.983807	-0.179078	0.007341	-0.178538	-0.982787	-0.047469
17608		0.015740	0.045175	-0.998855	0.983933	-0.178384	0.007437	-0.177844	-0.982923	-0.047257
17609		0.015808	0.044902	-0.998866	0.984024	-0.177873	0.007578	-0.177332	-0.983028	-0.046997
17610		0.015944	0.044599	-0.998878	0.984083	-0.177538	0.007781	-0.176992	-0.983103	-0.046719
17611		0.016087	0.044290	-0.998889	0.984122	-0.177316	0.007987	-0.176765	-0.983157	-0.046439
17612		0.016183	0.044148	-0.998894	0.984103	-0.177416	0.008102	-0.176862	-0.983145	-0.046318
17613		0.016194	0.043946	-0.998903	0.984104	-0.177408	0.008149	-0.176855	-0.983156	-0.046120
17614		0.016108	0.043718	-0.998914	0.984181	-0.176978	0.008125	-0.176430	-0.983243	-0.045877
17615		0.015974	0.043463	-0.998927	0.984318	-0.176221	0.008073	-0.175681	-0.983391	-0.045596
17616		0.015864	0.043147	-0.998943	0.984477	-0.175330	0.008062	-0.174796	-0.983564	-0.045259
17617		0.015802	0.042804	-0.998959	0.984642	-0.174400	0.008103	-0.173871	-0.983744	-0.044903
17618		0.015780	0.042412	-0.998976	0.984754	-0.173762	0.008179	-0.173237	-0.983874	-0.044507
17619		0.015799	0.042088	-0.998989	0.984793	-0.173537	0.008264	-0.173014	-0.983928	-0.044190
17620		0.015829	0.041886	-0.998997	0.984777	-0.173621	0.008325	-0.173098	-0.983921	-0.043997
17621		0.015839	0.041740	-0.999003	0.984730	-0.173887	0.008348	-0.173365	-0.983881	-0.043857
17622		0.015898	0.041652	-0.999006	0.984674	-0.174201	0.008407	-0.173677	-0.983829	-0.043783
17623		0.015953	0.041543	-0.999009	0.984634	-0.174427	0.008470	-0.173902	-0.983793	-0.043687
17624		0.016108	0.041385	-0.999013	0.984598	-0.174621	0.008642	-0.174091	-0.983766	-0.043561
17625		0.016303	0.041199	-0.999018	0.984564	-0.174801	0.008858	-0.174264	-0.983742	-0.043413
17626		0.016589	0.041027	-0.999020	0.984519	-0.175036	0.009160	-0.174489	-0.983707	-0.043296
17627		0.016923	0.040782	-0.999025	0.984437	-0.175479	0.009513	-0.174919	-0.983638	-0.043117
17628		0.017319	0.040624	-0.999024	0.984313	-0.176155	0.009900	-0.175581	-0.983524	-0.043038
17629		0.017662	0.040487	-0.999024	0.984144	-0.177077	0.010223	-0.176490	-0.983364	-0.042973
17630		0.018019	0.040396	-0.999021	0.983933	-0.178229	0.010540	-0.177629	-0.983160	-0.042958
17631		0.018401	0.040318	-0.999017	0.983693	-0.179524	0.010873	-0.178909	-0.982927	-0.042964
17632		0.018827	0.040235	-0.999013	0.983437	-0.180901	0.011248	-0.180270	-0.982678	-0.042975
17633		0.019224	0.040025	-0.999014	0.983219	-0.182059	0.011626	-0.181414	-0.982473	-0.042853
17634		0.019642	0.039817	-0.999014	0.983029	-0.183053	0.012032	-0.182393	-0.982296	-0.042736
17635		0.020082	0.039588	-0.999014	0.982869	-0.183885	0.012471	-0.183210	-0.982150	-0.042603
17636		0.020501	0.039361	-0.999015	0.982723	-0.184632	0.012892	-0.183943	-0.982019	-0.042466
17637		0.020828	0.039040	-0.999021	0.982612	-0.185196	0.013249	-0.184497	-0.981926	-0.042218
17638		0.021158	0.038774	-0.999024	0.982495	-0.185792	0.013597	-0.185083	-0.981824	-0.042026
17639		0.021442	0.038494	-0.999029	0.982347	-0.186549	0.013896	-0.185833	-0.981691	-0.041815
17640		0.021754	0.038233	-0.999032	0.982177	-0.187418	0.014215	-0.186693	-0.981536	-0.041629
17641		0.022033	0.038041	-0.999033	0.982004	-0.188306	0.014488	-0.187573	-0.981373	-0.041505
17642		0.022403	0.037838	-0.999033	0.981838	-0.189137	0.014854	-0.188392	-0.981221	-0.041388
17643		0.022702	0.037650	-0.999033	0.981666	-0.190006	0.015147	-0.189252	-0.981061	-0.041274
17644		0.023073	0.037463	-0.999032	0.981508	-0.190790	0.015514	-0.190024	-0.980916	-0.041172
17645		0.023445	0.037309	-0.999029	0.981359	-0.191528	0.015877	-0.190750	-0.980778	-0.041104
