// Start Time: Unknown
// Update Rate: 100.0Hz
// Filter Profile: human (46.1)
// Option Flags: AHS Disabled ICC Disabled 
// Firmware Version: 4.0.2
PacketCounter	SampleTimeFine	Mat[1][1]	Mat[2][1]	Mat[3][1]	Mat[1][2]	Mat[2][2]	Mat[3][2]	Mat[1][3]	Mat[2][3]	Mat[3][3]
52533		-0.192644	0.055863	-0.979677	-0.549787	-0.833103	0.060605	-0.812787	0.550289	0.191205
52534		-0.192926	0.056032	-0.979612	-0.550056	-0.832920	0.060687	-0.812538	0.550550	0.191512
52535		-0.193200	0.056204	-0.979548	-0.550369	-0.832707	0.060773	-0.812261	0.550855	0.191811
52536		-0.193403	0.056277	-0.979504	-0.550600	-0.832546	0.060882	-0.812056	0.551090	0.192003
52537		-0.193739	0.056378	-0.979432	-0.550842	-0.832374	0.061048	-0.811812	0.551339	0.192319
52538		-0.194091	0.056531	-0.979353	-0.551202	-0.832124	0.061207	-0.811483	0.551701	0.192668
52539		-0.194465	0.056569	-0.979277	-0.551430	-0.831955	0.061444	-0.811239	0.551952	0.192980
52540		-0.194773	0.056626	-0.979212	-0.551805	-0.831690	0.061663	-0.810910	0.552345	0.193238
52541		-0.195076	0.056638	-0.979151	-0.552195	-0.831412	0.061921	-0.810572	0.552762	0.193463
52542		-0.195363	0.056656	-0.979093	-0.552625	-0.831108	0.062175	-0.810209	0.553218	0.193677
52543		-0.195581	0.056645	-0.979050	-0.552921	-0.830895	0.062382	-0.809954	0.553539	0.193827
52544		-0.195835	0.056695	-0.978997	-0.553396	-0.830563	0.062600	-0.809569	0.554032	0.194028
52545		-0.196002	0.056753	-0.978960	-0.554047	-0.830113	0.062804	-0.809083	0.554699	0.194148
52546		-0.196187	0.056804	-0.978920	-0.554664	-0.829685	0.063017	-0.808615	0.555335	0.194280
52548		-0.196592	0.057090	-0.978822	-0.556974	-0.828094	0.063567	-0.806927	0.557675	0.194594
52549		-0.196664	0.057126	-0.978805	-0.557956	-0.827413	0.063816	-0.806231	0.558681	0.194596
52550		-0.196855	0.057130	-0.978767	-0.558750	-0.826854	0.064116	-0.805634	0.559508	0.194692
52551		-0.197030	0.057232	-0.978726	-0.559574	-0.826280	0.064331	-0.805019	0.560345	0.194827
52552		-0.197176	0.057351	-0.978689	-0.560241	-0.825817	0.064479	-0.804520	0.561015	0.194962
52553		-0.197656	0.057680	-0.978573	-0.560924	-0.825339	0.064650	-0.803926	0.561683	0.195488
52554		-0.198258	0.058079	-0.978428	-0.561681	-0.824808	0.064853	-0.803248	0.562422	0.196146
52555		-0.198918	0.058540	-0.978266	-0.562162	-0.824471	0.064971	-0.802749	0.562868	0.196911
52556		-0.199626	0.059129	-0.978086	-0.562501	-0.824239	0.064977	-0.802335	0.563146	0.197800
52557		-0.200491	0.059857	-0.977865	-0.562577	-0.824194	0.064894	-0.802066	0.563135	0.198917
52558		-0.201375	0.060565	-0.977640	-0.562173	-0.824484	0.064720	-0.802129	0.562635	0.200078
52559		-0.201988	0.061191	-0.977474	-0.561373	-0.825057	0.064354	-0.802534	0.561727	0.201003
52560		-0.202410	0.061911	-0.977342	-0.560622	-0.825610	0.063806	-0.802953	0.560834	0.201820
52561		-0.202927	0.062563	-0.977193	-0.559817	-0.826191	0.063357	-0.803384	0.559906	0.202680
52562		-0.203387	0.063266	-0.977052	-0.559054	-0.826746	0.062841	-0.803799	0.559006	0.203519
52563		-0.204155	0.064441	-0.976815	-0.558550	-0.827138	0.062170	-0.803955	0.558292	0.204858
52564		-0.205202	0.066078	-0.976486	-0.558720	-0.827077	0.061444	-0.803570	0.558191	0.206637
52565		-0.206354	0.067985	-0.976113	-0.559106	-0.826878	0.060606	-0.803006	0.558257	0.208640
52566		-0.206876	0.069654	-0.975885	-0.559494	-0.826689	0.059601	-0.802601	0.558332	0.209992
52567		-0.207431	0.071545	-0.975630	-0.560503	-0.826077	0.058592	-0.801754	0.558997	0.211455
52568		-0.208046	0.073615	-0.975345	-0.562774	-0.824587	0.057806	-0.800002	0.560925	0.212981
52569		-0.208163	0.075579	-0.975170	-0.564871	-0.823224	0.056777	-0.798492	0.562664	0.214057
52570		-0.208973	0.078297	-0.974782	-0.567423	-0.821543	0.055655	-0.796468	0.564744	0.216108
52571		-0.209280	0.080431	-0.974542	-0.570750	-0.819283	0.054950	-0.794007	0.567720	0.217366
52572		-0.209302	0.082097	-0.974399	-0.573860	-0.817143	0.054418	-0.791756	0.570559	0.218142
52573		-0.209658	0.083330	-0.974217	-0.577220	-0.814766	0.054530	-0.789215	0.573771	0.218922
52574		-0.210350	0.084239	-0.973990	-0.580843	-0.812141	0.055203	-0.786367	0.577347	0.219764
52575		-0.210781	0.084452	-0.973879	-0.583753	-0.809991	0.056104	-0.784094	0.580330	0.220030
52576		-0.211516	0.084390	-0.973724	-0.586752	-0.807726	0.057453	-0.781654	0.583487	0.220363
52577		-0.212895	0.084456	-0.973418	-0.589789	-0.805391	0.059115	-0.778989	0.586697	0.221275
52578		-0.213699	0.083916	-0.973289	-0.591998	-0.803651	0.060692	-0.777091	0.589155	0.221417
52579		-0.214339	0.083058	-0.973221	-0.593593	-0.802354	0.062256	-0.775697	0.591041	0.221279
52580		-0.214931	0.082135	-0.973169	-0.595218	-0.801023	0.063852	-0.774287	0.592972	0.221053
52581		-0.215451	0.081055	-0.973145	-0.595965	-0.800352	0.065282	-0.773567	0.594025	0.220743
52582		-0.215866	0.079742	-0.973161	-0.595972	-0.800236	0.066625	-0.773446	0.594359	0.220268
52583		-0.216654	0.078662	-0.973074	-0.595706	-0.800324	0.067936	-0.773431	0.594385	0.220253
52584		-0.217111	0.077328	-0.973079	-0.594629	-0.801033	0.069016	-0.774131	0.593605	0.219895
52585		-0.217631	0.075921	-0.973074	-0.593164	-0.802025	0.070087	-0.775109	0.592445	0.219579
52586		-0.218359	0.074742	-0.973002	-0.591682	-0.803031	0.071098	-0.776036	0.591232	0.219572
52587		-0.219087	0.073457	-0.972936	-0.589797	-0.804328	0.072084	-0.777264	0.589628	0.219542
52588		-0.219586	0.071925	-0.972938	-0.587227	-0.806129	0.072940	-0.779067	0.587352	0.219251
52589		-0.220322	0.070284	-0.972892	-0.584702	-0.807861	0.074050	-0.780757	0.585167	0.219085
52590		-0.220602	0.068348	-0.972966	-0.581885	-0.809801	0.075045	-0.782780	0.582709	0.218414
52591		-0.220522	0.066144	-0.973137	-0.579059	-0.811731	0.076047	-0.784896	0.580274	0.217305
52593		-0.219203	0.061466	-0.973741	-0.574237	-0.814982	0.077824	-0.788798	0.576218	0.213942
52594		-0.218172	0.059088	-0.974120	-0.571991	-0.816487	0.078581	-0.790713	0.574332	0.211932
52595		-0.216565	0.056489	-0.974632	-0.569567	-0.818126	0.079141	-0.792901	0.572258	0.209352
52596		-0.214726	0.053781	-0.975193	-0.567661	-0.819386	0.079804	-0.794767	0.570714	0.206473
52597		-0.212856	0.051400	-0.975731	-0.566588	-0.820070	0.080401	-0.796034	0.569951	0.203680
52598		-0.210533	0.048850	-0.976365	-0.565837	-0.820533	0.080958	-0.797185	0.569508	0.200390
52599		-0.207707	0.046048	-0.977107	-0.565085	-0.821004	0.081431	-0.798459	0.569062	0.196549
52600		-0.204577	0.043083	-0.977902	-0.565069	-0.820954	0.082044	-0.799278	0.569366	0.192293
52601		-0.201655	0.040393	-0.978623	-0.565280	-0.820753	0.082605	-0.799871	0.569854	0.188342
52602		-0.198622	0.038036	-0.979338	-0.565184	-0.820804	0.082748	-0.800697	0.569942	0.184527
52603		-0.195464	0.035817	-0.980057	-0.564539	-0.821266	0.082578	-0.801929	0.569421	0.180748
52604		-0.192269	0.033794	-0.980760	-0.564165	-0.821551	0.082291	-0.802964	0.569133	0.177024
52605		-0.189325	0.032195	-0.981386	-0.563581	-0.822005	0.081758	-0.804072	0.568569	0.173771
52606		-0.186183	0.031195	-0.982020	-0.562271	-0.823030	0.080458	-0.805722	0.567141	0.170774
52607		-0.182935	0.030694	-0.982646	-0.561127	-0.823978	0.078725	-0.807262	0.565790	0.167957
52608		-0.180127	0.031013	-0.983154	-0.560520	-0.824583	0.076684	-0.808314	0.564890	0.165913
52609		-0.178045	0.031832	-0.983507	-0.558301	-0.826302	0.074326	-0.810309	0.562326	0.164890
52610		-0.176662	0.033137	-0.983714	-0.556148	-0.827960	0.071986	-0.812090	0.559807	0.164698
52611		-0.176187	0.034706	-0.983745	-0.553301	-0.830051	0.069811	-0.814135	0.556607	0.165447
52612		-0.175871	0.036607	-0.983732	-0.549955	-0.832475	0.067343	-0.816467	0.552852	0.166540
52613		-0.176228	0.038655	-0.983590	-0.546999	-0.834590	0.065205	-0.818374	0.549513	0.168222
52614		-0.176230	0.041033	-0.983493	-0.543933	-0.836794	0.062554	-0.820414	0.545979	0.169788
52615		-0.176877	0.044319	-0.983235	-0.539760	-0.839732	0.059248	-0.823027	0.541190	0.172451
52616		-0.177652	0.048583	-0.982893	-0.535743	-0.842576	0.055186	-0.825481	0.536382	0.175713
52617		-0.177401	0.051946	-0.982767	-0.529205	-0.846974	0.050759	-0.829741	0.529090	0.177744
52618		-0.177184	0.055375	-0.982619	-0.522080	-0.851647	0.046146	-0.834289	0.521182	0.179808
52619		-0.177883	0.058674	-0.982301	-0.514174	-0.856660	0.041941	-0.839037	0.512534	0.182554
52620		-0.177395	0.061100	-0.982241	-0.504365	-0.862679	0.037426	-0.845072	0.502047	0.183852
52621		-0.177157	0.063163	-0.982154	-0.492227	-0.869847	0.032845	-0.852249	0.489261	0.185191
52622		-0.176727	0.065228	-0.982096	-0.481015	-0.876254	0.028360	-0.858716	0.477415	0.186233
52623		-0.176016	0.066595	-0.982132	-0.468685	-0.883036	0.024121	-0.865652	0.464556	0.186640
52624		-0.174551	0.067502	-0.982332	-0.457065	-0.889206	0.020114	-0.872137	0.452500	0.186065
52625		-0.174044	0.068267	-0.982369	-0.446143	-0.894803	0.016860	-0.877875	0.441212	0.186192
52626		-0.172887	0.068819	-0.982534	-0.436486	-0.899605	0.013794	-0.882944	0.431247	0.185569
52627		-0.171482	0.068859	-0.982778	-0.426086	-0.904616	0.010964	-0.888282	0.420628	0.184465
52628		-0.169527	0.068879	-0.983116	-0.417775	-0.908512	0.008388	-0.892595	0.412143	0.182793
52629		-0.168065	0.068831	-0.983370	-0.409284	-0.912387	0.006087	-0.896795	0.403501	0.181511
52630		-0.166094	0.068835	-0.983704	-0.402384	-0.915463	0.003880	-0.900278	0.396471	0.179751
52631		-0.164739	0.068984	-0.983922	-0.395777	-0.918345	0.001879	-0.903450	0.389723	0.178590
52632		-0.163670	0.069636	-0.984054	-0.390470	-0.920615	-0.000203	-0.905950	0.384211	0.177868
52633		-0.162639	0.070324	-0.984176	-0.384533	-0.923108	-0.002415	-0.908671	0.378055	0.177176
52634		-0.161221	0.071353	-0.984336	-0.379433	-0.925206	-0.004921	-0.911065	0.372696	0.176236
52635		-0.159938	0.072359	-0.984471	-0.373597	-0.927561	-0.007481	-0.913699	0.366599	0.175385
52636		-0.158674	0.073585	-0.984585	-0.368848	-0.929436	-0.010020	-0.915846	0.361572	0.174619
52637		-0.157723	0.074749	-0.984650	-0.364062	-0.931292	-0.012382	-0.917923	0.356521	0.174099
52638		-0.156587	0.075859	-0.984747	-0.359950	-0.932857	-0.014625	-0.919737	0.352170	0.173379
52639		-0.155325	0.076734	-0.984879	-0.355124	-0.934668	-0.016816	-0.921825	0.347142	0.172427
52640		-0.154319	0.077837	-0.984950	-0.350724	-0.936285	-0.019041	-0.923676	0.342508	0.171786
52641		-0.153173	0.078870	-0.985047	-0.345968	-0.938004	-0.021306	-0.925659	0.337531	0.170964
52642		-0.151623	0.079956	-0.985199	-0.340121	-0.940077	-0.023949	-0.928078	0.331456	0.169732
52643		-0.150081	0.081197	-0.985334	-0.333410	-0.942399	-0.026876	-0.930760	0.324486	0.168508
52644		-0.148627	0.082656	-0.985433	-0.326001	-0.944891	-0.030086	-0.933613	0.316780	0.167382
52645		-0.147393	0.084271	-0.985482	-0.317134	-0.947785	-0.033615	-0.936857	0.307576	0.166422
52646		-0.146386	0.086074	-0.985476	-0.307673	-0.950759	-0.037339	-0.940164	0.297739	0.165660
52647		-0.145713	0.087862	-0.985418	-0.297925	-0.953709	-0.040981	-0.943403	0.287609	0.165144
52648		-0.145635	0.089632	-0.985270	-0.287849	-0.956642	-0.044480	-0.946538	0.277131	0.165121
52651		-0.147702	0.094876	-0.984471	-0.255570	-0.965243	-0.054679	-0.955441	0.243525	0.166815
52652		-0.149384	0.096447	-0.984064	-0.244502	-0.967928	-0.057749	-0.958073	0.231979	0.168174
52653		-0.151140	0.097696	-0.983673	-0.233660	-0.970436	-0.060479	-0.960500	0.220704	0.169499
52654		-0.153004	0.098647	-0.983290	-0.222992	-0.972789	-0.062896	-0.962738	0.209642	0.170838
52655		-0.155129	0.099406	-0.982880	-0.212523	-0.974987	-0.065065	-0.964764	0.198791	0.172374
52656		-0.157709	0.100006	-0.982409	-0.203063	-0.976881	-0.066845	-0.966381	0.188949	0.174371
52659		-0.163886	0.100165	-0.981381	-0.176947	-0.981682	-0.070646	-0.970480	0.162074	0.178608
52660		-0.166007	0.099793	-0.981062	-0.169269	-0.982984	-0.071346	-0.971488	0.154219	0.180074
52661		-0.167684	0.099145	-0.980843	-0.162224	-0.984142	-0.071745	-0.972402	0.147085	0.181108
52662		-0.168760	0.098270	-0.980746	-0.155357	-0.985232	-0.071986	-0.973337	0.140218	0.181534
52663		-0.169989	0.097329	-0.980628	-0.149246	-0.986175	-0.072008	-0.974079	0.134114	0.182164
52664		-0.171642	0.096238	-0.980448	-0.144096	-0.986966	-0.071651	-0.974564	0.128980	0.183272
52665		-0.173399	0.094857	-0.980273	-0.139404	-0.987693	-0.070916	-0.974936	0.124357	0.184488
52666		-0.175134	0.093217	-0.980122	-0.134680	-0.988418	-0.069940	-0.975289	0.119754	0.185660
52667		-0.177107	0.091356	-0.979942	-0.129347	-0.989207	-0.068842	-0.975655	0.114561	0.187012
52668		-0.179393	0.089302	-0.979716	-0.123420	-0.990046	-0.067645	-0.976005	0.108782	0.188629
52669		-0.181774	0.087111	-0.979474	-0.116449	-0.990966	-0.066522	-0.976421	0.101967	0.190276
52670		-0.184165	0.084695	-0.979239	-0.108748	-0.991920	-0.065340	-0.976861	0.094457	0.191888
52671		-0.187329	0.082159	-0.978855	-0.100308	-0.992887	-0.064140	-0.977162	0.086171	0.194238
52672		-0.190633	0.079498	-0.978437	-0.091177	-0.993841	-0.062985	-0.977418	0.077204	0.196708
52673		-0.194203	0.076818	-0.977949	-0.081903	-0.994718	-0.061871	-0.977536	0.068081	0.199469
52674		-0.198317	0.074189	-0.977326	-0.074155	-0.995409	-0.060514	-0.977329	0.060473	0.202908
52675		-0.202635	0.071522	-0.976639	-0.068035	-0.995947	-0.058820	-0.976888	0.054527	0.206679
52676		-0.207060	0.068807	-0.975906	-0.063703	-0.996355	-0.056733	-0.976252	0.050421	0.210688
52677		-0.211243	0.065700	-0.975223	-0.061307	-0.996664	-0.053865	-0.975509	0.048410	0.214566
52678		-0.215721	0.062296	-0.974466	-0.059317	-0.996956	-0.050603	-0.974652	0.046887	0.218760
52679		-0.219742	0.058203	-0.973820	-0.057360	-0.997263	-0.046661	-0.973870	0.045605	0.222479
52680		-0.223287	0.053674	-0.973274	-0.054602	-0.997604	-0.042489	-0.973222	0.043655	0.225682
52681		-0.226153	0.048616	-0.972878	-0.050756	-0.997985	-0.038072	-0.972769	0.040770	0.228164
52682		-0.228691	0.042982	-0.972550	-0.045936	-0.998388	-0.033322	-0.972415	0.037054	0.230297
52683		-0.231022	0.036786	-0.972253	-0.040171	-0.998794	-0.028245	-0.972119	0.032531	0.232221
52684		-0.233019	0.030366	-0.971998	-0.032652	-0.999193	-0.023388	-0.971924	0.026288	0.233822
52685		-0.234419	0.023598	-0.971849	-0.023771	-0.999546	-0.018536	-0.971845	0.018756	0.234873
52686		-0.235829	0.016650	-0.971652	-0.013202	-0.999816	-0.013928	-0.971705	0.009543	0.236005
52687		-0.237362	0.009330	-0.971376	-0.001272	-0.999956	-0.009293	-0.971420	-0.000970	0.237364
52688		-0.239669	0.001755	-0.970853	0.010982	-0.999929	-0.004519	-0.970792	-0.011745	0.239633
52689		-0.242115	-0.006270	-0.970227	0.023832	-0.999716	0.000513	-0.969955	-0.022999	0.242196
52690		-0.244342	-0.014499	-0.969581	0.037669	-0.999275	0.005451	-0.968957	-0.035191	0.244711
52691		-0.246036	-0.022951	-0.968989	0.052615	-0.998562	0.010292	-0.967832	-0.048451	0.246890
52692		-0.247276	-0.031312	-0.968439	0.068435	-0.997546	0.014779	-0.966525	-0.062621	0.248812
52693		-0.247977	-0.039799	-0.967948	0.084829	-0.996210	0.019229	-0.965045	-0.077342	0.250413
52694		-0.248321	-0.048196	-0.967478	0.101730	-0.994536	0.023433	-0.963321	-0.092603	0.251867
52695		-0.248665	-0.056474	-0.966942	0.118735	-0.992547	0.027435	-0.961284	-0.107988	0.253517
52696		-0.248457	-0.064450	-0.966496	0.136261	-0.990188	0.031001	-0.959011	-0.123993	0.254801
52697		-0.247631	-0.072105	-0.966168	0.154692	-0.987376	0.034040	-0.956425	-0.141029	0.255659
52698		-0.246495	-0.079405	-0.965886	0.173848	-0.984094	0.036536	-0.953424	-0.158912	0.256379
52699		-0.245006	-0.086752	-0.965633	0.193645	-0.980299	0.038937	-0.949986	-0.177450	0.256978
52700		-0.243462	-0.093923	-0.965352	0.214632	-0.975842	0.040813	-0.945864	-0.197259	0.257739
52701		-0.241601	-0.101022	-0.965103	0.236901	-0.970613	0.042294	-0.941014	-0.218416	0.258433
52702		-0.239272	-0.107907	-0.964938	0.259809	-0.964682	0.043455	-0.935547	-0.240302	0.258856
52703		-0.236564	-0.114789	-0.964811	0.283209	-0.958023	0.044541	-0.929425	-0.262706	0.259143
52704		-0.233497	-0.121394	-0.964750	0.306445	-0.950802	0.045470	-0.922806	-0.285026	0.259210
52705		-0.230127	-0.128047	-0.964700	0.329284	-0.943079	0.046627	-0.915759	-0.306930	0.259191
52706		-0.226409	-0.134481	-0.964704	0.351876	-0.934829	0.047734	-0.908252	-0.328649	0.258974
52707		-0.222442	-0.141130	-0.964677	0.374073	-0.926092	0.049229	-0.900327	-0.349909	0.258795
52708		-0.218184	-0.147664	-0.964672	0.395915	-0.916881	0.050803	-0.891991	-0.370844	0.258511
52709		-0.213587	-0.154233	-0.964672	0.417296	-0.907244	0.052658	-0.883315	-0.391307	0.258137
52710		-0.208524	-0.160559	-0.964748	0.437668	-0.897467	0.054763	-0.874622	-0.410820	0.257415
52711		-0.202944	-0.166705	-0.964896	0.457801	-0.887226	0.056998	-0.865582	-0.430163	0.256374
52712		-0.197026	-0.172562	-0.965092	0.477993	-0.876372	0.059116	-0.855981	-0.449660	0.255152
52713		-0.190595	-0.178250	-0.965350	0.497979	-0.865012	0.061403	-0.845985	-0.469021	0.253632
52714		-0.183783	-0.183591	-0.965670	0.517852	-0.853100	0.063633	-0.835495	-0.488380	0.251858
52715		-0.176490	-0.188607	-0.966064	0.537635	-0.840599	0.065892	-0.824500	-0.507761	0.249759
52716		-0.168544	-0.193205	-0.966574	0.557407	-0.827434	0.068196	-0.812952	-0.527280	0.247153
52717		-0.160337	-0.197669	-0.967067	0.577115	-0.813604	0.070618	-0.800769	-0.546786	0.244528
52718		-0.151637	-0.201752	-0.967627	0.597402	-0.798622	0.072895	-0.787475	-0.567009	0.241627
52719		-0.141893	-0.205345	-0.968349	0.618450	-0.782213	0.075252	-0.772908	-0.588198	0.237986
52720		-0.131258	-0.208219	-0.969235	0.640200	-0.764290	0.077493	-0.756912	-0.610333	0.233621
52721		-0.120399	-0.210873	-0.970071	0.662932	-0.744441	0.079547	-0.738935	-0.633514	0.229424
52722		-0.110193	-0.213802	-0.970642	0.686225	-0.722831	0.081313	-0.718995	-0.657119	0.226367
52723		-0.100586	-0.216745	-0.971032	0.710829	-0.698534	0.082288	-0.696135	-0.681961	0.224332
52724		-0.090171	-0.218691	-0.971619	0.735913	-0.671976	0.082951	-0.671045	-0.707547	0.221531
52726		-0.067768	-0.221434	-0.972818	0.786536	-0.611743	0.084454	-0.613815	-0.759433	0.215622
52727		-0.056318	-0.222391	-0.973330	0.811141	-0.578601	0.085268	-0.582132	-0.784706	0.212976
52728		-0.044469	-0.222354	-0.973951	0.835347	-0.542982	0.085822	-0.547921	-0.809771	0.209889
52729		-0.032245	-0.221448	-0.974639	0.858706	-0.505139	0.086364	-0.511453	-0.834144	0.206447
52730		-0.019673	-0.219795	-0.975348	0.881371	-0.464369	0.086868	-0.472014	-0.857935	0.202856
52732		0.004842	-0.216105	-0.976358	0.921930	-0.377212	0.088064	-0.387325	-0.900561	0.197407
52733		0.017027	-0.213733	-0.976744	0.940409	-0.328395	0.088254	-0.339620	-0.920041	0.195405
52734		0.029294	-0.211140	-0.977017	0.956377	-0.278306	0.088819	-0.290663	-0.936998	0.193777
52735		0.041763	-0.208216	-0.977191	0.969811	-0.226736	0.089760	-0.240254	-0.951439	0.192461
52736		0.054552	-0.204369	-0.977373	0.980788	-0.172635	0.090841	-0.187294	-0.963551	0.191025
52737		0.067527	-0.200058	-0.977454	0.988899	-0.116548	0.092172	-0.132360	-0.972827	0.189967
52738		0.080241	-0.194629	-0.977589	0.993748	-0.060759	0.093664	-0.077627	-0.978993	0.188537
52739		0.092519	-0.188367	-0.977731	0.995521	-0.001668	0.094523	-0.019436	-0.982097	0.187369
52740		0.104231	-0.181410	-0.977868	0.993770	0.058020	0.095162	0.039472	-0.981695	0.186327
52741		0.114276	-0.173902	-0.978110	0.988442	0.118629	0.094391	0.099617	-0.977592	0.185449
52742		0.123942	-0.166057	-0.978296	0.979412	0.178791	0.093735	0.159346	-0.969773	0.184798
52743		0.133245	-0.158062	-0.978398	0.966899	0.237483	0.093313	0.217604	-0.958446	0.184474
52744		0.142032	-0.149589	-0.978494	0.950488	0.296639	0.092618	0.276405	-0.943201	0.184315
52745		0.150473	-0.140495	-0.978580	0.930443	0.354660	0.092153	0.334116	-0.924380	0.184090
52747		0.166482	-0.123014	-0.978341	0.880003	0.466143	0.091137	0.444836	-0.876115	0.185857
52748		0.174001	-0.114274	-0.978093	0.849881	0.519139	0.090539	0.497420	-0.847016	0.187450
52749		0.181026	-0.105784	-0.977773	0.816925	0.569740	0.089607	0.547597	-0.814988	0.189555
52750		0.188525	-0.098217	-0.977145	0.781640	0.617383	0.088750	0.594556	-0.780507	0.193163
52751		0.195374	-0.089959	-0.976594	0.743723	0.662704	0.087741	0.639300	-0.743458	0.196380
52752		0.201617	-0.080980	-0.976111	0.701729	0.707201	0.086272	0.683321	-0.702359	0.199410
52753		0.207020	-0.070775	-0.975773	0.655750	0.750211	0.084709	0.726040	-0.657400	0.201719
52754		0.210898	-0.059126	-0.975718	0.605436	0.791565	0.082897	0.767443	-0.608218	0.202737
52755		0.212751	-0.046376	-0.976005	0.549858	0.831384	0.080355	0.807708	-0.553760	0.202378
52756		0.213594	-0.033538	-0.976347	0.490819	0.867802	0.077567	0.844674	-0.495777	0.201818
52757		0.214127	-0.021366	-0.976572	0.429147	0.900165	0.074402	0.877486	-0.435025	0.201919
52758		0.214330	-0.009683	-0.976713	0.364344	0.928573	0.070745	0.906265	-0.371022	0.202549
52759		0.214975	0.001082	-0.976619	0.296037	0.952878	0.066220	0.930671	-0.303351	0.204525
52761		0.217764	0.021647	-0.975761	0.153064	0.986626	0.056048	0.963924	-0.161559	0.211538
52762		0.219490	0.031841	-0.975095	0.079768	0.995535	0.050464	0.972348	-0.088858	0.215970
52763		0.219568	0.042801	-0.974658	0.006374	0.998953	0.045304	0.975576	-0.016160	0.219066
52764		0.217039	0.054018	-0.974667	-0.067633	0.996900	0.040190	0.973817	0.057197	0.220020
52765		0.213395	0.065280	-0.974783	-0.140601	0.989430	0.035482	0.966796	0.129483	0.220318
52766		0.210425	0.076588	-0.974605	-0.211833	0.976813	0.031025	0.954384	0.199925	0.221770
52767		0.207575	0.088150	-0.974239	-0.280218	0.959553	0.027117	0.937225	0.267370	0.223880
52768		0.203305	0.099300	-0.974067	-0.346142	0.937891	0.023366	0.915889	0.332415	0.225050
52769		0.197702	0.110131	-0.974056	-0.410287	0.911741	0.019811	0.890269	0.395726	0.225438
52770		0.192641	0.121118	-0.973766	-0.472332	0.881273	0.016172	0.860112	0.456825	0.226977
52771		0.187777	0.132203	-0.973274	-0.530265	0.847735	0.012845	0.826776	0.513681	0.229288
52772		0.182883	0.142770	-0.972713	-0.585873	0.810355	0.008789	0.789498	0.568279	0.231845
52773		0.176879	0.152574	-0.972335	-0.638377	0.769710	0.004651	0.749125	0.619893	0.233545
52774		0.170178	0.161504	-0.972089	-0.686611	0.727025	0.000588	0.706827	0.667347	0.234614
52775		0.163455	0.170585	-0.971691	-0.730903	0.682474	-0.003139	0.662618	0.710725	0.236235
52776		0.156596	0.179915	-0.971138	-0.771017	0.636783	-0.006355	0.617261	0.749758	0.238436
52777		0.148312	0.187960	-0.970914	-0.807215	0.590187	-0.009051	0.571320	0.785079	0.239256
52778		0.138811	0.194548	-0.971021	-0.840579	0.541563	-0.011660	0.523601	0.817839	0.238708
52779		0.128896	0.200615	-0.971154	-0.871145	0.490820	-0.014232	0.473807	0.847850	0.238030
52781		0.108898	0.212412	-0.971093	-0.924430	0.380807	-0.020369	0.365473	0.899926	0.237829
52782		0.098270	0.216547	-0.971314	-0.946336	0.322300	-0.023889	0.307881	0.921537	0.236599
52783		0.087366	0.218846	-0.971840	-0.965045	0.260574	-0.028077	0.247092	0.940323	0.233962
52784		0.076619	0.220387	-0.972399	-0.979511	0.198812	-0.032120	0.186245	0.954936	0.231104
52785		0.066125	0.221571	-0.972900	-0.989947	0.136745	-0.036141	0.125031	0.965509	0.228386
52787		0.045570	0.224411	-0.973428	-0.998925	0.018470	-0.042505	0.008441	0.974319	0.225012
52788		0.035354	0.226194	-0.973440	-0.998299	-0.037183	-0.044897	-0.046351	0.973372	0.224495
52789		0.025028	0.226826	-0.973614	-0.994948	-0.089062	-0.046325	-0.097220	0.969855	0.223451
52790		0.015059	0.226341	-0.973932	-0.989278	-0.138138	-0.047400	-0.145266	0.964203	0.221834
52791		0.005469	0.224262	-0.974513	-0.981614	-0.184735	-0.048021	-0.190797	0.956859	0.219129
52792		-0.003462	0.220826	-0.975307	-0.972174	-0.229197	-0.048444	-0.234235	0.948000	0.215474
52793		-0.011813	0.216571	-0.976195	-0.961061	-0.272010	-0.048716	-0.276085	0.937607	0.211351
52794		-0.019553	0.212239	-0.977022	-0.948093	-0.314154	-0.049270	-0.317393	0.925344	0.207365
52795		-0.026739	0.207754	-0.977816	-0.933262	-0.355691	-0.050052	-0.358198	0.911220	0.203400
52796		-0.033473	0.203353	-0.978533	-0.917135	-0.395328	-0.050782	-0.397168	0.895747	0.199735
52797		-0.039238	0.197828	-0.979451	-0.900045	-0.432761	-0.051352	-0.434028	0.879535	0.195035
52798		-0.044483	0.192487	-0.980291	-0.881423	-0.469436	-0.052180	-0.470228	0.861730	0.190545
52799		-0.049815	0.187556	-0.980990	-0.861370	-0.505221	-0.052852	-0.505529	0.842363	0.186723
52801		-0.060452	0.178287	-0.982120	-0.819581	-0.570496	-0.053117	-0.569765	0.801716	0.180608
52802		-0.065185	0.172586	-0.982835	-0.798250	-0.600040	-0.052424	-0.598788	0.781131	0.176880
52803		-0.069839	0.166851	-0.983506	-0.775719	-0.628964	-0.051619	-0.627202	0.759319	0.173356
52804		-0.074928	0.162296	-0.983893	-0.752992	-0.656060	-0.050875	-0.653750	0.737052	0.171365
52805		-0.080125	0.158000	-0.984183	-0.730099	-0.681511	-0.049970	-0.678627	0.714548	0.169961
52806		-0.084615	0.153215	-0.984564	-0.707702	-0.704819	-0.048861	-0.701426	0.692643	0.168069
52807		-0.088491	0.148067	-0.985010	-0.685484	-0.726528	-0.047630	-0.722690	0.670994	0.165789
52808		-0.091906	0.142585	-0.985506	-0.663758	-0.746525	-0.046108	-0.742279	0.649900	0.163252
52809		-0.094086	0.136136	-0.986212	-0.643121	-0.764489	-0.044174	-0.759963	0.630098	0.159480
52810		-0.093984	0.128225	-0.987282	-0.623705	-0.780531	-0.042000	-0.775989	0.611825	0.153332
52811		-0.092242	0.120023	-0.988477	-0.604901	-0.795289	-0.040118	-0.790940	0.594230	0.145961
52812		-0.091025	0.112684	-0.989453	-0.585049	-0.810087	-0.038435	-0.805873	0.575380	0.139664
52813		-0.089159	0.105285	-0.990437	-0.566362	-0.823346	-0.036539	-0.819319	0.557689	0.133038
52814		-0.087049	0.098098	-0.991362	-0.549150	-0.835015	-0.034407	-0.831178	0.541411	0.126558
52815		-0.085621	0.091758	-0.992094	-0.533299	-0.845316	-0.032157	-0.841583	0.526329	0.121311
52816		-0.085044	0.086311	-0.992632	-0.520211	-0.853523	-0.029646	-0.849793	0.513856	0.117487
52817		-0.084872	0.080774	-0.993112	-0.510123	-0.859698	-0.026328	-0.855904	0.504375	0.114169
52818		-0.085452	0.074745	-0.993535	-0.503817	-0.863539	-0.021633	-0.859573	0.498711	0.111449
52819		-0.086474	0.067544	-0.993962	-0.498935	-0.866501	-0.015476	-0.862315	0.494584	0.108629
52820		-0.088186	0.059980	-0.994297	-0.491820	-0.870651	-0.008901	-0.866220	0.488230	0.106278
52821		-0.089626	0.052842	-0.994573	-0.486962	-0.873420	-0.002523	-0.868813	0.484093	0.104013
52823		-0.100697	0.045149	-0.993892	-0.492466	-0.870270	0.010362	-0.864487	0.490502	0.109868
52825		-0.135555	0.063101	-0.988758	-0.487282	-0.873175	0.011080	-0.862660	0.483306	0.149111
52826		-0.141334	0.064839	-0.987836	-0.480534	-0.876905	0.011194	-0.865513	0.476271	0.155094
52827		-0.136472	0.061454	-0.988736	-0.462932	-0.886350	0.008806	-0.875825	0.458919	0.149411
52828		-0.127044	0.056871	-0.990265	-0.440450	-0.897764	0.004948	-0.888743	0.436791	0.139104
52829		-0.121388	0.055612	-0.991046	-0.426264	-0.904597	0.001449	-0.896417	0.422624	0.133512
52831		-0.123466	0.062979	-0.990348	-0.403984	-0.914733	-0.007806	-0.906396	0.399121	0.138381
52832		-0.118616	0.064472	-0.990845	-0.391949	-0.919896	-0.012934	-0.912308	0.386826	0.134384
52833		-0.113147	0.065355	-0.991427	-0.382007	-0.923997	-0.017314	-0.917207	0.376773	0.129513
52834		-0.112413	0.067696	-0.991353	-0.373615	-0.927347	-0.020960	-0.920747	0.368029	0.129538
52835		-0.114296	0.070552	-0.990938	-0.366952	-0.929933	-0.023884	-0.923191	0.360897	0.132177
52836		-0.114081	0.072248	-0.990841	-0.359660	-0.932704	-0.026599	-0.926083	0.353331	0.132389
52837		-0.110821	0.072797	-0.991171	-0.351970	-0.935551	-0.029359	-0.929428	0.345609	0.129301
52838		-0.106400	0.073075	-0.991635	-0.345630	-0.937824	-0.032024	-0.932319	0.339331	0.125042
52839		-0.101708	0.073444	-0.992100	-0.341247	-0.939338	-0.034554	-0.934455	0.335036	0.120600
52840		-0.097149	0.074306	-0.992492	-0.337918	-0.940435	-0.037331	-0.936148	0.331755	0.116472
52841		-0.093027	0.075975	-0.992761	-0.334220	-0.941614	-0.040743	-0.937893	0.328010	0.112988
52842		-0.090130	0.078600	-0.992824	-0.331616	-0.942364	-0.044500	-0.939099	0.325225	0.111000
52843		-0.088962	0.082481	-0.992614	-0.330306	-0.942616	-0.048723	-0.939672	0.323531	0.111101
52844		-0.088275	0.087377	-0.992256	-0.328950	-0.942816	-0.053759	-0.940213	0.321657	0.111970
52845		-0.086794	0.092778	-0.991897	-0.328199	-0.942735	-0.059461	-0.940613	0.320379	0.112274
52846		-0.083773	0.098056	-0.991649	-0.329909	-0.941755	-0.065252	-0.940288	0.321688	0.111243
52847		-0.080300	0.103530	-0.991380	-0.333728	-0.939982	-0.071131	-0.939243	0.325139	0.110032
52848		-0.077317	0.109265	-0.991001	-0.338714	-0.937736	-0.076966	-0.937707	0.329715	0.109513
52849		-0.074258	0.114892	-0.990599	-0.345566	-0.934760	-0.082511	-0.935452	0.336190	0.109116
52850		-0.070608	0.120041	-0.990255	-0.354490	-0.930950	-0.087576	-0.932390	0.344852	0.108286
52851		-0.066050	0.124674	-0.989997	-0.364788	-0.926500	-0.092340	-0.928745	0.355040	0.106675
52852		-0.060755	0.128769	-0.989812	-0.376184	-0.921476	-0.096788	-0.924551	0.366471	0.104425
52853		-0.055900	0.132867	-0.989556	-0.389226	-0.915594	-0.100949	-0.919445	0.379518	0.102897
52854		-0.052128	0.137055	-0.989191	-0.403151	-0.909123	-0.104716	-0.913648	0.393334	0.102645
52855		-0.049393	0.141418	-0.988717	-0.416417	-0.902699	-0.108312	-0.907831	0.406369	0.103476
52856		-0.046497	0.145283	-0.988297	-0.429682	-0.896068	-0.111509	-0.901782	0.419469	0.104090
52857		-0.043330	0.148670	-0.987937	-0.442396	-0.889487	-0.114451	-0.895772	0.432100	0.104313
52858		-0.040796	0.151194	-0.987662	-0.453882	-0.883415	-0.116488	-0.890127	0.443530	0.104664
52859		-0.040223	0.153480	-0.987333	-0.464074	-0.877959	-0.117572	-0.884883	0.453467	0.106540
52860		-0.042619	0.156356	-0.986781	-0.473175	-0.873044	-0.117898	-0.879937	0.461895	0.111192
52862		-0.049600	0.160390	-0.985807	-0.487964	-0.865095	-0.116199	-0.871454	0.475274	0.121173
52863		-0.053416	0.160801	-0.985540	-0.491618	-0.863289	-0.114209	-0.869171	0.478409	0.125166
52864		-0.058282	0.160685	-0.985283	-0.494818	-0.861842	-0.111284	-0.867040	0.481050	0.129740
52865		-0.065034	0.160197	-0.984940	-0.496963	-0.861119	-0.107244	-0.865331	0.482504	0.135614
52866		-0.072615	0.158693	-0.984654	-0.499630	-0.860237	-0.101795	-0.863190	0.484571	0.141754
52867		-0.079161	0.155358	-0.984681	-0.502102	-0.859547	-0.095250	-0.861178	0.486870	0.146048
52868		-0.084399	0.150618	-0.984983	-0.501121	-0.860820	-0.088693	-0.861251	0.486110	0.148130
52869		-0.089059	0.145198	-0.985386	-0.498162	-0.863182	-0.082167	-0.862498	0.483564	0.149206
52870		-0.094002	0.139278	-0.985782	-0.494545	-0.865894	-0.075181	-0.864054	0.480446	0.150275
52871		-0.099524	0.133279	-0.986069	-0.489699	-0.869231	-0.068061	-0.866193	0.476104	0.151776
52872		-0.105255	0.126767	-0.986332	-0.483934	-0.873006	-0.060559	-0.868751	0.470946	0.153235
52873		-0.110360	0.119616	-0.986668	-0.475025	-0.878353	-0.053353	-0.873024	0.462804	0.153755
52874		-0.113255	0.110819	-0.987366	-0.462588	-0.885363	-0.046310	-0.879310	0.451499	0.151535
52875		-0.114980	0.101611	-0.988157	-0.448227	-0.893039	-0.039675	-0.886495	0.438357	0.148226
52876		-0.117323	0.092858	-0.988743	-0.431883	-0.901311	-0.033400	-0.894267	0.423103	0.145848
52877		-0.119351	0.084280	-0.989269	-0.413745	-0.909974	-0.027608	-0.902536	0.406010	0.143476
52879		-0.117079	0.064472	-0.991028	-0.368198	-0.929592	-0.016977	-0.922346	0.362907	0.132574
52880		-0.112230	0.053641	-0.992233	-0.340191	-0.940275	-0.012354	-0.933635	0.336162	0.123775
52881		-0.106922	0.043309	-0.993324	-0.308640	-0.951143	-0.008247	-0.945150	0.305697	0.115065
52882		-0.100417	0.033428	-0.994384	-0.273582	-0.961837	-0.004706	-0.956593	0.271573	0.105730
52883		-0.093465	0.024435	-0.995323	-0.234277	-0.972168	-0.001867	-0.967667	0.233007	0.096589
52884		-0.086429	0.017650	-0.996102	-0.191189	-0.981553	-0.000804	-0.977741	0.190374	0.088209
52885		-0.079831	0.012932	-0.996725	-0.144524	-0.989500	-0.001263	-0.986276	0.143950	0.080861
52886		-0.075046	0.010895	-0.997121	-0.093419	-0.995619	-0.003847	-0.992795	0.092862	0.075735
52887		-0.071451	0.009795	-0.997396	-0.038450	-0.999236	-0.007059	-0.996703	0.037845	0.071773
52888		-0.066879	0.009845	-0.997713	0.017893	-0.999779	-0.011065	-0.997601	-0.018592	0.066688
52889		-0.060297	0.010163	-0.998129	0.078079	-0.996836	-0.014867	-0.995122	-0.078829	0.059312
52891		-0.047982	0.012582	-0.998769	0.202172	-0.979102	-0.022047	-0.978174	-0.202981	0.044436
52892		-0.042158	0.013305	-0.999022	0.265113	-0.963918	-0.024025	-0.963295	-0.265867	0.037110
52893		-0.034544	0.014730	-0.999295	0.332525	-0.942753	-0.025391	-0.942462	-0.333167	0.027668
52894		-0.024477	0.017849	-0.999541	0.402422	-0.915080	-0.026195	-0.915127	-0.402878	0.015216
52895		-0.011403	0.025674	-0.999605	0.469668	-0.882398	-0.028021	-0.882769	-0.469802	-0.001996
52898		0.039134	0.061167	-0.997360	0.654920	-0.755417	-0.020631	-0.754684	-0.652384	-0.069622
52899		0.043898	0.068564	-0.996680	0.701162	-0.712771	-0.018151	-0.711649	-0.698038	-0.079364
52900		0.038375	0.064874	-0.997155	0.756027	-0.654401	-0.013480	-0.653414	-0.753359	-0.074159
52901		0.031516	0.057296	-0.997860	0.825830	-0.563884	-0.006295	-0.563038	-0.823864	-0.065088
52902		0.026661	0.047864	-0.998498	0.883607	-0.468228	0.001148	-0.467470	-0.882310	-0.054776
52903		0.020953	0.032926	-0.999238	0.917297	-0.398157	0.006115	-0.397652	-0.916726	-0.038545
52904		0.019868	0.017293	-0.999653	0.940967	-0.338253	0.012850	-0.337914	-0.940896	-0.022993
52905		0.025616	0.008854	-0.999633	0.967516	-0.251800	0.022563	-0.251508	-0.967739	-0.015017
52906		0.036451	0.010126	-0.999284	0.990193	-0.135317	0.034748	-0.134869	-0.990751	-0.014959
52907		0.047280	0.016810	-0.998740	0.998732	-0.018086	0.046975	-0.017273	-0.999695	-0.017644
52908		0.056373	0.019151	-0.998226	0.994941	0.082190	0.057764	0.083150	-0.996433	-0.014421
52909		0.065218	0.013409	-0.997781	0.981145	0.181447	0.066569	0.181937	-0.983309	-0.001323
52910		0.076070	0.007165	-0.997077	0.954059	0.290112	0.074873	0.289800	-0.956966	0.015233
52911		0.085758	0.008070	-0.996283	0.914951	0.395154	0.081957	0.394347	-0.918579	0.026504
52912		0.092753	0.014469	-0.995584	0.868877	0.487138	0.088028	0.486261	-0.873205	0.032611
52913		0.098425	0.020922	-0.994925	0.814550	0.572651	0.092623	0.571683	-0.819532	0.039321
52914		0.105581	0.026075	-0.994069	0.747445	0.657259	0.096627	0.655880	-0.753214	0.049905
52915		0.111023	0.033296	-0.993260	0.669366	0.736240	0.099500	0.734590	-0.675901	0.059452
52917		0.115261	0.053294	-0.991905	0.494220	0.863117	0.103803	0.861662	-0.502184	0.073144
52918		0.114303	0.064673	-0.991339	0.396986	0.911769	0.105255	0.910679	-0.405579	0.078544
52919		0.114741	0.075439	-0.990527	0.299881	0.947964	0.106935	0.947051	-0.309310	0.086147
52920		0.118967	0.083703	-0.989364	0.211445	0.971448	0.107612	0.970123	-0.221998	0.097872
52922		0.124791	0.097777	-0.987354	0.071493	0.991660	0.107239	0.989604	-0.083971	0.116760
52923		0.124021	0.105460	-0.986660	0.006398	0.994231	0.107073	0.992259	-0.019592	0.122631
52924		0.118557	0.113476	-0.986442	-0.061603	0.992375	0.106755	0.991034	0.048111	0.124643
52925		0.104402	0.120573	-0.987199	-0.127474	0.986059	0.106952	0.986332	0.114677	0.118316
52926		0.081696	0.125247	-0.988756	-0.200852	0.973787	0.106756	0.976209	0.189872	0.104711
52927		0.053876	0.125290	-0.990656	-0.286681	0.952272	0.104844	0.956510	0.278353	0.087223
52928		0.023450	0.125748	-0.991785	-0.357213	0.927621	0.109167	0.933728	0.351719	0.066671
52929		-0.013863	0.119054	-0.992791	-0.367308	0.922863	0.115798	0.929996	0.366266	0.030936
52930		0.012540	0.125003	-0.992077	-0.400053	0.909916	0.109594	0.916406	0.395510	0.061418
52931		0.063334	0.151394	-0.986442	-0.453347	0.884924	0.106707	0.889081	0.440442	0.124680
52932		0.096107	0.180430	-0.978881	-0.469916	0.875165	0.115176	0.877463	0.448923	0.168896
52933		0.084132	0.194454	-0.977297	-0.461803	0.876698	0.134682	0.882983	0.439988	0.163557
52934		0.042651	0.190513	-0.980758	-0.472171	0.868950	0.148260	0.880474	0.456762	0.127016
52935		0.001357	0.176225	-0.984349	-0.519202	0.841400	0.149918	0.854651	0.510872	0.092638
52936		-0.018094	0.164847	-0.986153	-0.557122	0.817343	0.146850	0.830234	0.552064	0.077051
52937		-0.014288	0.162747	-0.986564	-0.563408	0.813813	0.142409	0.826055	0.557873	0.080065
52938		0.006436	0.166383	-0.986040	-0.569022	0.811461	0.133211	0.822297	0.560221	0.099898
52939		0.028667	0.166708	-0.985590	-0.583666	0.803243	0.118888	0.811488	0.571847	0.120328
52940		0.039333	0.157610	-0.986718	-0.598408	0.794536	0.103058	0.800225	0.586406	0.125567
52941		0.043898	0.144011	-0.988602	-0.616566	0.782525	0.086613	0.786079	0.605736	0.123144
52942		0.051085	0.134198	-0.989637	-0.635547	0.768750	0.071439	0.770370	0.625311	0.124561
52943		0.059800	0.128550	-0.989898	-0.648555	0.758849	0.059366	0.758815	0.638453	0.128751
52944		0.067327	0.124283	-0.989960	-0.660290	0.749399	0.049176	0.747987	0.650350	0.132517
52945		0.072783	0.118553	-0.990277	-0.675083	0.736732	0.038583	0.734142	0.665711	0.133655
52946		0.077659	0.112430	-0.990620	-0.689334	0.723897	0.028119	0.720269	0.680685	0.133719
52947		0.083272	0.106319	-0.990839	-0.702413	0.711559	0.017319	0.706881	0.694536	0.133933
52948		0.088527	0.099543	-0.991087	-0.716126	0.697944	0.006134	0.692334	0.709200	0.133072
52949		0.093304	0.091273	-0.991445	-0.731963	0.681317	-0.006162	0.674926	0.726276	0.130378
52950		0.097556	0.082115	-0.991837	-0.748811	0.662516	-0.018802	0.655564	0.744533	0.126121
52951		0.101757	0.072123	-0.992191	-0.764754	0.643544	-0.031652	0.636236	0.762003	0.120642
52952		0.105721	0.061554	-0.992489	-0.779019	0.625440	-0.044193	0.618022	0.777840	0.114074
52953		0.109734	0.049830	-0.992711	-0.791511	0.608495	-0.056949	0.601222	0.791991	0.106214
52954		0.112160	0.037404	-0.992986	-0.802754	0.592379	-0.068358	0.585667	0.804791	0.096468
52955		0.112681	0.024093	-0.993339	-0.812112	0.578252	-0.078098	0.572519	0.815502	0.084724
52956		0.113126	0.012664	-0.993500	-0.818259	0.568391	-0.085927	0.563608	0.822661	0.074663
52957		0.114573	0.005326	-0.993401	-0.823648	0.559591	-0.091994	0.555408	0.828752	0.068501
52958		0.116276	0.003347	-0.993211	-0.831863	0.546694	-0.095545	0.542663	0.837325	0.066352
52959		0.118679	0.007300	-0.992906	-0.843606	0.528137	-0.096951	0.523683	0.849128	0.068837
52960		0.119176	0.014845	-0.992762	-0.857033	0.506369	-0.095310	0.501290	0.862189	0.073070
52961		0.116443	0.020494	-0.992986	-0.870479	0.483512	-0.092098	0.478233	0.875098	0.074141
52962		0.110556	0.022969	-0.993604	-0.884904	0.457406	-0.087888	0.452462	0.888961	0.070894
52963		0.105022	0.027384	-0.994093	-0.900978	0.425763	-0.083456	0.420963	0.904420	0.069387
52964		0.101284	0.036959	-0.994171	-0.916276	0.392730	-0.078748	0.387530	0.918911	0.073642
52965		0.098241	0.049651	-0.993923	-0.927513	0.366519	-0.073367	0.360649	0.929085	0.082059
52966		0.092976	0.062508	-0.993704	-0.932651	0.354886	-0.064940	0.348593	0.932817	0.091295
52967		0.086240	0.072255	-0.993651	-0.929160	0.365705	-0.054050	0.359478	0.927922	0.098675
52968		0.076091	0.075962	-0.994203	-0.916564	0.397908	-0.039747	0.392582	0.914275	0.099901
52969		0.064741	0.074585	-0.995111	-0.899490	0.436177	-0.025828	0.432118	0.896765	0.095327
52970		0.053067	0.071039	-0.996061	-0.887137	0.461283	-0.014365	0.458445	0.884405	0.087500
52971		0.043911	0.066853	-0.996796	-0.886183	0.463267	-0.007967	0.461250	0.883694	0.079586
52972		0.034286	0.063217	-0.997411	-0.890306	0.455360	-0.001743	0.454071	0.888060	0.071895
52973		0.023680	0.062895	-0.997739	-0.894992	0.446029	0.006875	0.445453	0.892806	0.066852
52974		0.012129	0.063244	-0.997924	-0.900130	0.435303	0.016647	0.435452	0.898060	0.062207
52975		0.000767	0.062358	-0.998054	-0.903567	0.427655	0.026025	0.428446	0.901789	0.056673
52976		-0.008669	0.062276	-0.998021	-0.907316	0.419069	0.034031	0.420359	0.905816	0.052871
52977		-0.015589	0.060279	-0.998060	-0.911715	0.408974	0.038941	0.410528	0.910553	0.048581
52978		-0.021969	0.055365	-0.998224	-0.917908	0.394554	0.042085	0.396184	0.917203	0.042152
52979		-0.024324	0.049596	-0.998473	-0.928426	0.369251	0.040959	0.370719	0.928005	0.037064
52980		-0.022904	0.047354	-0.998616	-0.941504	0.334913	0.037475	0.336224	0.941058	0.036913
52981		-0.018354	0.047105	-0.998721	-0.955971	0.291784	0.031331	0.292887	0.955323	0.039675
52982		-0.014542	0.043373	-0.998953	-0.971241	0.236845	0.024422	0.237656	0.970579	0.038681
52983		-0.010560	0.034798	-0.999339	-0.984853	0.172613	0.016417	0.173070	0.984375	0.032448
52984		-0.007468	0.026214	-0.999628	-0.994274	0.106371	0.010217	0.106600	0.993981	0.025269
52985		-0.002978	0.020182	-0.999792	-0.999102	0.042205	0.003827	0.042273	0.998905	0.020038
52986		0.000226	0.018839	-0.999823	-0.999736	-0.022985	-0.000659	-0.022993	0.999558	0.018829
52987		0.003286	0.016465	-0.999859	-0.995738	-0.092100	-0.004789	-0.092166	0.995614	0.016092
52988		0.004822	0.006790	-0.999965	-0.986592	-0.163098	-0.005865	-0.163132	0.986587	0.005913
52989		0.009867	-0.015154	-0.999836	-0.972302	-0.233648	-0.006054	-0.233519	0.972203	-0.017040
52990		0.016962	-0.044375	-0.998871	-0.953456	-0.301518	-0.002795	-0.301054	0.952427	-0.047424
52991		0.025982	-0.069032	-0.997276	-0.929744	-0.368205	0.001264	-0.367289	0.927178	-0.073749
52992		0.032994	-0.084114	-0.995910	-0.897113	-0.441735	0.007588	-0.440566	0.893194	-0.090034
52993		0.035689	-0.086885	-0.995579	-0.850577	-0.525626	0.015380	-0.524638	0.846267	-0.092661
52994		0.033969	-0.080356	-0.996187	-0.782091	-0.622718	0.023562	-0.622237	0.778309	-0.083998
52995		0.035005	-0.079009	-0.996259	-0.698583	-0.714806	0.032142	-0.714672	0.694845	-0.080216
52996		0.044300	-0.086421	-0.995273	-0.625263	-0.779396	0.039845	-0.779156	0.620543	-0.088563
52997		0.052697	-0.088022	-0.994724	-0.565092	-0.823908	0.042970	-0.823343	0.559846	-0.093158
52998		0.053174	-0.086371	-0.994843	-0.495935	-0.866989	0.048763	-0.866730	0.490785	-0.088936
52999		0.052844	-0.086641	-0.994837	-0.406289	-0.911912	0.057838	-0.912215	0.401135	-0.083390
53000		0.052839	-0.090898	-0.994457	-0.307709	-0.948874	0.070382	-0.950012	0.302285	-0.078108
53001		0.052451	-0.095697	-0.994028	-0.212925	-0.973580	0.082494	-0.975660	0.207326	-0.071441
53002		0.054193	-0.104680	-0.993028	-0.111571	-0.988897	0.098156	-0.992278	0.105474	-0.065270
53003		0.058697	-0.114628	-0.991673	0.002513	-0.993366	0.114972	-0.998273	-0.009241	-0.058019
53004		0.060533	-0.126365	-0.990135	0.118232	-0.984063	0.132818	-0.991139	-0.125105	-0.044628
53005		0.062311	-0.136840	-0.988631	0.223647	-0.963452	0.147450	-0.972676	-0.230292	-0.029430
53006		0.064720	-0.147947	-0.986875	0.323120	-0.932563	0.160995	-0.944142	-0.329299	-0.012551
53007		0.068053	-0.157044	-0.985244	0.421716	-0.890446	0.171062	-0.904171	-0.427134	0.005630
53008		0.073498	-0.166247	-0.983341	0.514323	-0.838452	0.180194	-0.854441	-0.518999	0.023880
53009		0.080640	-0.172803	-0.981650	0.596276	-0.780831	0.186435	-0.798719	-0.600368	0.040072
53010		0.088779	-0.178808	-0.979871	0.668388	-0.718684	0.191704	-0.738495	-0.671953	0.055709
53011		0.096618	-0.182060	-0.978529	0.732354	-0.652774	0.193763	-0.674034	-0.735351	0.070263
53012		0.103537	-0.184565	-0.977352	0.789041	-0.583010	0.193684	-0.605553	-0.791224	0.085266
53013		0.107108	-0.187524	-0.976403	0.836797	-0.513346	0.190385	-0.536935	-0.837443	0.101936
53014		0.109578	-0.191475	-0.975361	0.873891	-0.448998	0.186322	-0.473611	-0.872776	0.118128
53015		0.110522	-0.192962	-0.974962	0.902549	-0.391272	0.179753	-0.416161	-0.899818	0.130913
53016		0.114123	-0.191233	-0.974888	0.925465	-0.336345	0.174315	-0.361234	-0.922118	0.138595
53017		0.118683	-0.187549	-0.975059	0.945269	-0.279254	0.168771	-0.303942	-0.941723	0.144141
53018		0.127232	-0.179031	-0.975582	0.961212	-0.220409	0.165806	-0.244711	-0.958837	0.144043
53019		0.136581	-0.165522	-0.976703	0.972618	-0.164746	0.163930	-0.188041	-0.972348	0.138488
53020		0.144828	-0.147988	-0.978327	0.981791	-0.101351	0.160672	-0.122932	-0.983782	0.130615
53021		0.149939	-0.130189	-0.980086	0.987640	-0.026070	0.154558	-0.045672	-0.991146	0.124670
53022		0.152974	-0.110435	-0.982040	0.987706	0.049453	0.148295	0.032188	-0.992652	0.116643
53023		0.152893	-0.072377	-0.985589	0.983555	0.108172	0.144634	0.096145	-0.991494	0.087725
53024		0.144445	-0.024090	-0.989220	0.984659	0.102401	0.141286	0.097894	-0.994451	0.038512
53025		0.136178	-0.055468	-0.989130	0.985883	0.105770	0.129800	0.097420	-0.992842	0.069089
53026		0.135531	-0.092273	-0.986467	0.978374	0.169489	0.118566	0.156254	-0.981203	0.113248
53029		0.159950	-0.046065	-0.986050	0.958772	0.244941	0.144083	0.234887	-0.968443	0.083344
53030		0.159965	-0.026130	-0.986777	0.940380	0.308004	0.144288	0.300161	-0.951026	0.073842
53031		0.154315	-0.012301	-0.987945	0.924645	0.354155	0.140018	0.348163	-0.935106	0.066025
53032		0.147266	-0.009878	-0.989048	0.915496	0.379877	0.132521	0.374407	-0.924984	0.064986
53033		0.141889	-0.019752	-0.989686	0.907673	0.401518	0.122117	0.394965	-0.915638	0.074899
53034		0.133554	-0.026220	-0.990695	0.898899	0.424136	0.109954	0.417306	-0.905219	0.080214
53035		0.119990	-0.025973	-0.992435	0.888743	0.448301	0.095721	0.442423	-0.893505	0.076875
53036		0.107858	-0.027135	-0.993796	0.876680	0.473998	0.082205	0.468826	-0.880108	0.074913
53037		0.097667	-0.030607	-0.994748	0.863110	0.500231	0.069351	0.495482	-0.865351	0.075273
53038		0.088524	-0.030230	-0.995615	0.848802	0.525351	0.059519	0.521248	-0.850349	0.072165
53039		0.078754	-0.027319	-0.996520	0.833627	0.549986	0.050803	0.546684	-0.834727	0.066087
53040		0.070944	-0.024916	-0.997169	0.817657	0.574034	0.043829	0.571317	-0.818452	0.061097
53041		0.063753	-0.024285	-0.997670	0.797950	0.601627	0.036345	0.599343	-0.798408	0.057734
53042		0.055433	-0.021421	-0.998233	0.777008	0.628792	0.029655	0.627046	-0.777278	0.051500
53043		0.046336	-0.019635	-0.998733	0.757924	0.651959	0.022347	0.650695	-0.758000	0.045091
53044		0.038513	-0.018810	-0.999081	0.740549	0.671814	0.015899	0.670898	-0.740481	0.039803
53045		0.029557	-0.019825	-0.999366	0.721982	0.691870	0.007629	0.691280	-0.721750	0.034763
53046		0.020280	-0.022224	-0.999547	0.697958	0.716136	-0.001761	0.715851	-0.697606	0.030035
53047		0.011081	-0.029412	-0.999506	0.666731	0.745157	-0.014536	0.745216	-0.666240	0.027867
53048		0.007421	-0.041945	-0.999092	0.626985	0.778527	-0.028028	0.778996	-0.626208	0.032076
53049		0.012385	-0.061988	-0.998000	0.578365	0.814622	-0.043421	0.815684	-0.576670	0.045941
53050		0.025998	-0.082987	-0.996211	0.520097	0.852175	-0.057416	0.853711	-0.516634	0.065317
53051		0.039772	-0.102306	-0.993958	0.448571	0.890701	-0.073729	0.892862	-0.442928	0.081316
53052		0.040893	-0.110848	-0.992996	0.370620	0.924611	-0.087951	0.927884	-0.364428	0.078892
53053		0.026983	-0.113728	-0.993145	0.304426	0.947251	-0.100201	0.952154	-0.299635	0.060181
53054		0.012372	-0.114493	-0.993347	0.259409	0.959778	-0.107393	0.965688	-0.256355	0.041575
53055		0.006721	-0.118367	-0.992947	0.221250	0.968536	-0.113960	0.975194	-0.218924	0.032698
53056		0.006547	-0.120562	-0.992684	0.171604	0.978115	-0.117661	0.985144	-0.169578	0.027093
53057		0.004917	-0.120830	-0.992661	0.109236	0.986798	-0.119575	0.994004	-0.107846	0.018051
53058		-0.002153	-0.116550	-0.993183	0.048884	0.991985	-0.116515	0.998802	-0.048801	0.003562
53059		-0.010165	-0.112795	-0.993566	0.000613	0.993617	-0.112807	0.999948	-0.001756	-0.010031
53060		-0.014273	-0.105933	-0.994271	-0.035515	0.993798	-0.105373	0.999267	0.033807	-0.017947
53061		-0.015624	-0.098382	-0.995026	-0.063660	0.993226	-0.097204	0.997849	0.061824	-0.021781
53062		-0.021423	-0.087801	-0.995908	-0.085053	0.992685	-0.085687	0.996146	0.082869	-0.028734
53063		-0.038136	-0.076382	-0.996349	-0.093263	0.992994	-0.072555	0.994911	0.090155	-0.044992
53064		-0.075891	-0.062120	-0.995179	-0.073074	0.995720	-0.056581	0.994435	0.068427	-0.080106
53066		-0.078241	-0.037039	-0.996246	-0.003496	0.999314	-0.036878	0.996928	0.000598	-0.078316
53067		-0.082022	-0.030117	-0.996175	-0.023188	0.999330	-0.028303	0.996361	0.020778	-0.082665
53068		-0.075803	-0.025017	-0.996809	-0.017345	0.999567	-0.023767	0.996972	0.015488	-0.076204
53069		-0.054382	-0.018516	-0.998349	-0.014773	0.999734	-0.017737	0.998411	0.013784	-0.054641
53070		-0.044103	-0.009570	-0.998981	-0.018170	0.999796	-0.008776	0.998862	0.017764	-0.044268
53071		-0.050701	0.001924	-0.998712	-0.033911	0.999418	0.003647	0.998138	0.034052	-0.050606
53072		-0.066131	0.009587	-0.997765	-0.065623	0.997747	0.013936	0.995651	0.066397	-0.065353
53073		-0.075916	0.015965	-0.996986	-0.108387	0.993815	0.024168	0.991206	0.109895	-0.073716
53074		-0.080501	0.017300	-0.996604	-0.151995	0.987943	0.029427	0.985098	0.153848	-0.076901
53075		-0.084682	0.016053	-0.996279	-0.202162	0.978797	0.032955	0.975684	0.204200	-0.079641
53076		-0.088978	0.010344	-0.995980	-0.262701	0.964296	0.033484	0.960766	0.264624	-0.083084
53077		-0.089582	0.005534	-0.995964	-0.326773	0.944468	0.034639	0.940848	0.328558	-0.082799
53078		-0.085767	0.001250	-0.996314	-0.392112	0.919255	0.034908	0.915911	0.393660	-0.078352
53079		-0.079650	0.000499	-0.996823	-0.457747	0.888311	0.037020	0.885507	0.459241	-0.070526
53080		-0.076348	-0.003473	-0.997075	-0.523197	0.851404	0.037096	0.848785	0.524499	-0.066820
53081		-0.076593	-0.009467	-0.997018	-0.588104	0.807915	0.037508	0.805151	0.589222	-0.067448
53082		-0.077098	-0.018505	-0.996852	-0.651626	0.757670	0.036333	0.754612	0.652375	-0.070473
53083		-0.074715	-0.024188	-0.996912	-0.714648	0.698525	0.036612	0.695482	0.715176	-0.069476
53084		-0.066020	-0.024699	-0.997513	-0.775471	0.630372	0.035716	0.627922	0.775900	-0.060770
53085		-0.048785	-0.009129	-0.998768	-0.829928	0.556744	0.035449	0.555734	0.830634	-0.034737
53086		-0.028663	0.019268	-0.999403	-0.877244	0.478811	0.034391	0.479188	0.877707	0.003179
53087		-0.020680	0.043237	-0.998851	-0.916855	0.397577	0.036192	0.398685	0.916549	0.031421
53088		-0.025482	0.040073	-0.998872	-0.947259	0.318333	0.036936	0.319454	0.947131	0.029848
53089		-0.034765	0.024148	-0.999104	-0.968361	0.246382	0.039650	0.247119	0.968872	0.014818
53090		-0.039553	0.008848	-0.999178	-0.982502	0.181797	0.040502	0.182006	0.983296	0.001503
53091		-0.041664	-0.001943	-0.999130	-0.992328	0.116579	0.041153	0.116398	0.993179	-0.006785
53092		-0.043647	-0.012892	-0.998964	-0.998068	0.044823	0.043029	0.044222	0.998912	-0.014823
53093		-0.049966	-0.022138	-0.998506	-0.998342	-0.027497	0.050568	-0.028576	0.999377	-0.020727
53094		-0.056210	-0.029157	-0.997993	-0.993561	-0.096847	0.058790	-0.098367	0.994872	-0.023526
53095		-0.065048	-0.036498	-0.997214	-0.983242	-0.168206	0.070293	-0.170303	0.985076	-0.024944
53096		-0.073684	-0.044117	-0.996305	-0.965749	-0.246074	0.082321	-0.248797	0.968246	-0.024475
53097		-0.083287	-0.052515	-0.995141	-0.940586	-0.325730	0.095911	-0.329184	0.944003	-0.022266
53098		-0.091197	-0.063090	-0.993832	-0.911124	-0.397501	0.108841	-0.401917	0.915430	-0.021231
53099		-0.099689	-0.075316	-0.992164	-0.878675	-0.461224	0.123298	-0.466896	0.884081	-0.020200
53100		-0.106418	-0.088178	-0.990404	-0.841554	-0.522526	0.136946	-0.529587	0.848051	-0.018600
53101		-0.112543	-0.099452	-0.988657	-0.799194	-0.582174	0.149538	-0.590443	0.806959	-0.013962
53102		-0.115820	-0.110651	-0.987088	-0.754777	-0.636200	0.159878	-0.645676	0.763548	-0.009832
53103		-0.116269	-0.124982	-0.985323	-0.715937	-0.677061	0.170362	-0.688416	0.725237	-0.010759
53104		-0.115334	-0.139619	-0.983466	-0.690121	-0.700841	0.180428	-0.714444	0.699520	-0.015523
53105		-0.111093	-0.152238	-0.982080	-0.675481	-0.713277	0.186980	-0.728961	0.684148	-0.023594
53106		-0.098953	-0.166089	-0.981133	-0.660153	-0.726804	0.189615	-0.744584	0.666461	-0.037725
53107		-0.081194	-0.181763	-0.979985	-0.635960	-0.747621	0.191356	-0.767439	0.638768	-0.054892
53108		-0.054964	-0.202095	-0.977822	-0.604564	-0.772653	0.193674	-0.794658	0.601802	-0.079711
53109		-0.007888	-0.233226	-0.972391	-0.573233	-0.795728	0.195504	-0.819355	0.558948	-0.127416
53110		0.055413	-0.268353	-0.961726	-0.559417	-0.806172	0.192716	-0.827032	0.527326	-0.194793
53112		0.043940	-0.234503	-0.971122	-0.583433	-0.795099	0.165600	-0.810972	0.559308	-0.171754
53113		0.007050	-0.207736	-0.978160	-0.567066	-0.806524	0.167198	-0.823642	0.553502	-0.123485
53114		-0.003149	-0.204186	-0.978927	-0.549390	-0.817608	0.172305	-0.835560	0.538355	-0.109603
53115		0.020812	-0.222606	-0.974686	-0.524013	-0.832691	0.178987	-0.851456	0.507024	-0.133979
53116		0.055183	-0.241407	-0.968854	-0.473168	-0.860782	0.187529	-0.879242	0.448082	-0.161726
53117		0.080545	-0.246701	-0.965739	-0.404500	-0.893608	0.194538	-0.910984	0.374972	-0.171766
53118		0.096211	-0.240277	-0.965925	-0.331031	-0.922911	0.196605	-0.938702	0.300836	-0.168333
53119		0.097400	-0.226133	-0.969215	-0.267476	-0.943964	0.193362	-0.958629	0.240408	-0.152427
53120		0.088644	-0.210485	-0.973570	-0.220512	-0.957312	0.186892	-0.971348	0.198117	-0.131275
53121		0.081650	-0.197842	-0.976828	-0.183310	-0.966361	0.180400	-0.979658	0.164333	-0.115170
53122		0.082274	-0.188068	-0.978704	-0.147265	-0.973547	0.174697	-0.985669	0.129756	-0.107794
53123		0.085069	-0.180729	-0.979847	-0.110873	-0.979022	0.170951	-0.990187	0.094096	-0.103322
53124		0.091808	-0.176271	-0.980051	-0.078783	-0.982408	0.169315	-0.992655	0.061667	-0.104080
53125		0.104059	-0.172655	-0.979470	-0.052130	-0.984410	0.167988	-0.993204	0.033580	-0.111437
53126		0.116063	-0.170301	-0.978533	-0.032641	-0.985313	0.167609	-0.992705	0.012487	-0.119917
53127		0.122226	-0.168940	-0.978018	-0.019192	-0.985625	0.167856	-0.992317	-0.001747	-0.123711
53128		0.123974	-0.168578	-0.977861	-0.009608	-0.985621	0.168697	-0.992239	-0.011519	-0.123811
53129		0.121090	-0.168840	-0.978177	-0.003719	-0.985499	0.169643	-0.992635	-0.016904	-0.119962
53130		0.114560	-0.169889	-0.978782	-0.001113	-0.985290	0.170888	-0.993416	-0.018488	-0.113064
53131		0.103579	-0.172131	-0.979613	-0.002278	-0.984949	0.172828	-0.994619	-0.015670	-0.102413
53132		0.090187	-0.175099	-0.980411	-0.006571	-0.984506	0.175226	-0.995903	-0.009361	-0.089940
53133		0.075674	-0.178745	-0.980981	-0.012809	-0.983895	0.178288	-0.997050	-0.000927	-0.076745
53134		0.063390	-0.182694	-0.981124	-0.021483	-0.983123	0.181679	-0.997758	0.009561	-0.066245
53135		0.052238	-0.186816	-0.981005	-0.031830	-0.982159	0.185340	-0.998127	0.021544	-0.057253
53136		0.042181	-0.190849	-0.980713	-0.045038	-0.980952	0.188959	-0.998094	0.036199	-0.049973
53137		0.032965	-0.195048	-0.980239	-0.058291	-0.979478	0.192936	-0.997755	0.050779	-0.043659
53138		0.026855	-0.198951	-0.979641	-0.066719	-0.978166	0.196822	-0.997410	0.060075	-0.039542
53139		0.021943	-0.203965	-0.978732	-0.069824	-0.976890	0.202015	-0.997318	0.063907	-0.035678
53140		0.015827	-0.209820	-0.977612	-0.071052	-0.975499	0.208217	-0.997347	0.066166	-0.030347
53141		0.005376	-0.216622	-0.976241	-0.072991	-0.973736	0.215664	-0.997318	0.070097	-0.021046
53142		-0.007364	-0.223378	-0.974704	-0.076354	-0.971759	0.223280	-0.997054	0.076066	-0.009900
53143		-0.020218	-0.230434	-0.972878	-0.079517	-0.969624	0.231316	-0.996628	0.082037	0.001280
53144		-0.028464	-0.237115	-0.971065	-0.082259	-0.967608	0.238682	-0.996204	0.086673	0.008037
53145		-0.031724	-0.242812	-0.969554	-0.085582	-0.965820	0.244677	-0.995826	0.090739	0.009859
53146		-0.030526	-0.247807	-0.968328	-0.093535	-0.963821	0.249602	-0.995148	0.098192	0.006243
53147		-0.026509	-0.253402	-0.966998	-0.105583	-0.961217	0.254782	-0.994057	0.108853	-0.001274
53148		-0.018057	-0.258661	-0.965799	-0.117881	-0.958669	0.258955	-0.992864	0.118525	-0.013180
53149		-0.008404	-0.263518	-0.964618	-0.127470	-0.956500	0.262411	-0.991807	0.125165	-0.025552
53150		-0.000577	-0.266346	-0.963877	-0.130631	-0.955598	0.264136	-0.991431	0.126065	-0.034242
53151		0.004964	-0.268222	-0.963344	-0.126917	-0.955735	0.265450	-0.991901	0.120947	-0.038786
53152		0.003666	-0.268740	-0.963206	-0.122699	-0.956055	0.266278	-0.992437	0.117208	-0.036479
53153		-0.004854	-0.269612	-0.962957	-0.114396	-0.956497	0.268380	-0.993423	0.111461	-0.026199
53154		-0.008712	-0.270668	-0.962633	-0.104116	-0.957192	0.270080	-0.994527	0.102578	-0.019842
53155		-0.007153	-0.270831	-0.962600	-0.095485	-0.958041	0.270258	-0.995405	0.093847	-0.019007
53156		-0.007691	-0.269795	-0.962887	-0.091527	-0.958684	0.269348	-0.995773	0.090202	-0.017320
53157		-0.013389	-0.268560	-0.963170	-0.098677	-0.958199	0.268546	-0.995029	0.098638	-0.013671
53158		-0.021483	-0.266488	-0.963599	-0.116305	-0.956611	0.267149	-0.992981	0.117811	-0.010443
53159		-0.027708	-0.263759	-0.964191	-0.138561	-0.954236	0.265017	-0.989966	0.140942	-0.010106
53160		-0.030721	-0.259816	-0.965169	-0.160904	-0.951746	0.261324	-0.986492	0.163328	-0.012567
53161		-0.032803	-0.254264	-0.966578	-0.178900	-0.949986	0.255971	-0.983320	0.181318	-0.014325
53162		-0.033054	-0.247387	-0.968353	-0.193125	-0.949041	0.249045	-0.980617	0.195245	-0.016407
53163		-0.031714	-0.239969	-0.970262	-0.204329	-0.948693	0.241313	-0.978388	0.205906	-0.018946
53164		-0.028956	-0.232410	-0.972187	-0.210556	-0.949354	0.233223	-0.977153	0.211453	-0.021446
53165		-0.025330	-0.224787	-0.974079	-0.211553	-0.951118	0.224990	-0.977038	0.211769	-0.023462
53166		-0.021598	-0.217635	-0.975791	-0.210131	-0.953229	0.217254	-0.977435	0.209736	-0.025144
53167		-0.018444	-0.210576	-0.977404	-0.206982	-0.955589	0.209782	-0.978171	0.206174	-0.025961
53168		-0.015370	-0.204054	-0.978839	-0.201675	-0.958202	0.202919	-0.979332	0.200527	-0.026425
53169		-0.012081	-0.197779	-0.980172	-0.193801	-0.961193	0.196338	-0.980966	0.192331	-0.026718
53170		-0.008162	-0.192334	-0.981295	-0.182756	-0.964513	0.190565	-0.983124	0.180893	-0.027277
53171		-0.004247	-0.187037	-0.982344	-0.169806	-0.967951	0.185031	-0.985468	0.167593	-0.027649
53172		-0.000133	-0.182595	-0.983188	-0.156578	-0.971057	0.180364	-0.987666	0.153970	-0.028461
53173		0.003523	-0.178548	-0.983925	-0.144851	-0.973645	0.176163	-0.989447	0.141902	-0.029293
53174		0.005687	-0.175706	-0.984426	-0.136379	-0.975380	0.173304	-0.990640	0.133269	-0.029510
53175		0.006612	-0.173297	-0.984847	-0.129721	-0.976696	0.170992	-0.991529	0.126625	-0.028938
53176		0.007389	-0.171823	-0.985100	-0.123671	-0.977721	0.169609	-0.992296	0.120575	-0.028473
53177		0.008910	-0.170305	-0.985351	-0.118716	-0.978601	0.168065	-0.992888	0.115479	-0.028937
53178		0.010652	-0.169283	-0.985510	-0.115171	-0.979215	0.166956	-0.993289	0.111724	-0.029927
53179		0.012749	-0.168090	-0.985689	-0.114043	-0.979581	0.165574	-0.993394	0.110300	-0.031658
53180		0.014996	-0.167222	-0.985805	-0.116127	-0.979536	0.164392	-0.993121	0.112014	-0.034108
53181		0.017479	-0.165946	-0.985980	-0.120810	-0.979256	0.162673	-0.992522	0.116273	-0.037164
53182		0.020133	-0.164930	-0.986100	-0.127529	-0.978667	0.161083	-0.991631	0.122513	-0.040737
53183		0.022698	-0.164029	-0.986194	-0.136502	-0.977719	0.159477	-0.990380	0.130998	-0.044582
53184		0.024251	-0.163587	-0.986231	-0.146970	-0.976385	0.158340	-0.988844	0.141106	-0.047721
53185		0.025318	-0.163134	-0.986279	-0.158054	-0.974840	0.157184	-0.987106	0.151906	-0.050465
53186		0.025623	-0.162663	-0.986349	-0.169167	-0.973148	0.156092	-0.985254	0.162858	-0.052452
53187		0.023948	-0.161385	-0.986601	-0.180901	-0.971292	0.154489	-0.983210	0.174778	-0.052456
53188		0.019969	-0.159040	-0.987070	-0.192192	-0.969465	0.152315	-0.981154	0.186665	-0.049925
53189		0.016748	-0.155877	-0.987634	-0.201646	-0.968003	0.149360	-0.979315	0.196651	-0.047645
53190		0.016088	-0.152484	-0.988175	-0.209516	-0.966876	0.145786	-0.977673	0.204693	-0.047503
53191		0.018292	-0.148751	-0.988705	-0.216542	-0.965990	0.141328	-0.976102	0.211511	-0.049881
53192		0.021449	-0.144609	-0.989256	-0.222571	-0.965343	0.136288	-0.974681	0.217256	-0.052892
53193		0.024537	-0.139411	-0.989931	-0.226107	-0.965342	0.130344	-0.973793	0.220632	-0.055208
53194		0.029159	-0.134679	-0.990460	-0.228030	-0.965649	0.124593	-0.973217	0.222222	-0.058868
53195		0.035784	-0.130748	-0.990770	-0.231253	-0.965580	0.119071	-0.972235	0.224858	-0.064788
53196		0.041076	-0.128442	-0.990866	-0.233673	-0.965436	0.115459	-0.971447	0.226796	-0.069669
53197		0.044752	-0.128330	-0.990721	-0.228863	-0.966657	0.114875	-0.972429	0.221599	-0.072629
53198		0.050303	-0.130521	-0.990169	-0.220363	-0.968440	0.116462	-0.974120	0.212338	-0.077478
53199		0.054984	-0.132219	-0.989694	-0.230148	-0.966182	0.116292	-0.971601	0.221382	-0.083554
53200		0.047667	-0.130742	-0.990270	-0.250601	-0.961254	0.114848	-0.966916	0.242688	-0.078584
53201		0.035277	-0.127248	-0.991243	-0.269866	-0.956227	0.113149	-0.962251	0.263512	-0.068073
53202		0.024463	-0.123736	-0.992014	-0.293254	-0.949545	0.111208	-0.955722	0.288192	-0.059515
53203		0.013650	-0.120469	-0.992623	-0.317269	-0.941940	0.109955	-0.948237	0.313428	-0.051079
53204		0.003228	-0.118242	-0.992980	-0.336493	-0.935207	0.110269	-0.941680	0.333775	-0.042806
53205		-0.001880	-0.117434	-0.993079	-0.346685	-0.931415	0.110799	-0.937980	0.344494	-0.038962
53206		-0.000718	-0.117579	-0.993063	-0.347096	-0.931295	0.110516	-0.937829	0.344768	-0.040143
53207		0.003454	-0.117275	-0.993094	-0.342956	-0.933008	0.108986	-0.939345	0.340211	-0.043443
53208		0.007058	-0.116350	-0.993183	-0.338506	-0.934848	0.107111	-0.940938	0.335442	-0.045983
53209		0.009419	-0.113938	-0.993443	-0.333761	-0.936871	0.104286	-0.942611	0.330591	-0.046852
53210		0.010961	-0.111157	-0.993742	-0.328827	-0.938931	0.101399	-0.944326	0.325658	-0.046844
53211		0.012858	-0.107927	-0.994076	-0.322427	-0.941503	0.098049	-0.946507	0.319256	-0.046904
53212		0.013840	-0.105479	-0.994325	-0.314658	-0.944358	0.095799	-0.949104	0.311547	-0.046259
53213		0.014135	-0.103337	-0.994546	-0.308697	-0.946508	0.093958	-0.951055	0.305685	-0.045278
53214		0.012366	-0.102276	-0.994679	-0.307782	-0.946848	0.093531	-0.951376	0.304988	-0.043187
53215		0.008807	-0.101255	-0.994822	-0.309481	-0.946290	0.093575	-0.950865	0.307054	-0.039671
53216		0.005219	-0.101141	-0.994858	-0.309657	-0.946134	0.094563	-0.950834	0.307572	-0.036257
53217		0.002586	-0.101184	-0.994864	-0.310120	-0.945899	0.095397	-0.950694	0.308281	-0.033825
53218		0.000701	-0.101889	-0.994796	-0.312221	-0.945088	0.096578	-0.950009	0.310528	-0.032474
53219		-0.000658	-0.101918	-0.994793	-0.314246	-0.944377	0.096961	-0.949341	0.312673	-0.031406
53220		-0.000636	-0.102468	-0.994736	-0.317331	-0.943302	0.097372	-0.948315	0.315723	-0.031917
53223		0.003343	-0.102499	-0.994727	-0.333573	-0.937873	0.095519	-0.942718	0.331495	-0.037326
53224		0.005331	-0.102917	-0.994676	-0.340037	-0.935603	0.094982	-0.940397	0.337720	-0.039983
53225		0.007499	-0.102887	-0.994665	-0.346902	-0.933188	0.093912	-0.937871	0.344347	-0.042690
53226		0.008986	-0.102929	-0.994648	-0.354658	-0.930352	0.093071	-0.934953	0.351923	-0.044865
53227		0.009200	-0.102137	-0.994728	-0.362941	-0.927274	0.091854	-0.931767	0.360182	-0.045600
53228		0.008720	-0.101705	-0.994776	-0.370701	-0.924259	0.091246	-0.928711	0.367969	-0.045762
53229		0.008929	-0.101111	-0.994835	-0.378175	-0.921325	0.090246	-0.925691	0.375416	-0.046464
53230		0.009575	-0.101247	-0.994815	-0.385673	-0.918260	0.089743	-0.922586	0.382814	-0.047841
53231		0.010627	-0.101169	-0.994812	-0.393255	-0.915125	0.088865	-0.919368	0.390271	-0.049510
53232		0.011272	-0.101402	-0.994782	-0.401054	-0.911779	0.088397	-0.915985	0.397965	-0.050946
53234		0.013113	-0.101227	-0.994777	-0.415569	-0.905424	0.086657	-0.909467	0.412262	-0.053940
53235		0.013673	-0.101492	-0.994742	-0.422113	-0.902429	0.086271	-0.906440	0.418714	-0.055180
53236		0.014143	-0.101124	-0.994773	-0.428000	-0.899737	0.085378	-0.903668	0.424555	-0.056006
53237		0.014144	-0.101095	-0.994776	-0.433493	-0.897139	0.085009	-0.901046	0.430026	-0.056514
53238		0.014159	-0.100656	-0.994821	-0.438365	-0.894835	0.084300	-0.898686	0.434901	-0.056794
53239		0.013894	-0.100764	-0.994813	-0.442680	-0.892714	0.084240	-0.896572	0.439213	-0.057010
53240		0.013432	-0.100335	-0.994863	-0.446583	-0.890808	0.083811	-0.894642	0.443163	-0.056773
53242		0.011492	-0.099736	-0.994948	-0.452916	-0.887611	0.083745	-0.891479	0.449666	-0.055373
53243		0.010061	-0.098983	-0.995038	-0.454747	-0.886688	0.083606	-0.890564	0.451650	-0.053934
53245		0.007803	-0.098478	-0.995109	-0.457623	-0.885168	0.084009	-0.889112	0.454730	-0.051973
53246		0.006542	-0.097693	-0.995195	-0.459118	-0.884414	0.083801	-0.888351	0.456363	-0.050638
53247		0.004955	-0.097300	-0.995243	-0.460285	-0.883778	0.084111	-0.887757	0.457678	-0.049165
53248		0.003629	-0.096005	-0.995374	-0.460752	-0.883588	0.083543	-0.887522	0.458317	-0.047441
53249		0.002545	-0.095333	-0.995442	-0.460548	-0.883703	0.083454	-0.887631	0.458237	-0.046155
53250		0.001949	-0.093829	-0.995586	-0.459911	-0.884131	0.082425	-0.887963	0.457721	-0.044876
53251		0.001535	-0.093004	-0.995665	-0.459370	-0.884460	0.081908	-0.888243	0.457253	-0.044081
53252		0.001297	-0.091400	-0.995813	-0.459220	-0.884659	0.080600	-0.888322	0.457193	-0.043121
53253		0.001056	-0.090656	-0.995882	-0.459361	-0.884636	0.080042	-0.888249	0.457385	-0.042578
53254		0.001114	-0.089539	-0.995983	-0.460163	-0.884314	0.078985	-0.887834	0.458226	-0.042188
53255		0.000785	-0.089378	-0.995997	-0.461893	-0.883418	0.078911	-0.886935	0.459982	-0.041976
53256		0.000118	-0.088610	-0.996066	-0.464041	-0.882334	0.078437	-0.885814	0.462207	-0.041223
53257		-0.000840	-0.088862	-0.996044	-0.466907	-0.880773	0.078972	-0.884306	0.465126	-0.040751
53258		-0.002044	-0.088529	-0.996071	-0.470207	-0.879005	0.079090	-0.882554	0.468521	-0.039830
53259		-0.003469	-0.089054	-0.996021	-0.473171	-0.877323	0.080089	-0.880964	0.471566	-0.039094
53260		-0.004658	-0.088960	-0.996024	-0.475842	-0.875843	0.080452	-0.879518	0.474325	-0.038252
53261		-0.005751	-0.089695	-0.995953	-0.478228	-0.874445	0.081513	-0.878217	0.476761	-0.037866
53262		-0.006730	-0.089580	-0.995957	-0.479906	-0.873497	0.081808	-0.877294	0.478517	-0.037112
53263		-0.007868	-0.090180	-0.995894	-0.481884	-0.872315	0.082797	-0.876200	0.480557	-0.036593
53264		-0.009324	-0.089637	-0.995931	-0.484149	-0.871047	0.082930	-0.874936	0.482952	-0.035276
53265		-0.010350	-0.090054	-0.995883	-0.485943	-0.869972	0.083719	-0.873929	0.484809	-0.034757
53266		-0.011279	-0.089598	-0.995914	-0.487877	-0.868891	0.083696	-0.872839	0.486828	-0.033913
53267		-0.012304	-0.089745	-0.995889	-0.489500	-0.867923	0.084261	-0.871916	0.488524	-0.033251
53268		-0.013257	-0.089055	-0.995938	-0.490593	-0.867322	0.084085	-0.871288	0.489715	-0.032192
53269		-0.014136	-0.089493	-0.995887	-0.492201	-0.866338	0.084838	-0.870367	0.491376	-0.031802
53270		-0.015107	-0.089131	-0.995905	-0.494212	-0.865183	0.084928	-0.869210	0.493471	-0.030979
53271		-0.016402	-0.089897	-0.995816	-0.496699	-0.863637	0.086146	-0.867768	0.496033	-0.030486
53272		-0.017943	-0.089732	-0.995804	-0.499632	-0.861891	0.086667	-0.866052	0.499091	-0.029368
53273		-0.019695	-0.090513	-0.995701	-0.502740	-0.859935	0.088115	-0.864213	0.502314	-0.028569
53274		-0.021593	-0.090264	-0.995684	-0.505992	-0.857960	0.088752	-0.862268	0.505724	-0.027147
53275		-0.023677	-0.090838	-0.995584	-0.509342	-0.855824	0.090199	-0.860238	0.509229	-0.026004
53276		-0.025599	-0.090363	-0.995580	-0.512523	-0.853872	0.090679	-0.858292	0.512579	-0.024455
53277		-0.027213	-0.090932	-0.995485	-0.515562	-0.851908	0.091911	-0.856420	0.515736	-0.023698
53278		-0.028917	-0.090445	-0.995482	-0.518986	-0.849787	0.092283	-0.854293	0.519310	-0.022366
53279		-0.030458	-0.090929	-0.995392	-0.523073	-0.847156	0.093393	-0.851744	0.523507	-0.021760
53280		-0.032260	-0.090448	-0.995379	-0.527686	-0.844243	0.093817	-0.848826	0.528274	-0.020493
53281		-0.034007	-0.091400	-0.995233	-0.532640	-0.840944	0.095431	-0.845658	0.533347	-0.020085
53282		-0.035788	-0.091964	-0.995119	-0.538085	-0.837322	0.096733	-0.842131	0.538920	-0.019518
53284		-0.037889	-0.098009	-0.994464	-0.552321	-0.827296	0.102577	-0.832770	0.553150	-0.022788
53285		-0.038104	-0.101826	-0.994072	-0.559551	-0.822034	0.105652	-0.827919	0.560260	-0.025654
53286		-0.036430	-0.108143	-0.993468	-0.565111	-0.817685	0.109731	-0.824210	0.565417	-0.031324
53287		-0.033394	-0.113683	-0.992956	-0.568768	-0.814780	0.112412	-0.821820	0.568515	-0.037450
53288		-0.029161	-0.120004	-0.992345	-0.570530	-0.813171	0.115102	-0.820759	0.569519	-0.044753
53289		-0.025224	-0.124663	-0.991879	-0.570916	-0.812678	0.116659	-0.820621	0.569222	-0.050673
53290		-0.021228	-0.130307	-0.991246	-0.570331	-0.812741	0.119055	-0.821141	0.567866	-0.057065
53291		-0.017843	-0.133902	-0.990834	-0.568300	-0.813989	0.120237	-0.822628	0.565236	-0.061573
53292		-0.014839	-0.138375	-0.990269	-0.565338	-0.815719	0.122456	-0.824726	0.561654	-0.066124
53293		-0.013199	-0.141131	-0.989903	-0.562406	-0.817503	0.124051	-0.826756	0.558365	-0.068583
53294		-0.012269	-0.144835	-0.989380	-0.559981	-0.818745	0.126800	-0.828415	0.555590	-0.071060
53295		-0.012470	-0.147012	-0.989056	-0.558428	-0.819486	0.128848	-0.829459	0.553923	-0.071877
53296		-0.013072	-0.150197	-0.988570	-0.557901	-0.819364	0.131866	-0.829804	0.553248	-0.073084
53297		-0.014467	-0.152026	-0.988271	-0.558206	-0.818789	0.134126	-0.829576	0.553599	-0.073016
53298		-0.016228	-0.154602	-0.987844	-0.559191	-0.817616	0.137147	-0.828880	0.554619	-0.073184
53299		-0.019471	-0.155261	-0.987682	-0.560228	-0.816525	0.139400	-0.828110	0.556041	-0.071083
53300		-0.022589	-0.156810	-0.987370	-0.560351	-0.815922	0.142401	-0.827947	0.556491	-0.069438
53301		-0.025157	-0.158184	-0.987089	-0.560862	-0.815127	0.144921	-0.827527	0.557266	-0.068213
53302		-0.027387	-0.160986	-0.986577	-0.561142	-0.814298	0.148452	-0.827266	0.557675	-0.068035
53303		-0.031020	-0.162514	-0.986219	-0.561297	-0.813589	0.151722	-0.827033	0.558268	-0.065981
53304		-0.034925	-0.164588	-0.985744	-0.560218	-0.813582	0.155691	-0.827609	0.557669	-0.063791
53305		-0.038813	-0.165591	-0.985430	-0.557478	-0.814846	0.158884	-0.829284	0.555523	-0.060687
53306		-0.041986	-0.167717	-0.984941	-0.554844	-0.815913	0.162587	-0.830894	0.553315	-0.058799
53307		-0.045059	-0.168873	-0.984607	-0.552175	-0.817153	0.165422	-0.832510	0.551129	-0.056428
53308		-0.048470	-0.170342	-0.984192	-0.549258	-0.818446	0.168705	-0.834246	0.548753	-0.053892
53309		-0.052415	-0.170337	-0.983991	-0.545772	-0.820285	0.171071	-0.836293	0.546001	-0.049970
53310		-0.055611	-0.170846	-0.983727	-0.540919	-0.822984	0.173508	-0.839234	0.541765	-0.046647
53311		-0.057735	-0.171308	-0.983524	-0.536857	-0.825269	0.175258	-0.841696	0.538130	-0.044321
53312		-0.059030	-0.172518	-0.983236	-0.533706	-0.826912	0.177131	-0.843608	0.535215	-0.043261
53313		-0.060474	-0.172975	-0.983068	-0.531205	-0.828246	0.178411	-0.845083	0.532999	-0.041798
53314		-0.062203	-0.173296	-0.982903	-0.529147	-0.829284	0.179699	-0.846247	0.531278	-0.040115
53315		-0.064369	-0.172682	-0.982872	-0.526851	-0.830586	0.180431	-0.847517	0.529441	-0.037513
53316		-0.066590	-0.172258	-0.982799	-0.524750	-0.831719	0.181332	-0.848648	0.527799	-0.035008
53317		-0.069030	-0.171206	-0.982814	-0.522804	-0.832841	0.181801	-0.849653	0.526369	-0.032016
53318		-0.071073	-0.170729	-0.982751	-0.520933	-0.833852	0.182536	-0.850633	0.524921	-0.029674
53319		-0.072839	-0.170189	-0.982716	-0.519940	-0.834363	0.183035	-0.851092	0.524285	-0.027713
53320		-0.074923	-0.170067	-0.982580	-0.519763	-0.834254	0.184027	-0.851019	0.524497	-0.025890
53321		-0.075803	-0.170425	-0.982451	-0.519209	-0.834427	0.184808	-0.851279	0.524106	-0.025234
53322		-0.075825	-0.171499	-0.982262	-0.519553	-0.834010	0.185721	-0.851067	0.524420	-0.025864
53323		-0.075757	-0.172692	-0.982058	-0.520346	-0.833302	0.186674	-0.850589	0.525152	-0.026731
53324		-0.075172	-0.174545	-0.981776	-0.521113	-0.832544	0.187914	-0.850171	0.525742	-0.028373
53325		-0.073978	-0.176209	-0.981569	-0.522095	-0.831759	0.188664	-0.849673	0.526429	-0.030466
53327		-0.071511	-0.179126	-0.981224	-0.523510	-0.830614	0.189785	-0.849014	0.527252	-0.034376
53328		-0.070619	-0.180266	-0.981080	-0.523817	-0.830309	0.190268	-0.848898	0.527343	-0.035791
53329		-0.069397	-0.181977	-0.980851	-0.524128	-0.829931	0.191060	-0.848807	0.527351	-0.037785
