// Start Time: Unknown
// Update Rate: 100.0Hz
// Filter Profile: human (46.1)
// Option Flags: AHS Disabled ICC Disabled 
// Firmware Version: 4.0.2
PacketCounter	SampleTimeFine	Mat[1][1]	Mat[2][1]	Mat[3][1]	Mat[1][2]	Mat[2][2]	Mat[3][2]	Mat[1][3]	Mat[2][3]	Mat[3][3]
16631		0.170626	0.242322	-0.955074	0.972736	0.113091	0.202474	0.157075	-0.963582	-0.216419
16632		0.170222	0.242746	-0.955039	0.972496	0.114986	0.202560	0.158987	-0.963251	-0.216497
16633		0.169967	0.243110	-0.954991	0.972275	0.116563	0.202717	0.160600	-0.962970	-0.216558
16634		0.169761	0.243531	-0.954921	0.972036	0.118162	0.202938	0.162257	-0.962668	-0.216662
16635		0.169576	0.243802	-0.954885	0.971838	0.119504	0.203098	0.163628	-0.962434	-0.216671
16636		0.169475	0.244034	-0.954843	0.971647	0.120703	0.203306	0.164866	-0.962226	-0.216659
16637		0.169293	0.244135	-0.954850	0.971504	0.121736	0.203371	0.165890	-0.962070	-0.216569
16639		0.168795	0.244369	-0.954878	0.971216	0.123955	0.203405	0.168068	-0.961727	-0.216412
16640		0.168562	0.244439	-0.954901	0.971113	0.124811	0.203373	0.168895	-0.961599	-0.216339
16641		0.168179	0.244646	-0.954916	0.970957	0.126117	0.203315	0.170171	-0.961376	-0.216330
16642		0.167890	0.244710	-0.954950	0.970879	0.126888	0.203206	0.170898	-0.961258	-0.216280
16643		0.167560	0.244706	-0.955009	0.970818	0.127627	0.203037	0.171570	-0.961161	-0.216180
16645		0.166699	0.244624	-0.955181	0.970855	0.128456	0.202333	0.172195	-0.961071	-0.216081
16646		0.166089	0.244670	-0.955275	0.970891	0.128967	0.201836	0.172582	-0.960991	-0.216128
16647		0.165529	0.244680	-0.955370	0.970966	0.129206	0.201322	0.172699	-0.960956	-0.216189
16648		0.164912	0.244766	-0.955455	0.970987	0.129793	0.200842	0.173171	-0.960856	-0.216260
16649		0.164377	0.244784	-0.955542	0.970983	0.130434	0.200446	0.173701	-0.960764	-0.216241
16650		0.163850	0.244857	-0.955614	0.970918	0.131388	0.200139	0.174562	-0.960615	-0.216208
16651		0.163369	0.244905	-0.955684	0.970842	0.132345	0.199875	0.175430	-0.960472	-0.216143
16652		0.162848	0.245033	-0.955740	0.970737	0.133489	0.199627	0.176496	-0.960281	-0.216124
16653		0.162322	0.245039	-0.955828	0.970668	0.134458	0.199312	0.177358	-0.960144	-0.216026
16654		0.161704	0.245060	-0.955928	0.970584	0.135602	0.198946	0.178379	-0.959978	-0.215924
16655		0.161179	0.244922	-0.956051	0.970529	0.136510	0.198591	0.179150	-0.959884	-0.215701
16656		0.160616	0.244820	-0.956172	0.970434	0.137661	0.198259	0.180166	-0.959746	-0.215471
16657		0.160182	0.244664	-0.956285	0.970356	0.138589	0.197997	0.180973	-0.959652	-0.215212
16658		0.159804	0.244573	-0.956372	0.970221	0.139736	0.197853	0.182029	-0.959509	-0.214960
16659		0.159523	0.244513	-0.956434	0.970082	0.140783	0.197791	0.183013	-0.959371	-0.214739
16660		0.159300	0.244671	-0.956431	0.969862	0.142140	0.197899	0.184367	-0.959131	-0.214654
16661		0.159186	0.244809	-0.956414	0.969700	0.143074	0.198019	0.185314	-0.958957	-0.214616
16662		0.159051	0.245078	-0.956368	0.969512	0.144133	0.198172	0.186412	-0.958730	-0.214681
16663		0.158965	0.245259	-0.956336	0.969382	0.144854	0.198282	0.187159	-0.958575	-0.214723
16664		0.158823	0.245516	-0.956293	0.969229	0.145733	0.198387	0.188070	-0.958376	-0.214815
16665		0.158780	0.245715	-0.956250	0.969130	0.146242	0.198497	0.188618	-0.958247	-0.214909
16666		0.158796	0.245876	-0.956205	0.969026	0.146718	0.198652	0.189136	-0.958133	-0.214962
16667		0.158893	0.245975	-0.956164	0.968940	0.147032	0.198841	0.189497	-0.958059	-0.214972
16668		0.158898	0.246077	-0.956137	0.968836	0.147530	0.198977	0.190023	-0.957957	-0.214966
16669		0.159020	0.246133	-0.956102	0.968785	0.147644	0.199139	0.190178	-0.957925	-0.214972
16670		0.159085	0.246262	-0.956058	0.968692	0.148020	0.199314	0.190599	-0.957833	-0.215005
16671		0.159191	0.246336	-0.956021	0.968628	0.148212	0.199479	0.190833	-0.957785	-0.215014
16672		0.159199	0.246494	-0.955979	0.968529	0.148670	0.199623	0.191331	-0.957673	-0.215068
16673		0.159217	0.246550	-0.955962	0.968490	0.148831	0.199689	0.191510	-0.957634	-0.215085
16675		0.159170	0.246759	-0.955916	0.968334	0.149618	0.199860	0.192339	-0.957457	-0.215130
16676		0.159214	0.246819	-0.955893	0.968278	0.149837	0.199966	0.192583	-0.957408	-0.215133
16677		0.159191	0.246902	-0.955875	0.968171	0.150377	0.200081	0.193142	-0.957302	-0.215105
16678		0.159298	0.246886	-0.955862	0.968149	0.150379	0.200186	0.193164	-0.957305	-0.215067
16679		0.159355	0.246939	-0.955838	0.968113	0.150485	0.200279	0.193296	-0.957275	-0.215085
16680		0.159458	0.246911	-0.955829	0.968142	0.150241	0.200323	0.193067	-0.957321	-0.215087
16681		0.159504	0.246911	-0.955821	0.968164	0.150082	0.200334	0.192916	-0.957345	-0.215112
16682		0.159614	0.246833	-0.955823	0.968258	0.149517	0.200302	0.192353	-0.957454	-0.215133
16683		0.159595	0.246897	-0.955809	0.968330	0.149163	0.200216	0.192004	-0.957493	-0.215273
16684		0.159690	0.246777	-0.955824	0.968489	0.148294	0.200093	0.191122	-0.957659	-0.215319
16685		0.159758	0.246822	-0.955801	0.968600	0.147655	0.200028	0.190500	-0.957746	-0.215483
16686		0.159907	0.246818	-0.955777	0.968710	0.146950	0.200018	0.189820	-0.957855	-0.215597
16687		0.160087	0.246744	-0.955766	0.968772	0.146460	0.200076	0.189349	-0.957949	-0.215593
16688		0.160244	0.246633	-0.955769	0.968807	0.146141	0.200141	0.189038	-0.958027	-0.215521
16689		0.160383	0.246588	-0.955757	0.968807	0.146002	0.200241	0.188920	-0.958059	-0.215480
16690		0.160517	0.246541	-0.955747	0.968802	0.145896	0.200344	0.188832	-0.958088	-0.215430
16691		0.160571	0.246539	-0.955738	0.968783	0.145931	0.200407	0.188880	-0.958083	-0.215410
16693		0.160896	0.246503	-0.955693	0.968839	0.145312	0.200590	0.188319	-0.958186	-0.215442
16694		0.161059	0.246476	-0.955672	0.968871	0.144981	0.200675	0.188016	-0.958243	-0.215453
16695		0.161272	0.246487	-0.955633	0.968908	0.144558	0.200799	0.187639	-0.958304	-0.215510
16696		0.161361	0.246565	-0.955599	0.968886	0.144558	0.200903	0.187675	-0.958284	-0.215567
16697		0.161574	0.246588	-0.955556	0.968902	0.144243	0.201054	0.187409	-0.958326	-0.215614
16698		0.161725	0.246688	-0.955505	0.968878	0.144185	0.201214	0.187407	-0.958309	-0.215692
16699		0.161959	0.246717	-0.955458	0.968868	0.143975	0.201409	0.187254	-0.958333	-0.215719
16700		0.162074	0.246846	-0.955405	0.968822	0.144058	0.201570	0.187391	-0.958287	-0.215802
16701		0.162244	0.246838	-0.955378	0.968861	0.143676	0.201655	0.187041	-0.958347	-0.215841
16702		0.162309	0.246946	-0.955339	0.968861	0.143584	0.201722	0.186985	-0.958333	-0.215951
16703		0.162446	0.246947	-0.955316	0.968918	0.143143	0.201762	0.186571	-0.958398	-0.216019
16704		0.162477	0.247035	-0.955288	0.968898	0.143195	0.201821	0.186649	-0.958368	-0.216086
16705		0.162542	0.246952	-0.955298	0.968933	0.142963	0.201819	0.186412	-0.958424	-0.216042
16706		0.162493	0.246855	-0.955332	0.968937	0.143016	0.201762	0.186434	-0.958441	-0.215948
16707		0.162505	0.246580	-0.955401	0.969002	0.142725	0.201654	0.186083	-0.958555	-0.215743
16708		0.162383	0.246409	-0.955466	0.968994	0.142934	0.201544	0.186231	-0.958568	-0.215559
16709		0.162364	0.246135	-0.955539	0.969038	0.142787	0.201438	0.186019	-0.958660	-0.215330
16710		0.162305	0.246001	-0.955584	0.969025	0.142945	0.201388	0.186137	-0.958671	-0.215180
16711		0.162298	0.245941	-0.955600	0.969054	0.142815	0.201339	0.185991	-0.958706	-0.215152
16712		0.162217	0.246052	-0.955586	0.969057	0.142868	0.201290	0.186051	-0.958670	-0.215262
16713		0.162205	0.246167	-0.955558	0.969102	0.142622	0.201246	0.185824	-0.958677	-0.215426
16714		0.162149	0.246287	-0.955537	0.969116	0.142586	0.201204	0.185800	-0.958651	-0.215561
16715		0.162138	0.246439	-0.955499	0.969097	0.142662	0.201241	0.185907	-0.958601	-0.215692
16717		0.162134	0.246794	-0.955408	0.968935	0.143428	0.201478	0.186756	-0.958395	-0.215873
16718		0.162206	0.246880	-0.955374	0.968857	0.143734	0.201638	0.187100	-0.958327	-0.215877
16719		0.162216	0.247064	-0.955325	0.968721	0.144377	0.201830	0.187792	-0.958183	-0.215916
16720		0.162322	0.247148	-0.955285	0.968670	0.144507	0.201983	0.187965	-0.958142	-0.215949
16721		0.162334	0.247371	-0.955225	0.968572	0.144944	0.202137	0.188457	-0.958018	-0.216068
16722		0.162434	0.247533	-0.955166	0.968530	0.145017	0.202288	0.188588	-0.957965	-0.216187
16723		0.162464	0.247725	-0.955111	0.968435	0.145423	0.202449	0.189047	-0.957854	-0.216279
16724		0.162531	0.247798	-0.955081	0.968403	0.145498	0.202548	0.189153	-0.957824	-0.216321
16726		0.162475	0.247996	-0.955039	0.968303	0.146020	0.202649	0.189711	-0.957693	-0.216411
16727		0.162399	0.248070	-0.955033	0.968282	0.146194	0.202626	0.189886	-0.957647	-0.216460
16728		0.162165	0.248166	-0.955048	0.968219	0.146739	0.202531	0.190404	-0.957539	-0.216483
16729		0.161878	0.248175	-0.955094	0.968215	0.147063	0.202315	0.190668	-0.957487	-0.216480
16730		0.161492	0.248117	-0.955174	0.968197	0.147578	0.202029	0.191090	-0.957423	-0.216393
16731		0.160917	0.247902	-0.955327	0.968161	0.148411	0.201591	0.191756	-0.957350	-0.216128
16732		0.160038	0.247796	-0.955503	0.968052	0.149896	0.201013	0.193037	-0.957146	-0.215890
16733		0.158968	0.247658	-0.955717	0.968007	0.151259	0.200209	0.194144	-0.956967	-0.215689
16734		0.157562	0.247577	-0.955971	0.967897	0.153254	0.199218	0.195829	-0.956671	-0.215483
16735		0.156156	0.247482	-0.956226	0.967895	0.154707	0.198102	0.196961	-0.956461	-0.215379
16736		0.154497	0.247699	-0.956439	0.967929	0.156160	0.196795	0.198103	-0.956169	-0.215629
16737		0.152753	0.247729	-0.956712	0.968070	0.157195	0.195270	0.198764	-0.955992	-0.215807
16738		0.150540	0.247408	-0.957145	0.968149	0.159034	0.193379	0.200062	-0.955771	-0.215586
16739		0.148116	0.246584	-0.957736	0.968211	0.161222	0.191245	0.201566	-0.955617	-0.214865
16741		0.141366	0.244267	-0.959348	0.968218	0.167856	0.185412	0.206322	-0.955070	-0.212774
16742		0.136988	0.242902	-0.960329	0.968187	0.172104	0.181641	0.209398	-0.954662	-0.211599
16743		0.131816	0.241444	-0.961420	0.968120	0.177045	0.177196	0.212997	-0.954128	-0.210410
16744		0.125754	0.239764	-0.962652	0.967975	0.182873	0.171997	0.217282	-0.953452	-0.209088
16745		0.118581	0.237809	-0.964046	0.967658	0.190038	0.165903	0.222659	-0.952540	-0.207583
16746		0.110498	0.235496	-0.965573	0.967278	0.197773	0.158928	0.228391	-0.951540	-0.205937
16747		0.101029	0.233111	-0.967188	0.966463	0.207710	0.151015	0.236098	-0.950008	-0.204309
16748		0.090598	0.230409	-0.968867	0.965247	0.219152	0.142377	0.245134	-0.948095	-0.202547
16749		0.078663	0.227491	-0.970598	0.963088	0.234081	0.132919	0.257436	-0.945227	-0.200680
16750		0.065750	0.224192	-0.972324	0.960184	0.250936	0.122788	0.271519	-0.941684	-0.198767
16751		0.051243	0.220841	-0.973963	0.956020	0.271165	0.111784	0.288791	-0.936856	-0.197233
16752		0.035729	0.217307	-0.975449	0.951151	0.292112	0.099915	0.306653	-0.931369	-0.196255
16753		0.018799	0.213260	-0.976815	0.945319	0.314377	0.086828	0.325605	-0.925034	-0.195689
16755		-0.017837	0.204366	-0.978732	0.938111	0.342047	0.054325	0.345874	-0.917191	-0.197819
16756		-0.037522	0.195386	-0.980008	0.938969	0.342480	0.032330	0.341950	-0.918984	-0.196312
16757		-0.055297	0.181708	-0.981797	0.943497	0.331280	0.008172	0.326734	-0.925870	-0.189759
16758		-0.073576	0.170560	-0.982596	0.946261	0.323065	-0.014777	0.314923	-0.930880	-0.185164
16759		-0.090964	0.165789	-0.981957	0.947150	0.318997	-0.033882	0.307624	-0.933143	-0.186044
16761		-0.116140	0.154611	-0.981125	0.946533	0.316561	-0.062160	0.300976	-0.935887	-0.183110
16762		-0.123795	0.152396	-0.980536	0.945673	0.317483	-0.070049	0.300628	-0.935938	-0.183420
16763		-0.130172	0.153526	-0.979533	0.943436	0.323019	-0.074748	0.304932	-0.933857	-0.186890
16764		-0.133699	0.156684	-0.978558	0.942988	0.323800	-0.076993	0.304793	-0.933062	-0.191042
16765		-0.134328	0.158064	-0.978249	0.942874	0.324104	-0.077102	0.304868	-0.932723	-0.192571
16767		-0.125185	0.149654	-0.980781	0.943221	0.324517	-0.070874	0.307673	-0.933966	-0.181781
16768		-0.120525	0.153483	-0.980773	0.945756	0.318007	-0.066456	0.301693	-0.935583	-0.183485
16769		-0.112746	0.156947	-0.981150	0.947317	0.314914	-0.058483	0.299800	-0.936054	-0.184184
16770		-0.101751	0.159565	-0.981930	0.948447	0.313378	-0.047357	0.300158	-0.936127	-0.183225
16772		-0.072850	0.171727	-0.982447	0.948954	0.315043	-0.015298	0.306886	-0.933412	-0.185912
16773		-0.053974	0.175183	-0.983055	0.948058	0.318065	0.004628	0.313486	-0.931743	-0.183251
16775		-0.014197	0.172377	-0.984929	0.948242	0.314834	0.041432	0.317231	-0.933362	-0.167925
16776		0.002725	0.166693	-0.986005	0.949224	0.309757	0.054990	0.314588	-0.936090	-0.157385
16777		0.015607	0.160326	-0.986941	0.949410	0.307253	0.064926	0.313650	-0.938025	-0.147420
16778		0.024947	0.152979	-0.987914	0.947779	0.310684	0.072043	0.317950	-0.938122	-0.137240
16779		0.031946	0.144222	-0.989030	0.945448	0.316613	0.076708	0.324202	-0.937527	-0.126239
16780		0.037328	0.132656	-0.990459	0.944032	0.320380	0.078488	0.327735	-0.937955	-0.113272
16781		0.041079	0.118659	-0.992085	0.942096	0.326143	0.078018	0.332819	-0.937844	-0.098390
16782		0.042253	0.105063	-0.993568	0.938661	0.336474	0.075498	0.342242	-0.935814	-0.084401
16783		0.040629	0.092558	-0.994878	0.935433	0.346416	0.070430	0.351160	-0.933504	-0.072507
16784		0.037349	0.079973	-0.996097	0.932196	0.356329	0.063561	0.360021	-0.930932	-0.061242
16785		0.033699	0.067308	-0.997163	0.929943	0.363421	0.055958	0.366156	-0.929191	-0.050345
16786		0.030908	0.054514	-0.998035	0.930876	0.362088	0.048606	0.364026	-0.930548	-0.039555
16787		0.030256	0.040508	-0.998721	0.934791	0.352633	0.042622	0.353908	-0.934885	-0.027197
16788		0.031827	0.024896	-0.999183	0.939804	0.339549	0.038396	0.340227	-0.940259	-0.012591
16789		0.034900	0.008473	-0.999355	0.944538	0.326451	0.035753	0.326544	-0.945176	0.003390
16790		0.039199	-0.008942	-0.999191	0.948360	0.315328	0.034383	0.314766	-0.948941	0.020841
16791		0.044285	-0.027579	-0.998638	0.951822	0.304784	0.033792	0.303437	-0.952022	0.039748
16792		0.049578	-0.046683	-0.997679	0.954709	0.295638	0.033610	0.293382	-0.954159	0.059226
16793		0.054901	-0.066217	-0.996294	0.957715	0.285727	0.033785	0.282431	-0.956021	0.079103
16794		0.059354	-0.085561	-0.994563	0.962410	0.269432	0.034256	0.265036	-0.959211	0.098337
16795		0.062102	-0.104117	-0.992624	0.969090	0.244211	0.035015	0.238764	-0.964116	0.116064
16796		0.063639	-0.124871	-0.990130	0.977309	0.208648	0.036501	0.202031	-0.969986	0.135316
16797		0.063037	-0.144765	-0.987456	0.985695	0.163992	0.038882	0.156306	-0.975782	0.153031
16798		0.060507	-0.161133	-0.985076	0.991994	0.119297	0.041418	0.110843	-0.979696	0.167062
16799		0.057950	-0.175733	-0.982731	0.995860	0.079227	0.044557	0.070029	-0.981245	0.179597
16800		0.057326	-0.190536	-0.980005	0.997977	0.037965	0.050996	0.027489	-0.980946	0.192326
16801		0.059802	-0.201094	-0.977745	0.998107	-0.002074	0.061474	-0.014390	-0.979570	0.200590
16802		0.063761	-0.209741	-0.975676	0.996867	-0.032464	0.072125	-0.046802	-0.977218	0.207014
16803		0.065923	-0.218342	-0.973643	0.995500	-0.052176	0.079104	-0.068072	-0.974476	0.213920
16804		0.067081	-0.216935	-0.973879	0.994005	-0.069937	0.084046	-0.086342	-0.973678	0.210943
16805		0.065959	-0.212544	-0.974923	0.993546	-0.076365	0.083868	-0.092276	-0.974163	0.206135
16806		0.060513	-0.220091	-0.973601	0.995244	-0.061299	0.075715	-0.076345	-0.973551	0.215335
16807		0.054613	-0.220590	-0.973837	0.997708	-0.026958	0.062058	-0.039942	-0.974994	0.218612
16808		0.050182	-0.214822	-0.975363	0.998735	0.007578	0.049715	-0.003289	-0.976624	0.214931
16809		0.046397	-0.203640	-0.977946	0.998095	0.049295	0.037088	0.040655	-0.977804	0.205540
16810		0.038860	-0.180446	-0.982817	0.994082	0.106830	0.019692	0.101441	-0.977766	0.183530
16811		0.030857	-0.164099	-0.985961	0.989207	0.146374	0.006596	0.143236	-0.975524	0.166845
16812		0.034214	-0.160597	-0.986427	0.984987	0.172524	0.006076	0.169207	-0.971825	0.164089
16813		0.048122	-0.160783	-0.985816	0.983382	0.180598	0.018548	0.175055	-0.970326	0.166802
16814		0.066467	-0.158213	-0.985165	0.984316	0.172102	0.038771	0.163414	-0.972291	0.167170
16815		0.088583	-0.158177	-0.983429	0.985184	0.159474	0.063091	0.146852	-0.974447	0.169960
16816		0.111977	-0.153818	-0.981734	0.985117	0.146836	0.089356	0.130409	-0.977128	0.167971
16817		0.133992	-0.142760	-0.980646	0.983458	0.140872	0.113868	0.121890	-0.979681	0.159274
16818		0.152794	-0.125070	-0.980312	0.980203	0.145571	0.134205	0.125920	-0.981411	0.144836
16819		0.166957	-0.103782	-0.980487	0.976553	0.154477	0.149936	0.135902	-0.982530	0.127140
16820		0.175505	-0.082923	-0.980980	0.973004	0.166300	0.160021	0.149868	-0.982582	0.109871
16821		0.179145	-0.065630	-0.981631	0.969293	0.182622	0.164684	0.168459	-0.980990	0.096331
16822		0.178821	-0.052972	-0.982455	0.966255	0.197623	0.165217	0.185404	-0.978846	0.086523
16823		0.174094	-0.045788	-0.983664	0.964553	0.209100	0.160978	0.198313	-0.976822	0.080568
16824		0.164251	-0.042499	-0.985503	0.965411	0.212017	0.151759	0.202494	-0.976341	0.075853
16825		0.148707	-0.039479	-0.988093	0.969273	0.203813	0.137731	0.195949	-0.978214	0.068574
16826		0.129202	-0.031729	-0.991111	0.972889	0.197394	0.120507	0.191816	-0.979811	0.056372
16827		0.108968	-0.019321	-0.993858	0.973682	0.203407	0.102801	0.200171	-0.978904	0.040977
16828		0.091000	-0.008873	-0.995811	0.971686	0.219740	0.086838	0.218049	-0.975518	0.028618
16829		0.077119	-0.000447	-0.997022	0.967873	0.240069	0.074756	0.239321	-0.970756	0.018947
16830		0.066955	0.008464	-0.997720	0.964642	0.254932	0.066898	0.254917	-0.966922	0.008904
16831		0.059536	0.019615	-0.998033	0.963323	0.260941	0.062593	0.261655	-0.965155	-0.003360
16832		0.053905	0.034232	-0.997959	0.963416	0.260977	0.060991	0.262532	-0.964738	-0.018912
16833		0.050398	0.049117	-0.997521	0.964463	0.256991	0.061382	0.259369	-0.965165	-0.034419
16834		0.048273	0.063783	-0.996796	0.965849	0.251364	0.062859	0.254568	-0.965789	-0.049471
16835		0.046503	0.079754	-0.995729	0.966821	0.247064	0.064942	0.251188	-0.965712	-0.065619
16836		0.044451	0.096547	-0.994335	0.967129	0.245288	0.067051	0.250372	-0.964631	-0.082470
16837		0.041564	0.113111	-0.992713	0.967529	0.243373	0.068240	0.249318	-0.963315	-0.099322
16838		0.037599	0.128993	-0.990932	0.968751	0.238585	0.067815	0.245169	-0.962517	-0.115991
16839		0.033083	0.142690	-0.989214	0.970851	0.230501	0.065717	0.237392	-0.962553	-0.130905
16840		0.028349	0.153732	-0.987706	0.973597	0.219655	0.062132	0.226506	-0.963389	-0.143446
16841		0.023757	0.160805	-0.986700	0.976661	0.207014	0.057253	0.213467	-0.965032	-0.152134
16842		0.019016	0.164217	-0.986241	0.979623	0.194202	0.051225	0.199942	-0.967119	-0.157177
16843		0.012269	0.166486	-0.985967	0.982543	0.181045	0.042797	0.185630	-0.969281	-0.161358
16844		0.001712	0.173107	-0.984902	0.985271	0.168116	0.031261	0.170989	-0.970449	-0.170270
16845		-0.010259	0.183439	-0.982978	0.986957	0.159799	0.019520	0.160659	-0.969956	-0.182686
16846		-0.020010	0.193522	-0.980892	0.989686	0.143029	0.008029	0.141849	-0.970614	-0.194388
16847		-0.025160	0.201358	-0.979195	0.993531	0.113544	-0.002180	0.110743	-0.972915	-0.202912
16848		-0.026566	0.209261	-0.977499	0.996929	0.077602	-0.010481	0.073663	-0.974776	-0.210680
16849		-0.027014	0.248385	-0.968285	0.998431	0.054227	-0.013945	0.049044	-0.967142	-0.249460
16850		-0.029494	0.304313	-0.952116	0.996239	0.086588	-0.003186	0.081472	-0.948629	-0.305722
16851		-0.034074	0.284356	-0.958113	0.992781	0.119939	0.000290	0.114998	-0.951187	-0.286390
16852		-0.032888	0.211829	-0.976753	0.994235	0.106726	-0.010331	0.102056	-0.971462	-0.214118
16853		-0.034942	0.203683	-0.978413	0.997564	0.066256	-0.021833	0.060379	-0.976792	-0.205502
16854		-0.031727	0.246939	-0.968511	0.999479	0.002166	-0.032189	-0.005851	-0.969029	-0.246880
16855		-0.015881	0.255861	-0.966583	0.998960	-0.037254	-0.026275	-0.042732	-0.965996	-0.255003
16856		0.002521	0.220865	-0.975301	0.999531	-0.030309	-0.004280	-0.030506	-0.974833	-0.220838
16857		0.017614	0.197995	-0.980045	0.999742	0.010541	0.020098	0.014309	-0.980146	-0.197758
16858		0.026402	0.198110	-0.979824	0.997456	0.059700	0.038948	0.066212	-0.978360	-0.196029
16859		0.032725	0.192177	-0.980815	0.992321	0.110869	0.054832	0.119279	-0.975078	-0.187073
16860		0.038703	0.179853	-0.982932	0.984732	0.160210	0.068088	0.169721	-0.970559	-0.170907
16861		0.043903	0.168149	-0.984783	0.976380	0.201513	0.077937	0.211552	-0.964945	-0.155331
16862		0.048020	0.154856	-0.986769	0.969762	0.229435	0.083198	0.239283	-0.960926	-0.139156
16863		0.050615	0.140592	-0.988773	0.965723	0.245489	0.084341	0.254591	-0.959150	-0.123347
16864		0.051796	0.126159	-0.990657	0.963933	0.252998	0.082617	0.261057	-0.959206	-0.108504
16865		0.051555	0.109381	-0.992662	0.961681	0.262579	0.078880	0.269280	-0.958691	-0.091653
16866		0.049291	0.091401	-0.994594	0.957299	0.279692	0.073145	0.284865	-0.955729	-0.073712
16867		0.045024	0.075071	-0.996161	0.953892	0.292984	0.065193	0.296753	-0.953166	-0.058419
16868		0.039847	0.059054	-0.997459	0.954093	0.294315	0.055539	0.296847	-0.953882	-0.044615
16869		0.034815	0.040834	-0.998559	0.958523	0.281453	0.044928	0.282882	-0.958706	-0.029342
16870		0.030216	0.020470	-0.999334	0.965769	0.257105	0.034468	0.257640	-0.966167	-0.012000
16871		0.026844	-0.001243	-0.999639	0.972799	0.230207	0.025837	0.230092	-0.973141	0.007388
16872		0.025197	-0.024127	-0.999391	0.977616	0.209483	0.019590	0.208883	-0.977515	0.028865
16873		0.026211	-0.048501	-0.998479	0.980704	0.194819	0.016281	0.193734	-0.979639	0.052672
16874		0.028668	-0.071799	-0.997007	0.982891	0.183574	0.015042	0.181945	-0.980380	0.075833
16875		0.032062	-0.091762	-0.995265	0.984590	0.174177	0.015659	0.171916	-0.980429	0.095933
16876		0.037013	-0.113249	-0.992877	0.986999	0.159650	0.018584	0.156408	-0.980656	0.117686
16877		0.042498	-0.137728	-0.989558	0.990845	0.132841	0.024064	0.128140	-0.981521	0.142113
16878		0.047669	-0.162802	-0.985507	0.994938	0.095116	0.032413	0.088461	-0.982063	0.166512
16879		0.051908	-0.186299	-0.981121	0.997903	0.047713	0.043736	0.038664	-0.981334	0.188385
16880		0.054917	-0.205115	-0.977196	0.998457	0.003163	0.055448	-0.008282	-0.978733	0.204972
16881		0.057247	-0.220449	-0.973717	0.997181	-0.034755	0.066495	-0.048500	-0.974779	0.217838
16882		0.059926	-0.234528	-0.970261	0.994473	-0.069919	0.078321	-0.086208	-0.969592	0.229042
16883		0.063489	-0.246741	-0.967000	0.991058	-0.098354	0.090165	-0.117356	-0.964077	0.238290
16884		0.068568	-0.258494	-0.963576	0.987071	-0.122680	0.103150	-0.144875	-0.958191	0.246740
16885		0.072852	-0.269185	-0.960329	0.983496	-0.140504	0.113993	-0.165615	-0.952784	0.254506
16886		0.075478	-0.277892	-0.957642	0.979771	-0.157843	0.123025	-0.185345	-0.947556	0.260357
16887		0.077902	-0.281096	-0.956513	0.978131	-0.164039	0.127870	-0.192849	-0.945556	0.262169
16888		0.081504	-0.275235	-0.957916	0.979534	-0.155353	0.127980	-0.184040	-0.948742	0.256940
16889		0.081149	-0.275309	-0.957925	0.981922	-0.142816	0.124227	-0.171008	-0.950689	0.258743
16890		0.078387	-0.276835	-0.957715	0.985005	-0.126595	0.117214	-0.153691	-0.952542	0.262761
16891		0.076671	-0.270569	-0.959643	0.990531	-0.089265	0.104307	-0.113884	-0.958553	0.261163
16892		0.074676	-0.259939	-0.962733	0.995418	-0.038384	0.087574	-0.059717	-0.964862	0.255882
16893		0.070140	-0.252172	-0.965137	0.997427	0.003328	0.071617	-0.014848	-0.967677	0.251756
16894		0.065884	-0.245507	-0.967153	0.997474	0.041993	0.057290	0.026548	-0.968485	0.247654
16895		0.063394	-0.237916	-0.969215	0.995814	0.079163	0.045701	0.065853	-0.968054	0.241939
16896		0.066437	-0.235515	-0.969597	0.994770	0.091195	0.046010	0.077586	-0.967583	0.240342
16897		0.077505	-0.242149	-0.967139	0.995236	0.076336	0.060644	0.059143	-0.967232	0.246911
16898		0.092987	-0.245713	-0.964872	0.995083	0.056115	0.081608	0.034092	-0.967717	0.249723
16899		0.110813	-0.245604	-0.963016	0.993757	0.040014	0.104145	0.012955	-0.968544	0.248504
16900		0.130303	-0.240336	-0.961904	0.991472	0.033726	0.125882	0.002187	-0.970104	0.242681
16901		0.149159	-0.227388	-0.962313	0.988806	0.038004	0.144285	0.003763	-0.973062	0.230512
16902		0.165747	-0.207158	-0.964165	0.986019	0.051836	0.158367	0.017172	-0.976933	0.212853
16903		0.178067	-0.184524	-0.966562	0.983312	0.070583	0.167678	0.037282	-0.980290	0.194013
16904		0.185675	-0.162458	-0.969088	0.981016	0.086819	0.173406	0.055964	-0.982888	0.175494
16905		0.188794	-0.144103	-0.971386	0.979363	0.100295	0.175466	0.072140	-0.984467	0.160065
16906		0.187984	-0.131854	-0.973281	0.978670	0.108752	0.174292	0.082865	-0.985286	0.149485
16907		0.183673	-0.124120	-0.975120	0.978723	0.115394	0.169663	0.091465	-0.985535	0.142674
16908		0.176192	-0.116744	-0.977408	0.979184	0.122433	0.161888	0.100768	-0.985587	0.135885
16909		0.164920	-0.109172	-0.980246	0.980118	0.129298	0.150498	0.110314	-0.985578	0.128325
16910		0.149170	-0.103128	-0.983419	0.981401	0.136978	0.134499	0.120836	-0.985191	0.121643
16911		0.130561	-0.095959	-0.986786	0.982002	0.149527	0.115387	0.136479	-0.984090	0.113755
16912		0.111706	-0.085323	-0.990072	0.980999	0.168508	0.096161	0.158630	-0.982001	0.102525
16913		0.094512	-0.072065	-0.992912	0.978023	0.192914	0.079093	0.185847	-0.978566	0.088714
16914		0.079185	-0.059399	-0.995089	0.973211	0.220749	0.064267	0.215848	-0.973520	0.075288
16915		0.065508	-0.048479	-0.996674	0.967270	0.248470	0.051490	0.245147	-0.967426	0.063169
16916		0.053126	-0.037637	-0.997878	0.960938	0.273734	0.040835	0.271616	-0.961069	0.050709
16917		0.041207	-0.025336	-0.998829	0.954940	0.295079	0.031911	0.293925	-0.955137	0.036354
16918		0.030558	-0.010071	-0.999482	0.949000	0.314215	0.025848	0.313792	-0.949298	0.019160
16919		0.022608	0.003272	-0.999739	0.944574	0.327531	0.022432	0.327518	-0.944835	0.004314
16920		0.016552	0.014024	-0.999765	0.944083	0.329084	0.020246	0.329291	-0.944196	-0.007793
16921		0.010864	0.025266	-0.999622	0.947051	0.320556	0.018395	0.320899	-0.946893	-0.020446
16922		0.004721	0.039453	-0.999210	0.954100	0.299044	0.016316	0.299452	-0.953423	-0.036230
16923		-0.000773	0.055571	-0.998454	0.964240	0.264662	0.013984	0.265030	-0.962739	-0.053788
16924		-0.004299	0.072874	-0.997332	0.970756	0.239697	0.013329	0.240028	-0.968109	-0.071773
16925		-0.005954	0.091080	-0.995826	0.971716	0.235627	0.015741	0.236077	-0.967566	-0.089906
16926		-0.005664	0.107995	-0.994135	0.972028	0.234022	0.019884	0.234797	-0.966215	-0.106299
16927		-0.002351	0.119278	-0.992858	0.974065	0.224915	0.024714	0.226256	-0.967050	-0.116713
16928		0.002209	0.128451	-0.991713	0.974820	0.220860	0.030778	0.222983	-0.966810	-0.124729
16929		0.004822	0.137578	-0.990479	0.973274	0.226769	0.036237	0.229595	-0.964183	-0.132808
16930		0.005350	0.150598	-0.988581	0.973446	0.225464	0.039615	0.228855	-0.962542	-0.145393
16931		0.004581	0.170833	-0.985289	0.976557	0.211283	0.041173	0.215209	-0.962380	-0.165860
16932		0.001074	0.193606	-0.981079	0.981103	0.189619	0.038494	0.193484	-0.962581	-0.189743
16933		-0.000068	0.232079	-0.972697	0.989242	0.142310	0.033886	0.146289	-0.962230	-0.229592
16934		-0.001433	0.288814	-0.957384	0.994057	0.104621	0.030073	0.108848	-0.951652	-0.287247
16935		-0.000567	0.263695	-0.964606	0.989602	0.138891	0.037387	0.143834	-0.954554	-0.261031
16936		0.000781	0.212744	-0.977108	0.979369	0.197288	0.043738	0.202076	-0.956984	-0.208201
16937		-0.003667	0.199615	-0.979868	0.976686	0.211038	0.039336	0.214641	-0.956879	-0.195735
16938		-0.012238	0.209574	-0.977716	0.982449	0.184529	0.027257	0.186129	-0.960223	-0.208154
16939		-0.016452	0.202536	-0.979137	0.986390	0.163518	0.017250	0.163600	-0.965526	-0.202470
16940		-0.017507	0.185497	-0.982489	0.986725	0.161881	0.012981	0.161454	-0.969219	-0.185869
16941		-0.018672	0.176805	-0.984069	0.985701	0.168111	0.011501	0.167466	-0.969783	-0.177416
16942		-0.019747	0.173170	-0.984694	0.983648	0.179708	0.011878	0.179014	-0.968358	-0.173887
16943		-0.020893	0.169108	-0.985376	0.979976	0.198672	0.013317	0.198019	-0.965366	-0.169873
16944		-0.022388	0.166027	-0.985867	0.975581	0.219145	0.014751	0.218497	-0.961463	-0.166879
16945		-0.025000	0.167524	-0.985551	0.971552	0.236316	0.015525	0.235502	-0.957126	-0.168666
16946		-0.028569	0.169526	-0.985112	0.968714	0.247754	0.014542	0.246531	-0.953876	-0.171300
16947		-0.032876	0.170123	-0.984874	0.968021	0.250629	0.010980	0.248706	-0.953018	-0.172922
16948		-0.038124	0.171742	-0.984404	0.969742	0.244080	0.005027	0.241137	-0.954426	-0.175850
16949		-0.044065	0.173086	-0.983921	0.972920	0.231122	-0.002915	0.226901	-0.957405	-0.178583
16950		-0.050667	0.172898	-0.983636	0.976074	0.217102	-0.012116	0.211455	-0.960715	-0.179761
16951		-0.058780	0.172849	-0.983193	0.978621	0.204432	-0.022567	0.197096	-0.963499	-0.181170
16952		-0.068436	0.174113	-0.982345	0.980194	0.195154	-0.033697	0.185841	-0.965194	-0.184020
16953		-0.079256	0.177067	-0.981002	0.980046	0.193794	-0.044200	0.182286	-0.964931	-0.188893
16954		-0.091079	0.180485	-0.979352	0.978895	0.196893	-0.054751	0.182946	-0.963669	-0.194608
16955		-0.103824	0.183245	-0.977569	0.978653	0.194099	-0.067556	0.177366	-0.963715	-0.199485
16956		-0.117084	0.183265	-0.976066	0.980634	0.176706	-0.084454	0.157000	-0.967052	-0.200406
16957		-0.129851	0.180507	-0.974965	0.982289	0.157374	-0.101690	0.135079	-0.970902	-0.197745
16958		-0.141444	0.176196	-0.974140	0.982399	0.146261	-0.116188	0.122007	-0.973428	-0.193782
16959		-0.150794	0.171430	-0.973588	0.982283	0.136839	-0.128046	0.111274	-0.975647	-0.189028
16960		-0.156995	0.167200	-0.973343	0.982322	0.128193	-0.136422	0.101966	-0.977553	-0.184370
16961		-0.160104	0.168127	-0.972677	0.982258	0.124616	-0.140142	0.097650	-0.977857	-0.185096
16962		-0.159528	0.178087	-0.970997	0.982758	0.121785	-0.139124	0.093477	-0.976449	-0.194444
16963		-0.155032	0.191080	-0.969254	0.982835	0.129149	-0.131743	0.100005	-0.973041	-0.207823
16964		-0.148266	0.189410	-0.970639	0.980431	0.156687	-0.119186	0.129511	-0.969316	-0.208935
16965		-0.138826	0.183158	-0.973232	0.976669	0.187911	-0.103952	0.163842	-0.964957	-0.204972
16966		-0.126753	0.184192	-0.974683	0.973583	0.211236	-0.086691	0.189920	-0.959923	-0.206101
16967		-0.112313	0.189299	-0.975475	0.971275	0.228170	-0.067551	0.209787	-0.955041	-0.209488
16968		-0.094716	0.193622	-0.976494	0.969373	0.241208	-0.046198	0.226593	-0.950962	-0.210538
16969		-0.074666	0.195857	-0.977786	0.966793	0.254538	-0.022841	0.244410	-0.947022	-0.208358
16970		-0.052749	0.196786	-0.979026	0.960936	0.276744	0.003852	0.271698	-0.940578	-0.203697
16971		-0.028382	0.196669	-0.980059	0.949082	0.313042	0.035333	0.313749	-0.929153	-0.195539
16972		-0.002613	0.198247	-0.980149	0.933864	0.351006	0.068506	0.357619	-0.915146	-0.186053
16973		0.023080	0.200546	-0.979412	0.920659	0.377603	0.099014	0.389686	-0.903990	-0.175920
16974		0.049720	0.197815	-0.978978	0.908784	0.397628	0.126501	0.414293	-0.895969	-0.160001
16975		0.075694	0.190211	-0.978821	0.896156	0.417465	0.150426	0.437236	-0.888562	-0.138859
16976		0.098831	0.181731	-0.978369	0.881511	0.440185	0.170811	0.461705	-0.879324	-0.116694
16977		0.115219	0.175690	-0.977680	0.864873	0.466368	0.185731	0.488589	-0.866968	-0.098215
16978		0.121976	0.173726	-0.977211	0.852127	0.486506	0.192853	0.508923	-0.856231	-0.088694
16979		0.119130	0.176423	-0.977079	0.843623	0.500931	0.193307	0.523553	-0.847315	-0.089158
16980		0.111976	0.179554	-0.977354	0.836583	0.513752	0.190232	0.536275	-0.838939	-0.092684
16981		0.107122	0.176669	-0.978424	0.837309	0.514625	0.184595	0.536133	-0.839017	-0.092799
16982		0.105656	0.167471	-0.980199	0.850198	0.496034	0.176393	0.515753	-0.852000	-0.089974
16983		0.108420	0.153335	-0.982208	0.870449	0.462594	0.168300	0.480170	-0.873209	-0.083316
16984		0.115638	0.142157	-0.983066	0.881313	0.441826	0.167560	0.458164	-0.885766	-0.074193
16985		0.126220	0.139572	-0.982134	0.876607	0.447752	0.176289	0.464358	-0.883197	-0.065834
16986		0.142239	0.137640	-0.980216	0.872106	0.450974	0.189877	0.468187	-0.881860	-0.055891
16987		0.163364	0.131953	-0.977702	0.872306	0.443622	0.205626	0.460863	-0.886447	-0.042631
16988		0.186354	0.128481	-0.974045	0.876140	0.426888	0.223932	0.444579	-0.895131	-0.033015
16989		0.209064	0.133546	-0.968740	0.880506	0.405274	0.245891	0.425443	-0.904388	-0.032860
16990		0.233194	0.143303	-0.961813	0.882268	0.384754	0.271234	0.408930	-0.911827	-0.036709
16991		0.258178	0.153917	-0.953758	0.882688	0.363698	0.297633	0.392691	-0.918713	-0.041962
16992		0.281487	0.167176	-0.944890	0.883808	0.338318	0.323148	0.373696	-0.926063	-0.052519
16993		0.302865	0.181384	-0.935614	0.886028	0.308014	0.346527	0.351037	-0.933931	-0.067424
16994		0.323152	0.193736	-0.926304	0.888093	0.276035	0.367554	0.326900	-0.941420	-0.082855
16995		0.341494	0.202719	-0.917762	0.889226	0.246561	0.385338	0.304399	-0.947688	-0.096064
16996		0.355917	0.208665	-0.910924	0.889215	0.224193	0.398790	0.287436	-0.951944	-0.105754
16997		0.363917	0.214230	-0.906460	0.886067	0.220390	0.407816	0.287141	-0.951595	-0.109619
16998		0.364895	0.220086	-0.904662	0.881992	0.229527	0.411591	0.298230	-0.948093	-0.110361
16999		0.360383	0.225287	-0.905191	0.881684	0.234567	0.409404	0.304561	-0.945634	-0.114098
17000		0.351283	0.230306	-0.907502	0.889143	0.221579	0.400409	0.293300	-0.947556	-0.126938
17001		0.336274	0.243920	-0.909628	0.901115	0.197371	0.386053	0.273700	-0.949499	-0.153429
17002		0.322266	0.252541	-0.912342	0.912827	0.172416	0.370163	0.250783	-0.952101	-0.174962
17003		0.317051	0.235234	-0.918773	0.918241	0.166257	0.359434	0.237303	-0.957614	-0.163289
17004		0.311769	0.229212	-0.922097	0.920218	0.168861	0.353108	0.236643	-0.958618	-0.158280
17006		0.299680	0.234272	-0.924829	0.927454	0.155712	0.339975	0.223654	-0.959620	-0.170613
17007		0.293402	0.236488	-0.926277	0.929857	0.154398	0.333956	0.221992	-0.959289	-0.174599
17009		0.286181	0.236149	-0.928619	0.934351	0.145998	0.325074	0.212343	-0.960686	-0.178865
17010		0.288610	0.233075	-0.928644	0.935287	0.138837	0.325520	0.204801	-0.962497	-0.177922
17011		0.293397	0.230993	-0.927664	0.933116	0.141808	0.330433	0.207878	-0.962566	-0.173937
17012		0.298209	0.229743	-0.926439	0.930022	0.148467	0.336180	0.214781	-0.961860	-0.169392
17013		0.301106	0.230264	-0.925372	0.926713	0.158112	0.340886	0.224807	-0.960197	-0.165781
17014		0.301434	0.231050	-0.925070	0.923916	0.168970	0.343261	0.235619	-0.958157	-0.162537
17015		0.299878	0.231676	-0.925418	0.922417	0.177040	0.343227	0.243353	-0.956547	-0.160612
17016		0.297532	0.230941	-0.926359	0.922335	0.181016	0.341366	0.246522	-0.955981	-0.159147
17017		0.295267	0.228942	-0.927579	0.923762	0.179421	0.338336	0.243887	-0.956762	-0.158511
17018		0.293907	0.226712	-0.928558	0.926276	0.172165	0.335219	0.235864	-0.958624	-0.159398
17019		0.294071	0.224873	-0.928953	0.928593	0.162960	0.333405	0.226356	-0.960664	-0.160894
17020		0.296029	0.224424	-0.928440	0.929492	0.156219	0.334126	0.220026	-0.961888	-0.162355
17021		0.299470	0.225780	-0.927007	0.928228	0.155805	0.337812	0.220704	-0.961638	-0.162917
17022		0.303283	0.229371	-0.924883	0.924393	0.164814	0.343997	0.231337	-0.959284	-0.162043
17023		0.306038	0.232738	-0.923133	0.918139	0.184229	0.350829	0.251719	-0.954931	-0.157305
17024		0.306422	0.233090	-0.922916	0.910525	0.210956	0.355586	0.277579	-0.949298	-0.147592
17025		0.303351	0.230113	-0.924676	0.902947	0.240588	0.356095	0.304408	-0.942956	-0.134797
17026		0.295921	0.225128	-0.928304	0.897070	0.268382	0.351051	0.328171	-0.936637	-0.122535
17027		0.283790	0.219611	-0.933399	0.893634	0.292376	0.340491	0.347679	-0.930745	-0.113279
17028		0.268287	0.212506	-0.939608	0.893472	0.309788	0.325177	0.360181	-0.926754	-0.106756
17029		0.250976	0.202515	-0.946572	0.896451	0.320323	0.306218	0.365223	-0.925409	-0.101151
17030		0.232263	0.190759	-0.953763	0.901073	0.327010	0.284836	0.366225	-0.925568	-0.095936
17031		0.211778	0.178902	-0.960804	0.906404	0.331697	0.261549	0.365488	-0.926267	-0.091911
17032		0.189143	0.167984	-0.967474	0.911958	0.335262	0.236501	0.364086	-0.927028	-0.089782
17033		0.165498	0.155403	-0.973889	0.916890	0.339445	0.209977	0.363213	-0.927700	-0.086311
17034		0.141657	0.138693	-0.980152	0.921545	0.343114	0.181738	0.361509	-0.928998	-0.079207
17035		0.118926	0.120472	-0.985567	0.925794	0.345276	0.153919	0.358835	-0.930737	-0.070470
17036		0.097419	0.104713	-0.989720	0.929072	0.346986	0.128161	0.356839	-0.932006	-0.063482
17037		0.078247	0.088628	-0.992987	0.934716	0.339841	0.103988	0.346674	-0.936298	-0.056251
17038		0.060137	0.074202	-0.995428	0.941818	0.326166	0.081212	0.330700	-0.942396	-0.050270
17039		0.042597	0.067701	-0.996796	0.945297	0.320238	0.062146	0.323419	-0.944915	-0.050357
17040		0.026908	0.071451	-0.997081	0.945619	0.321630	0.048567	0.324162	-0.944166	-0.058911
17041		0.013413	0.079556	-0.996740	0.946007	0.321862	0.038420	0.323869	-0.943438	-0.070943
17042		0.001348	0.090408	-0.995904	0.948988	0.313903	0.029781	0.315309	-0.945141	-0.085373
17043		-0.009161	0.100597	-0.994885	0.954388	0.297806	0.021324	0.298428	-0.949311	-0.098737
17044		-0.019648	0.106439	-0.994125	0.961205	0.275635	0.010514	0.275135	-0.955351	-0.107725
17045		-0.031169	0.108277	-0.993632	0.967697	0.252098	-0.002884	0.250180	-0.961625	-0.112637
17046		-0.043846	0.104550	-0.993553	0.973245	0.228997	-0.018853	0.225549	-0.967796	-0.111793
17047		-0.057277	0.097513	-0.993585	0.976572	0.212247	-0.035465	0.207427	-0.972339	-0.107386
17048		-0.072660	0.091449	-0.993155	0.978128	0.201127	-0.053041	0.194900	-0.975287	-0.104062
17049		-0.090247	0.086382	-0.992166	0.978804	0.191594	-0.072350	0.183843	-0.977666	-0.101841
17050		-0.109387	0.080595	-0.990726	0.978787	0.182441	-0.093227	0.173235	-0.979908	-0.098842
17051		-0.129552	0.073352	-0.988856	0.977920	0.174370	-0.115184	0.163978	-0.981944	-0.094322
17052		-0.150781	0.063609	-0.986519	0.975443	0.171640	-0.138021	0.160547	-0.983104	-0.087927
17053		-0.173592	0.053509	-0.983363	0.969772	0.183159	-0.161227	0.171485	-0.981626	-0.083687
17054		-0.198918	0.047395	-0.978869	0.960202	0.209258	-0.184993	0.196068	-0.976711	-0.087134
17055		-0.226488	0.047632	-0.972849	0.948272	0.238892	-0.209070	0.222447	-0.969877	-0.099274
17056		-0.254612	0.048244	-0.965839	0.938129	0.254723	-0.234584	0.234705	-0.965810	-0.110115
17057		-0.282124	0.046231	-0.958264	0.931801	0.250967	-0.262225	0.228370	-0.966891	-0.113881
17058		-0.308591	0.041659	-0.950282	0.929601	0.224872	-0.292018	0.201527	-0.973497	-0.108120
17059		-0.333464	0.037130	-0.942031	0.930309	0.174841	-0.322423	0.152734	-0.983896	-0.092845
17060		-0.357530	0.037747	-0.933138	0.929736	0.108653	-0.351831	0.088108	-0.993363	-0.073942
17061		-0.380628	0.038321	-0.923934	0.924509	0.037516	-0.379309	0.020127	-0.998561	-0.049708
17062		-0.404416	0.036926	-0.913829	0.913016	-0.042020	-0.405754	-0.053382	-0.998434	-0.016721
17063		-0.424077	0.038045	-0.904827	0.898502	-0.107398	-0.425628	-0.113370	-0.993488	0.011362
17064		-0.450175	0.031452	-0.892386	0.878167	-0.165446	-0.448833	-0.161759	-0.985717	0.046859
17065		-0.475686	0.030305	-0.879093	0.862879	-0.177953	-0.473046	-0.170773	-0.983572	0.058500
17066		-0.500433	0.008492	-0.865734	0.850593	-0.181623	-0.493462	-0.161428	-0.983332	0.083667
17067		-0.521032	-0.020899	-0.853281	0.833173	-0.229522	-0.503132	-0.185332	-0.973079	0.137000
17068		-0.537818	-0.048640	-0.841656	0.814313	-0.288451	-0.503676	-0.218277	-0.956258	0.194743
17069		-0.550244	-0.056560	-0.833086	0.802155	-0.312892	-0.508572	-0.231901	-0.948103	0.217537
17070		-0.558365	-0.045099	-0.828369	0.797799	-0.302985	-0.521264	-0.227474	-0.951928	0.205156
17071		-0.565647	-0.035153	-0.823898	0.798083	-0.274877	-0.536196	-0.207622	-0.960837	0.183538
17072		-0.571949	-0.031284	-0.819693	0.800758	-0.238058	-0.549651	-0.177939	-0.970747	0.161208
17073		-0.575846	-0.027427	-0.817098	0.803476	-0.203688	-0.559408	-0.151090	-0.978651	0.139330
17074		-0.577765	-0.022883	-0.815882	0.806634	-0.168624	-0.566486	-0.124614	-0.985415	0.115884
17075		-0.576675	-0.015864	-0.816820	0.810875	-0.133048	-0.569894	-0.099635	-0.990983	0.089589
17076		-0.571846	-0.011554	-0.820279	0.816345	-0.106832	-0.567599	-0.081074	-0.994210	0.070524
17077		-0.562503	-0.008419	-0.826752	0.823869	-0.089766	-0.559627	-0.069502	-0.995927	0.057430
17078		-0.548245	-0.006432	-0.836293	0.833567	-0.085236	-0.545803	-0.067772	-0.996340	0.052092
17079		-0.529407	-0.006768	-0.848341	0.844728	-0.096733	-0.526381	-0.078500	-0.995287	0.056929
17080		-0.506541	-0.006361	-0.862193	0.857189	-0.111541	-0.502778	-0.092972	-0.993739	0.061953
17081		-0.479817	-0.002703	-0.877364	0.870904	-0.122632	-0.475907	-0.106307	-0.992449	0.061195
17082		-0.449261	0.004161	-0.893391	0.886290	-0.123837	-0.446267	-0.112492	-0.992294	0.051947
17083		-0.415594	0.014105	-0.909441	0.902700	-0.116091	-0.414314	-0.111421	-0.993138	0.035514
17084		-0.379569	0.026390	-0.924787	0.918942	-0.104974	-0.380165	-0.107112	-0.994125	0.015594
17085		-0.342605	0.038581	-0.938687	0.934162	-0.092163	-0.344742	-0.099812	-0.994996	-0.004465
17086		-0.305850	0.047125	-0.950913	0.948094	-0.076216	-0.308721	-0.087023	-0.995977	-0.021368
17087		-0.270419	0.050051	-0.961441	0.960725	-0.050594	-0.272851	-0.062299	-0.997464	-0.034404
17088		-0.236875	0.046747	-0.970415	0.971229	-0.013879	-0.237742	-0.024582	-0.998810	-0.042114
17089		-0.207612	0.036218	-0.977541	0.977864	0.034293	-0.206410	0.026048	-0.998755	-0.042536
17090		-0.184743	0.023070	-0.982516	0.978663	0.095806	-0.181768	0.089938	-0.995133	-0.040278
17091		-0.170418	0.019950	-0.985170	0.971949	0.167867	-0.164732	0.162091	-0.985608	-0.047997
17092		-0.164349	0.035826	-0.985751	0.959506	0.237582	-0.151338	0.228775	-0.970707	-0.073422
17093		-0.164555	0.057649	-0.984682	0.952056	0.270299	-0.143278	0.257898	-0.961049	-0.099364
17094		-0.166653	0.075874	-0.983092	0.953117	0.267794	-0.140904	0.252575	-0.960484	-0.116945
17095		-0.168770	0.087692	-0.981747	0.956219	0.256168	-0.141501	0.239083	-0.962646	-0.127086
17096		-0.168178	0.088939	-0.981736	0.959445	0.243335	-0.142315	0.226233	-0.965856	-0.126256
17097		-0.163295	0.083396	-0.983046	0.957375	0.254034	-0.137480	0.238262	-0.963593	-0.121323
17098		-0.155101	0.081815	-0.984505	0.948614	0.290572	-0.125300	0.275818	-0.953349	-0.122679
17099		-0.143394	0.081739	-0.986284	0.940637	0.321042	-0.110151	0.307635	-0.943531	-0.122922
17100		-0.126656	0.075475	-0.989071	0.938119	0.333111	-0.094712	0.322322	-0.939862	-0.112995
17101		-0.107386	0.067162	-0.991946	0.940079	0.331602	-0.079319	0.323604	-0.941026	-0.098747
17102		-0.087219	0.062531	-0.994225	0.947750	0.312634	-0.063479	0.306859	-0.947813	-0.086531
17103		-0.065127	0.061850	-0.995958	0.958556	0.281293	-0.045213	0.277359	-0.957627	-0.077606
17104		-0.041338	0.065956	-0.996966	0.967679	0.251086	-0.023512	0.248773	-0.965715	-0.074203
17105		-0.017015	0.075784	-0.996979	0.971860	0.235554	0.001319	0.234942	-0.968902	-0.077659
17106		0.006944	0.089136	-0.995995	0.973369	0.227631	0.027158	0.229141	-0.969659	-0.085181
17107		0.030709	0.102901	-0.994217	0.975738	0.212643	0.052146	0.216779	-0.971697	-0.093875
17108		0.054221	0.117751	-0.991562	0.977984	0.194141	0.076533	0.201514	-0.973881	-0.104632
17109		0.078377	0.131756	-0.988179	0.978919	0.177364	0.101291	0.188613	-0.975286	-0.115077
17110		0.102961	0.143038	-0.984347	0.979051	0.160197	0.125685	0.175667	-0.976666	-0.123547
17111		0.125755	0.156104	-0.979703	0.978067	0.145777	0.148773	0.166043	-0.976924	-0.134348
17112		0.144967	0.171080	-0.974534	0.974843	0.143844	0.170265	0.169310	-0.974700	-0.145924
17113		0.157811	0.184562	-0.970068	0.969444	0.157889	0.187749	0.187815	-0.970056	-0.154006
17114		0.162833	0.197025	-0.966781	0.964969	0.172500	0.197682	0.205718	-0.965104	-0.162035
17115		0.157699	0.207658	-0.965406	0.966176	0.169566	0.194298	0.204047	-0.963393	-0.173894
17116		0.145427	0.217217	-0.965229	0.972293	0.149097	0.180045	0.183022	-0.964669	-0.189516
17117		0.131592	0.222759	-0.965951	0.978635	0.126096	0.162399	0.157978	-0.966684	-0.201407
17118		0.117351	0.225306	-0.967195	0.982290	0.116911	0.146417	0.146064	-0.967248	-0.207596
17119		0.102235	0.229555	-0.967912	0.984976	0.112776	0.130784	0.139179	-0.966740	-0.214576
17120		0.087545	0.232612	-0.968621	0.986770	0.112949	0.116310	0.136459	-0.965989	-0.219646
17121		0.073314	0.236643	-0.968827	0.986776	0.123601	0.104862	0.144563	-0.963703	-0.224452
17122		0.058271	0.244156	-0.967984	0.982674	0.156862	0.098721	0.175943	-0.956965	-0.230786
17123		0.045960	0.233599	-0.971246	0.976508	0.194396	0.092964	0.210523	-0.952702	-0.219177
17124		0.038733	0.210929	-0.976734	0.970378	0.225330	0.087141	0.238468	-0.951176	-0.195953
17125		0.032686	0.201325	-0.978979	0.966963	0.241391	0.081927	0.252811	-0.949315	-0.186784
17126		0.029420	0.196493	-0.980064	0.967005	0.242630	0.077672	0.253055	-0.950011	-0.182871
17127		0.028499	0.195896	-0.980210	0.966893	0.243366	0.076748	0.253585	-0.949946	-0.182475
17128		0.030546	0.196856	-0.979956	0.965726	0.247019	0.079724	0.257762	-0.948804	-0.182564
17129		0.036217	0.196031	-0.979929	0.964627	0.249355	0.085534	0.261118	-0.948364	-0.180066
17130		0.043218	0.197964	-0.979256	0.964077	0.248863	0.092858	0.262083	-0.948091	-0.180097
17131		0.051058	0.207874	-0.976822	0.964458	0.243648	0.102262	0.259258	-0.947325	-0.188045
17132		0.061354	0.215528	-0.974568	0.964418	0.238770	0.113520	0.257164	-0.946856	-0.193210
17133		0.073123	0.212510	-0.974419	0.964893	0.232055	0.123016	0.252261	-0.949205	-0.188081
17134		0.082665	0.205608	-0.975137	0.965662	0.225303	0.129367	0.246300	-0.952347	-0.179923
17135		0.088103	0.199813	-0.975865	0.965906	0.222289	0.132719	0.243443	-0.954286	-0.173416
17136		0.089373	0.197703	-0.976179	0.965273	0.224367	0.133816	0.245479	-0.954239	-0.170785
17137		0.086772	0.195456	-0.976866	0.964262	0.229925	0.131657	0.250339	-0.953379	-0.168520
17138		0.080924	0.187739	-0.978880	0.961504	0.244051	0.126294	0.262607	-0.951417	-0.160762
17139		0.072231	0.175224	-0.981875	0.956999	0.265132	0.117716	0.280954	-0.948157	-0.148538
17140		0.059804	0.162531	-0.984889	0.953133	0.283852	0.104718	0.296583	-0.944993	-0.137938
17141		0.041982	0.154387	-0.987118	0.952155	0.293163	0.086346	0.302717	-0.943515	-0.134693
17142		0.019260	0.147578	-0.988863	0.953873	0.293653	0.062403	0.299592	-0.944452	-0.135115
17143		-0.005360	0.138458	-0.990354	0.957898	0.285008	0.034662	0.287058	-0.948472	-0.134156
17144		-0.027623	0.125048	-0.991766	0.960279	0.278913	0.008422	0.277670	-0.952140	-0.127785
17145		-0.045486	0.111755	-0.992694	0.959307	0.282101	-0.012198	0.278677	-0.952853	-0.120039
17146		-0.060432	0.106665	-0.992457	0.955510	0.293755	-0.026610	0.288701	-0.949911	-0.119672
17147		-0.071961	0.108960	-0.991438	0.953685	0.298597	-0.036405	0.292073	-0.948139	-0.125401
17148		-0.078418	0.115155	-0.990247	0.949908	0.310064	-0.039167	0.302530	-0.943716	-0.133701
17149		-0.080259	0.115285	-0.990085	0.943475	0.329241	-0.038144	0.321579	-0.937182	-0.135193
17150		-0.080694	0.116153	-0.989948	0.938833	0.342450	-0.036347	0.334786	-0.932329	-0.136682
17151		-0.080949	0.119924	-0.989477	0.936941	0.347780	-0.034501	0.339983	-0.929875	-0.140514
17152		-0.079999	0.116676	-0.989943	0.937316	0.346731	-0.034880	0.339174	-0.930679	-0.137101
17153		-0.081778	0.111505	-0.990393	0.936562	0.348423	-0.038106	0.340827	-0.930681	-0.132925
17154		-0.088842	0.109952	-0.989958	0.932123	0.359494	-0.043724	0.351076	-0.926647	-0.134426
17155		-0.099448	0.110899	-0.988844	0.927852	0.369321	-0.051894	0.359446	-0.922661	-0.139626
17156		-0.112220	0.111508	-0.987407	0.924503	0.375997	-0.062609	0.364280	-0.919887	-0.145284
17157		-0.126242	0.109714	-0.985914	0.921378	0.381255	-0.075552	0.367595	-0.917937	-0.149218
17158		-0.140722	0.106629	-0.984290	0.919835	0.381808	-0.090145	0.366198	-0.918070	-0.151810
17159		-0.152883	0.099121	-0.983261	0.921410	0.373979	-0.105566	0.357255	-0.922125	-0.148506
17160		-0.163804	0.093698	-0.982033	0.925092	0.360309	-0.119928	0.342599	-0.928115	-0.145699
17161		-0.176392	0.096752	-0.979553	0.925522	0.355096	-0.131589	0.335104	-0.929809	-0.152182
17162		-0.194927	0.109261	-0.974713	0.915201	0.377639	-0.140694	0.352718	-0.919484	-0.173608
17163		-0.221170	0.122652	-0.967492	0.911828	0.377884	-0.160540	0.345909	-0.917693	-0.195414
17164		-0.251211	0.150114	-0.956221	0.933204	0.299813	-0.198098	0.256951	-0.942113	-0.215404
17165		-0.271996	0.185712	-0.944208	0.956614	0.158675	-0.244360	0.104442	-0.969708	-0.220813
17166		-0.280539	0.150663	-0.947944	0.959663	0.063133	-0.273973	0.018569	-0.986567	-0.162297
17167		-0.286529	0.098111	-0.953035	0.957845	0.050971	-0.282728	0.020838	-0.993869	-0.108579
17168		-0.288034	0.078565	-0.954392	0.957241	-0.004422	-0.289258	-0.026946	-0.996899	-0.073931
17169		-0.285170	0.074056	-0.955612	0.957573	-0.021280	-0.287405	-0.041619	-0.997027	-0.064846
17170		-0.280687	0.075047	-0.956861	0.959791	0.017673	-0.280160	-0.004115	-0.997023	-0.076990
17171		-0.275070	0.071592	-0.958755	0.961012	0.049685	-0.272007	0.028162	-0.996196	-0.082467
17172		-0.268852	0.067117	-0.960840	0.961435	0.078752	-0.263517	0.057982	-0.994632	-0.085702
17173		-0.263426	0.063794	-0.962568	0.960576	0.109283	-0.255638	0.088885	-0.991961	-0.090067
17174		-0.258905	0.062027	-0.963909	0.959250	0.133438	-0.249067	0.113173	-0.989114	-0.094047
17175		-0.255323	0.062905	-0.964807	0.958001	0.151202	-0.243664	0.130553	-0.986499	-0.098868
17176		-0.252771	0.066558	-0.965234	0.956578	0.166845	-0.239000	0.145137	-0.983734	-0.105842
17177		-0.251516	0.071434	-0.965213	0.954284	0.184709	-0.234998	0.161496	-0.980194	-0.114626
17178		-0.250870	0.076046	-0.965029	0.950936	0.205828	-0.230987	0.181064	-0.975629	-0.123951
17179		-0.250374	0.078339	-0.964974	0.947020	0.226916	-0.227294	0.201162	-0.970759	-0.131002
17180		-0.249623	0.077793	-0.965213	0.943907	0.242060	-0.224603	0.216167	-0.967138	-0.133853
17181		-0.249161	0.077959	-0.965319	0.942223	0.249961	-0.223013	0.223906	-0.965112	-0.135735
17182		-0.248391	0.077853	-0.965526	0.942213	0.250745	-0.222175	0.224804	-0.964917	-0.135637
17183		-0.246540	0.074557	-0.966261	0.943312	0.247079	-0.221620	0.222219	-0.966123	-0.131245
17184		-0.243851	0.070727	-0.967230	0.944561	0.243427	-0.220335	0.219866	-0.967337	-0.126166
17185		-0.240414	0.067949	-0.968289	0.945948	0.240106	-0.218018	0.217678	-0.968366	-0.122001
17186		-0.236167	0.067292	-0.969380	0.947157	0.238791	-0.214177	0.217067	-0.968737	-0.120131
17187		-0.231411	0.069725	-0.970354	0.948237	0.239135	-0.208953	0.217476	-0.968480	-0.121454
17188		-0.226170	0.074455	-0.971238	0.948671	0.243121	-0.202277	0.221068	-0.967134	-0.125620
17189		-0.220326	0.079683	-0.972166	0.949250	0.246860	-0.194898	0.224458	-0.965770	-0.130029
17190		-0.213840	0.085822	-0.973092	0.950279	0.249108	-0.186857	0.226369	-0.964666	-0.134824
17191		-0.206624	0.093004	-0.973990	0.951420	0.251344	-0.177836	0.228267	-0.963419	-0.140420
17192		-0.198676	0.101278	-0.974818	0.952516	0.254126	-0.167729	0.230739	-0.961854	-0.146957
17193		-0.190341	0.109462	-0.975596	0.953744	0.256161	-0.157336	0.232687	-0.960416	-0.153157
17194		-0.181808	0.116332	-0.976429	0.955172	0.256832	-0.147252	0.233648	-0.959429	-0.157811
17195		-0.173627	0.122794	-0.977126	0.956203	0.258435	-0.137432	0.235648	-0.958193	-0.162287
17196		-0.166101	0.130260	-0.977468	0.956365	0.262895	-0.127481	0.240366	-0.955991	-0.168243
17197		-0.159182	0.136792	-0.977727	0.956311	0.267350	-0.118291	0.245214	-0.953841	-0.173373
17198		-0.153005	0.141759	-0.978005	0.956476	0.270084	-0.110488	0.248481	-0.952344	-0.176913
17199		-0.147604	0.146013	-0.978209	0.956568	0.272451	-0.103671	0.251377	-0.951026	-0.179886
17200		-0.142870	0.150707	-0.978200	0.956269	0.275878	-0.097163	0.255221	-0.949304	-0.183531
17201		-0.138703	0.155062	-0.978119	0.955601	0.280232	-0.091085	0.259977	-0.947326	-0.187047
17202		-0.135055	0.157816	-0.978189	0.955164	0.283258	-0.086176	0.263480	-0.945970	-0.188996
17203		-0.132274	0.159771	-0.978252	0.954898	0.285234	-0.082531	0.265845	-0.945047	-0.190294
17204		-0.130971	0.163109	-0.977876	0.954181	0.288422	-0.079689	0.269043	-0.943508	-0.193411
17205		-0.130925	0.166972	-0.977230	0.952353	0.295072	-0.077176	0.275467	-0.940773	-0.197649
17206		-0.131585	0.169737	-0.976665	0.949575	0.304430	-0.075028	0.284591	-0.937290	-0.201236
17207		-0.132972	0.171432	-0.976181	0.946741	0.313396	-0.073924	0.293258	-0.934020	-0.203975
17208		-0.134849	0.172362	-0.975760	0.944531	0.319973	-0.074012	0.299460	-0.931616	-0.205949
17209		-0.137041	0.173466	-0.975259	0.943076	0.324038	-0.074884	0.303031	-0.930005	-0.207998
17210		-0.139429	0.175300	-0.974592	0.942069	0.326692	-0.076014	0.305066	-0.928732	-0.210695
17211		-0.142148	0.177945	-0.973719	0.940630	0.330608	-0.076900	0.308236	-0.926841	-0.214376
17212		-0.144960	0.180886	-0.972762	0.938397	0.336824	-0.077207	0.313684	-0.924029	-0.218569
17213		-0.148306	0.184451	-0.971588	0.934913	0.346438	-0.076938	0.322403	-0.919760	-0.223824
17214		-0.152323	0.187926	-0.970300	0.930808	0.357322	-0.076918	0.332255	-0.914880	-0.229352
17215		-0.157594	0.191044	-0.968848	0.926479	0.368153	-0.078107	0.341762	-0.909926	-0.235017
17216		-0.163462	0.191250	-0.967834	0.921769	0.379239	-0.080742	0.351598	-0.905318	-0.238279
17217		-0.169567	0.188834	-0.967258	0.916548	0.390926	-0.084358	0.362197	-0.900843	-0.239364
17218		-0.175743	0.184745	-0.966946	0.912235	0.399790	-0.089416	0.370056	-0.897796	-0.238791
17219		-0.181800	0.178705	-0.966961	0.908878	0.405894	-0.095866	0.375352	-0.896278	-0.236212
17220		-0.187479	0.171257	-0.967224	0.906227	0.410040	-0.103054	0.378952	-0.895845	-0.232071
17221		-0.192409	0.163462	-0.967605	0.903020	0.415440	-0.109384	0.384102	-0.894813	-0.227544
17222		-0.196867	0.156894	-0.967795	0.899483	0.421657	-0.114614	0.390095	-0.893079	-0.224133
17223		-0.200993	0.152089	-0.967714	0.895873	0.428137	-0.118785	0.396248	-0.890824	-0.222305
17224		-0.204513	0.148395	-0.967550	0.892924	0.433282	-0.122286	0.401076	-0.888958	-0.221117
17225		-0.207521	0.146009	-0.967273	0.890701	0.437031	-0.125124	0.404459	-0.887517	-0.220743
17226		-0.210168	0.144405	-0.966942	0.887365	0.443329	-0.126664	0.410382	-0.884651	-0.221313
17227		-0.212499	0.143002	-0.966641	0.883506	0.450721	-0.127545	0.417446	-0.881136	-0.222121
17228		-0.216260	0.143822	-0.965685	0.880071	0.456975	-0.129029	0.422737	-0.877775	-0.225399
17229		-0.220884	0.145756	-0.964347	0.878116	0.459990	-0.131608	0.424408	-0.875879	-0.229595
17230		-0.227461	0.148807	-0.962350	0.876999	0.460835	-0.136029	0.423242	-0.874922	-0.235326
17231		-0.234884	0.150491	-0.960303	0.875638	0.461676	-0.141826	0.422005	-0.874190	-0.240216
17232		-0.242571	0.150575	-0.958377	0.875699	0.459127	-0.149510	0.417504	-0.875517	-0.243229
17233		-0.250491	0.150276	-0.956385	0.875658	0.456486	-0.157620	0.412890	-0.876948	-0.245936
17234		-0.257894	0.149241	-0.954577	0.875542	0.453882	-0.165581	0.408554	-0.878475	-0.247720
17235		-0.264649	0.148394	-0.952859	0.875593	0.451027	-0.172948	0.404101	-0.880087	-0.249297
17236		-0.270351	0.147649	-0.951373	0.875871	0.447968	-0.179373	0.399700	-0.881773	-0.250431
17237		-0.275040	0.147078	-0.950116	0.876542	0.444373	-0.184953	0.395004	-0.883686	-0.251140
17238		-0.278986	0.146514	-0.949052	0.877610	0.440096	-0.190043	0.389831	-0.885917	-0.251363
17239		-0.282211	0.145717	-0.948221	0.878821	0.435663	-0.194606	0.384747	-0.888237	-0.251009
17240		-0.285004	0.144412	-0.947585	0.880177	0.430887	-0.199063	0.379555	-0.890776	-0.249912
17241		-0.286868	0.143474	-0.947165	0.881965	0.425518	-0.202664	0.373959	-0.893504	-0.248606
17242		-0.288144	0.142962	-0.946855	0.883977	0.419892	-0.205611	0.368183	-0.896243	-0.247365
17243		-0.289046	0.142710	-0.946619	0.886091	0.414157	-0.208127	0.362347	-0.898948	-0.246164
17244		-0.289976	0.142677	-0.946339	0.888043	0.408748	-0.210488	0.356783	-0.901426	-0.245230
17245		-0.291044	0.142744	-0.946001	0.889610	0.404165	-0.212709	0.351978	-0.903479	-0.244616
17246		-0.292515	0.142498	-0.945584	0.890773	0.400243	-0.215243	0.347792	-0.905262	-0.244010
17247		-0.294447	0.141824	-0.945086	0.891417	0.397243	-0.218114	0.344495	-0.906689	-0.243391
17248		-0.297107	0.140969	-0.944381	0.891133	0.396160	-0.221220	0.342941	-0.907295	-0.243324
17249		-0.300400	0.139785	-0.943515	0.890209	0.396269	-0.224719	0.342473	-0.907431	-0.243477
17250		-0.304189	0.138238	-0.942528	0.888808	0.397194	-0.228597	0.342766	-0.907263	-0.243689
17251		-0.308242	0.136475	-0.941468	0.887246	0.398269	-0.232757	0.343191	-0.907059	-0.243851
17252		-0.312477	0.134956	-0.940290	0.885564	0.399541	-0.236946	0.343708	-0.906727	-0.244359
17253		-0.316412	0.133790	-0.939140	0.883831	0.401176	-0.240626	0.344567	-0.906178	-0.245184
17254		-0.320094	0.133164	-0.937980	0.882228	0.402729	-0.243893	0.345274	-0.905581	-0.246392
17255		-0.323252	0.132887	-0.936936	0.880761	0.404335	-0.246523	0.346076	-0.904906	-0.247744
17256		-0.325882	0.132879	-0.936026	0.879751	0.405155	-0.248773	0.346179	-0.904540	-0.248933
17257		-0.327716	0.132898	-0.935383	0.879298	0.405065	-0.250515	0.345598	-0.904578	-0.249603
17258		-0.328787	0.132824	-0.935017	0.879404	0.404012	-0.251840	0.344308	-0.905059	-0.249639
17259		-0.329085	0.132757	-0.934922	0.880044	0.402095	-0.252671	0.342383	-0.905922	-0.249155
17260		-0.328912	0.132784	-0.934979	0.880866	0.400043	-0.253062	0.340429	-0.906826	-0.248544
17261		-0.328181	0.133023	-0.935202	0.881763	0.398240	-0.252783	0.338809	-0.907585	-0.247989
17262		-0.326895	0.133257	-0.935619	0.882877	0.396243	-0.252032	0.337148	-0.908424	-0.247179
17263		-0.325337	0.133725	-0.936095	0.884162	0.394027	-0.251000	0.335281	-0.909319	-0.246426
17264		-0.323631	0.134204	-0.936617	0.885409	0.392003	-0.249769	0.333637	-0.910123	-0.245690
17265		-0.321790	0.134649	-0.937188	0.886536	0.390380	-0.248311	0.332424	-0.910754	-0.244992
17266		-0.319861	0.134708	-0.937839	0.887461	0.389254	-0.246768	0.331816	-0.911227	-0.244056
17267		-0.318029	0.134716	-0.938461	0.887937	0.389268	-0.245028	0.332304	-0.911220	-0.243418
17268		-0.316315	0.134858	-0.939020	0.888139	0.389970	-0.243170	0.333396	-0.910899	-0.243127
17269		-0.314720	0.135196	-0.939507	0.887819	0.392049	-0.240989	0.335752	-0.909956	-0.243415
17270		-0.313053	0.135770	-0.939981	0.887142	0.395164	-0.238379	0.339082	-0.908522	-0.244155
17271		-0.311247	0.136554	-0.940467	0.886228	0.399005	-0.235361	0.343112	-0.906724	-0.245207
17272		-0.309113	0.137418	-0.941045	0.885427	0.402714	-0.232036	0.347086	-0.904952	-0.246157
17273		-0.306542	0.138352	-0.941749	0.884861	0.406037	-0.228375	0.350788	-0.903323	-0.246889
17274		-0.303557	0.139400	-0.942561	0.884571	0.408869	-0.224411	0.354101	-0.901884	-0.247424
17275		-0.300437	0.140697	-0.943367	0.884489	0.411247	-0.220351	0.356954	-0.900600	-0.247998
17276		-0.297118	0.142072	-0.944212	0.884448	0.413595	-0.216080	0.359823	-0.899308	-0.248541
17277		-0.293751	0.143445	-0.945058	0.884350	0.416046	-0.211732	0.362816	-0.897958	-0.249070
17278		-0.290350	0.144803	-0.945901	0.884124	0.418759	-0.207281	0.366090	-0.896478	-0.249610
17279		-0.286946	0.146012	-0.946754	0.883653	0.421963	-0.202744	0.369892	-0.894778	-0.250105
17280		-0.283507	0.147160	-0.947612	0.882861	0.425855	-0.198001	0.374408	-0.892744	-0.250655
17281		-0.279949	0.148059	-0.948529	0.881683	0.430560	-0.193012	0.379821	-0.890335	-0.251076
17282		-0.276252	0.148980	-0.949468	0.880171	0.435975	-0.187682	0.385984	-0.887542	-0.251567
17283		-0.272675	0.150160	-0.950316	0.878172	0.442337	-0.182080	0.393018	-0.884189	-0.252480
17284		-0.269327	0.151406	-0.951073	0.875651	0.449576	-0.176399	0.400871	-0.880317	-0.253661
17285		-0.266328	0.152528	-0.951738	0.872642	0.457490	-0.170876	0.409347	-0.876036	-0.254945
17287		-0.260977	0.154146	-0.952959	0.864868	0.475860	-0.159880	0.428830	-0.865908	-0.257505
17289		-0.256232	0.154285	-0.954223	0.856946	0.492973	-0.150404	0.447201	-0.856255	-0.258529
17291		-0.252050	0.154077	-0.955369	0.850517	0.506205	-0.142749	0.461619	-0.848538	-0.258635
17292		-0.250015	0.153516	-0.955994	0.847897	0.511448	-0.139615	0.467508	-0.845490	-0.258036
17293		-0.247755	0.152583	-0.956732	0.845614	0.515997	-0.136687	0.472815	-0.842891	-0.256868
17294		-0.245398	0.151188	-0.957561	0.843458	0.520208	-0.134021	0.477869	-0.840551	-0.255178
17295		-0.243330	0.149840	-0.958300	0.842008	0.523063	-0.132016	0.481470	-0.839019	-0.253443
17296		-0.241947	0.148891	-0.958798	0.841295	0.524501	-0.130846	0.483409	-0.838290	-0.252162
17297		-0.241455	0.148770	-0.958941	0.841782	0.523756	-0.130700	0.482807	-0.838777	-0.251695
17298		-0.241491	0.149168	-0.958869	0.843561	0.520698	-0.131448	0.479673	-0.840609	-0.251577
17299		-0.241211	0.149104	-0.958950	0.845546	0.517262	-0.132258	0.476308	-0.842739	-0.250843
17300		-0.240761	0.148635	-0.959136	0.847910	0.513100	-0.133328	0.472316	-0.845361	-0.249563
17301		-0.240667	0.148279	-0.959215	0.850975	0.507546	-0.135051	0.466821	-0.848770	-0.248331
17302		-0.240779	0.148079	-0.959217	0.853732	0.502438	-0.136737	0.461700	-0.851838	-0.247397
17304		-0.240085	0.144966	-0.959867	0.857812	0.494567	-0.139865	0.454443	-0.856965	-0.243092
17305		-0.239474	0.142256	-0.960424	0.859001	0.492090	-0.141298	0.452515	-0.858842	-0.240041
17306		-0.238832	0.138793	-0.961091	0.859224	0.491336	-0.142563	0.452432	-0.859841	-0.236601
17307		-0.238282	0.134585	-0.961826	0.858030	0.493126	-0.143566	0.454979	-0.859484	-0.232981
17308		-0.238644	0.130394	-0.962313	0.855601	0.496958	-0.144842	0.459343	-0.857922	-0.230161
17309		-0.240131	0.126416	-0.962474	0.853100	0.500583	-0.147093	0.463204	-0.856408	-0.228051
17311		-0.246527	0.121290	-0.961516	0.846340	0.510309	-0.152623	0.472158	-0.851395	-0.228457
17312		-0.250993	0.120682	-0.960436	0.841842	0.516977	-0.155040	0.477813	-0.847450	-0.231353
17313		-0.255688	0.121094	-0.959145	0.836972	0.524262	-0.156930	0.483840	-0.842903	-0.235400
17314		-0.260188	0.121623	-0.957867	0.830809	0.533685	-0.157911	0.491994	-0.836892	-0.239904
17315		-0.264247	0.121611	-0.956757	0.824673	0.542871	-0.158763	0.500088	-0.830964	-0.243741
17316		-0.268232	0.121082	-0.955715	0.819391	0.550383	-0.160242	0.506607	-0.826086	-0.246843
17317		-0.272301	0.120953	-0.954580	0.815878	0.554945	-0.162419	0.510094	-0.823047	-0.249794
17318		-0.276262	0.122105	-0.953294	0.813055	0.558590	-0.164073	0.512466	-0.820407	-0.253595
17319		-0.279145	0.123772	-0.952239	0.811505	0.560559	-0.165028	0.513360	-0.818813	-0.256919
17320		-0.280340	0.125021	-0.951724	0.813194	0.557736	-0.166269	0.510024	-0.820549	-0.258022
17321		-0.279381	0.125241	-0.951977	0.815621	0.554123	-0.166464	0.506664	-0.822960	-0.256961
17322		-0.276236	0.124494	-0.952993	0.819264	0.548935	-0.165763	0.502495	-0.826542	-0.253629
17323		-0.271187	0.123633	-0.954553	0.824009	0.542366	-0.163853	0.497460	-0.830996	-0.248958
17324		-0.264891	0.123796	-0.956299	0.830494	0.533248	-0.161014	0.490012	-0.836852	-0.244064
17325		-0.257753	0.125682	-0.958002	0.838694	0.521407	-0.157248	0.479745	-0.844002	-0.239803
17326		-0.249648	0.129156	-0.959685	0.847580	0.508415	-0.152062	0.468278	-0.851371	-0.236395
17327		-0.240843	0.133836	-0.961292	0.856533	0.495108	-0.145666	0.456449	-0.858461	-0.233879
17328		-0.231791	0.139899	-0.962653	0.866284	0.479868	-0.138849	0.442521	-0.866115	-0.232422
17329		-0.222398	0.146418	-0.963899	0.876252	0.463484	-0.131772	0.427458	-0.873925	-0.231377
17330		-0.212614	0.152677	-0.965135	0.886105	0.446427	-0.124583	0.411841	-0.881699	-0.230205
17331		-0.202831	0.158431	-0.966312	0.895300	0.429695	-0.117475	0.396607	-0.888967	-0.228999
17332		-0.193275	0.163229	-0.967471	0.903292	0.414549	-0.110512	0.383026	-0.895268	-0.227566
17333		-0.184443	0.167079	-0.968538	0.910370	0.400437	-0.104288	0.370414	-0.900963	-0.225962
17334		-0.176392	0.169967	-0.969534	0.915962	0.389000	-0.098450	0.360415	-0.905423	-0.224300
17335		-0.169488	0.172715	-0.970280	0.919062	0.383143	-0.092339	0.355808	-0.907398	-0.223674
17336		-0.163936	0.175756	-0.970688	0.919970	0.382410	-0.086130	0.356063	-0.907123	-0.224381
17337		-0.159661	0.179336	-0.970746	0.919753	0.384196	-0.080298	0.358556	-0.905667	-0.226286
17338		-0.156159	0.182370	-0.970750	0.919529	0.385711	-0.075457	0.360668	-0.904416	-0.227927
17339		-0.153116	0.184606	-0.970812	0.919597	0.386286	-0.071584	0.361796	-0.903717	-0.228910
17340		-0.150071	0.185576	-0.971103	0.921287	0.382669	-0.069245	0.358761	-0.905056	-0.228397
17341		-0.146781	0.185139	-0.971689	0.924888	0.374028	-0.068447	0.350767	-0.908750	-0.226133
17342		-0.143178	0.183519	-0.972533	0.930187	0.360562	-0.068904	0.338013	-0.914503	-0.222332
17343		-0.139861	0.182058	-0.973290	0.935920	0.345202	-0.069920	0.323252	-0.920701	-0.218672
17344		-0.137072	0.180906	-0.973902	0.940423	0.332600	-0.070578	0.311152	-0.925554	-0.215718
17345		-0.134678	0.180510	-0.974309	0.943673	0.323271	-0.070551	0.302231	-0.928931	-0.213879
17346		-0.132177	0.180837	-0.974591	0.946560	0.314849	-0.069954	0.294198	-0.931755	-0.212789
17347		-0.129627	0.182444	-0.974634	0.950303	0.303451	-0.069587	0.283058	-0.935217	-0.212712
17348		-0.126191	0.183154	-0.974952	0.954703	0.289401	-0.069203	0.269478	-0.939522	-0.211378
17349		-0.122350	0.183704	-0.975337	0.959896	0.271669	-0.069245	0.252248	-0.944695	-0.209576
17350		-0.118624	0.184641	-0.975621	0.965165	0.252209	-0.069621	0.233205	-0.949894	-0.208127
17351		-0.115499	0.186246	-0.975691	0.970371	0.231025	-0.070770	0.212228	-0.954956	-0.207410
17352		-0.112906	0.188454	-0.975570	0.974920	0.210533	-0.072161	0.191791	-0.959250	-0.207498
17353		-0.110662	0.189246	-0.975674	0.978912	0.190369	-0.074105	0.171714	-0.963299	-0.206322
17354		-0.108412	0.188697	-0.976033	0.982550	0.169607	-0.076346	0.151136	-0.967278	-0.203792
17355		-0.106106	0.186792	-0.976653	0.985799	0.148330	-0.078730	0.130161	-0.971137	-0.199878
17356		-0.103918	0.184154	-0.977389	0.988489	0.127766	-0.081025	0.109956	-0.974558	-0.195311
17357		-0.102230	0.181341	-0.978092	0.990327	0.111282	-0.082877	0.093815	-0.977104	-0.190964
17358		-0.100713	0.178937	-0.978692	0.991629	0.097940	-0.084138	0.080798	-0.978974	-0.187303
17359		-0.099191	0.177306	-0.979144	0.992493	0.088378	-0.084540	0.071545	-0.980180	-0.184741
17360		-0.097293	0.177089	-0.979374	0.992830	0.085937	-0.083091	0.069450	-0.980436	-0.184181
17361		-0.095187	0.177672	-0.979475	0.992633	0.091039	-0.079952	0.074965	-0.979870	-0.185029
17362		-0.092913	0.178571	-0.979530	0.991906	0.102111	-0.075471	0.086543	-0.978614	-0.186613
17363		-0.090677	0.180072	-0.979465	0.990495	0.118451	-0.069921	0.103427	-0.976496	-0.189101
17364		-0.088681	0.181196	-0.979440	0.988379	0.137893	-0.063980	0.123465	-0.973732	-0.191319
17365		-0.087267	0.181776	-0.979460	0.985658	0.158311	-0.058438	0.144437	-0.970513	-0.192984
17366		-0.086407	0.182168	-0.979463	0.982796	0.176670	-0.053842	0.163233	-0.967265	-0.194300
17367		-0.086046	0.182053	-0.979517	0.979885	0.193153	-0.050179	0.180061	-0.964131	-0.195011
17368		-0.086522	0.181482	-0.979581	0.976639	0.209585	-0.047434	0.196697	-0.960801	-0.195376
17369		-0.087916	0.180585	-0.979622	0.973142	0.225615	-0.045744	0.212757	-0.957333	-0.195570
17370		-0.089928	0.179327	-0.979671	0.969743	0.239926	-0.045099	0.226961	-0.954085	-0.195477
17371		-0.092265	0.178061	-0.979684	0.966573	0.252382	-0.045158	0.239214	-0.951103	-0.195395
17372		-0.094900	0.177178	-0.979593	0.963462	0.263935	-0.045600	0.250469	-0.948128	-0.195752
17373		-0.097680	0.176696	-0.979407	0.960323	0.275043	-0.046156	0.261224	-0.945055	-0.196551
17374		-0.100618	0.176126	-0.979212	0.957306	0.285218	-0.047067	0.270999	-0.942141	-0.197305
17375		-0.103525	0.174798	-0.979147	0.954423	0.294519	-0.048333	0.279929	-0.939524	-0.197321
17376		-0.106313	0.172622	-0.979234	0.951396	0.303932	-0.049712	0.289040	-0.936924	-0.196544
17377		-0.109176	0.170133	-0.979354	0.948658	0.312076	-0.051540	0.296865	-0.934699	-0.195470
17378		-0.112305	0.167360	-0.979478	0.946558	0.317947	-0.054204	0.302351	-0.933220	-0.194123
17379		-0.116041	0.163816	-0.979642	0.945163	0.321368	-0.058217	0.305289	-0.932677	-0.192125
17380		-0.120241	0.158850	-0.979953	0.944588	0.322017	-0.063703	0.305442	-0.933312	-0.188768
17381		-0.124962	0.152888	-0.980311	0.944185	0.321858	-0.070160	0.304794	-0.934362	-0.184575
17382		-0.130134	0.146531	-0.980609	0.943500	0.322292	-0.077050	0.304752	-0.935231	-0.180193
17383		-0.135829	0.140295	-0.980749	0.942884	0.322228	-0.084491	0.304171	-0.936209	-0.176050
17384		-0.141937	0.135452	-0.980564	0.941667	0.323848	-0.091572	0.305150	-0.936363	-0.173516
17385		-0.148133	0.131835	-0.980141	0.939300	0.328884	-0.097724	0.309469	-0.935123	-0.172552
17386		-0.154438	0.129208	-0.979517	0.936935	0.333765	-0.103698	0.313530	-0.933759	-0.172606
17387		-0.161036	0.128245	-0.978581	0.935334	0.336280	-0.109849	0.314990	-0.932989	-0.174105
17388		-0.168009	0.129172	-0.977286	0.934070	0.337745	-0.115938	0.315098	-0.932332	-0.177400
17389		-0.174852	0.130654	-0.975888	0.933223	0.337966	-0.121960	0.313883	-0.932045	-0.181023
17390		-0.181098	0.131244	-0.974668	0.933149	0.335870	-0.128157	0.310542	-0.932720	-0.183295
17391		-0.186622	0.131299	-0.973618	0.933550	0.332411	-0.134114	0.306033	-0.933950	-0.184609
17392		-0.191347	0.130823	-0.972765	0.933604	0.330145	-0.139244	0.302937	-0.934821	-0.185309
17393		-0.195258	0.129622	-0.972148	0.933836	0.327481	-0.143898	0.299708	-0.935924	-0.184989
17394		-0.198072	0.127572	-0.971850	0.934289	0.324421	-0.147831	0.296430	-0.937271	-0.183448
17395		-0.199757	0.125499	-0.971775	0.934454	0.322762	-0.150402	0.294777	-0.938123	-0.181747
17396		-0.200678	0.123798	-0.971804	0.934642	0.321441	-0.152055	0.293553	-0.938802	-0.180213
17397		-0.201143	0.122753	-0.971840	0.934854	0.320362	-0.153023	0.292557	-0.939308	-0.179195
17398		-0.201436	0.121596	-0.971925	0.934980	0.319626	-0.153791	0.291952	-0.939709	-0.178074
17399		-0.201931	0.120476	-0.971962	0.934786	0.319818	-0.154566	0.292230	-0.939788	-0.177201
17400		-0.203069	0.119915	-0.971794	0.934091	0.321377	-0.155534	0.293661	-0.939328	-0.177273
17401		-0.204858	0.119456	-0.971475	0.932943	0.324043	-0.156887	0.296058	-0.938470	-0.177829
17402		-0.207354	0.119470	-0.970944	0.931522	0.327248	-0.158669	0.298783	-0.937356	-0.179145
17403		-0.210432	0.120166	-0.970195	0.930049	0.330381	-0.160804	0.301211	-0.936167	-0.181283
17404		-0.213833	0.120897	-0.969360	0.928608	0.333203	-0.163287	0.303252	-0.935072	-0.183515
17405		-0.217306	0.121344	-0.968532	0.927290	0.335515	-0.166018	0.304812	-0.934187	-0.185430
17406		-0.220772	0.122000	-0.967665	0.925866	0.338150	-0.168602	0.306646	-0.933151	-0.187610
17407		-0.224331	0.123079	-0.966709	0.924198	0.341499	-0.170988	0.309085	-0.931789	-0.190358
17408		-0.228085	0.124480	-0.965651	0.922450	0.344986	-0.173410	0.311550	-0.930317	-0.193513
17409		-0.231856	0.125668	-0.964599	0.920770	0.348167	-0.175961	0.313729	-0.928971	-0.196436
17410		-0.235433	0.126876	-0.963574	0.919010	0.351638	-0.178243	0.316214	-0.927498	-0.199388
17411		-0.238857	0.128594	-0.962502	0.916906	0.356235	-0.179947	0.319737	-0.925505	-0.202998
17412		-0.241734	0.130147	-0.961575	0.914799	0.361028	-0.181110	0.323585	-0.923429	-0.206331
17413		-0.244052	0.131186	-0.960848	0.912890	0.365396	-0.181983	0.327216	-0.921562	-0.208934
17414		-0.246200	0.132385	-0.960135	0.911086	0.369531	-0.182671	0.330616	-0.919740	-0.211593
17415		-0.248772	0.134066	-0.959239	0.909501	0.372881	-0.183758	0.333046	-0.918143	-0.214696
17416		-0.251926	0.136892	-0.958015	0.908226	0.375264	-0.185211	0.334155	-0.916754	-0.218868
17417		-0.255166	0.139777	-0.956741	0.907658	0.375652	-0.187194	0.333237	-0.916159	-0.222723
17418		-0.257877	0.141813	-0.955714	0.908082	0.373408	-0.189617	0.329981	-0.916764	-0.225071
17419		-0.259884	0.142755	-0.955029	0.909376	0.368845	-0.192326	0.324802	-0.918463	-0.225675
17420		-0.260969	0.142572	-0.954761	0.910735	0.364305	-0.194534	0.320090	-0.920301	-0.224918
17421		-0.261343	0.141424	-0.954829	0.912081	0.359950	-0.196329	0.315925	-0.922190	-0.223061
17422		-0.261196	0.140572	-0.954995	0.913141	0.356750	-0.197236	0.312969	-0.923563	-0.221543
17423		-0.260573	0.140330	-0.955201	0.913537	0.355911	-0.196920	0.312333	-0.923924	-0.220938
17424		-0.259462	0.140257	-0.955514	0.912842	0.358612	-0.195235	0.315276	-0.922890	-0.221079
17425		-0.258158	0.140864	-0.955778	0.910883	0.365165	-0.192213	0.321941	-0.920224	-0.222581
17426		-0.256848	0.142167	-0.955938	0.907662	0.375202	-0.188077	0.331931	-0.915976	-0.225409
17427		-0.255556	0.144228	-0.955976	0.903711	0.386968	-0.183202	0.343509	-0.910744	-0.229232
17428		-0.254166	0.146717	-0.955967	0.899950	0.397911	-0.178203	0.354245	-0.905616	-0.233174
17429		-0.252530	0.150048	-0.955884	0.896409	0.408180	-0.172744	0.364253	-0.900486	-0.237582
17430		-0.250502	0.154182	-0.955760	0.894075	0.415498	-0.167307	0.371321	-0.896431	-0.241933
17431		-0.247679	0.158612	-0.955770	0.893322	0.419234	-0.161924	0.375009	-0.893916	-0.245527
17432		-0.243871	0.163163	-0.955984	0.894204	0.419401	-0.156530	0.375400	-0.893018	-0.248181
17433		-0.238981	0.167449	-0.956477	0.896546	0.416378	-0.151113	0.372952	-0.893639	-0.249632
17434		-0.232842	0.170957	-0.957370	0.900175	0.410457	-0.145637	0.368062	-0.895711	-0.249463
17435		-0.225725	0.174589	-0.958419	0.903958	0.404313	-0.139248	0.363190	-0.897803	-0.249085
17436		-0.217932	0.178161	-0.959565	0.907499	0.398752	-0.132072	0.359098	-0.899586	-0.248582
17437		-0.209536	0.181109	-0.960882	0.911154	0.392757	-0.124664	0.354815	-0.901633	-0.247314
17438		-0.200852	0.183930	-0.962200	0.914336	0.387765	-0.116737	0.351636	-0.903221	-0.246057
17439		-0.192080	0.186517	-0.963492	0.917095	0.383601	-0.108571	0.349347	-0.904467	-0.244736
17440		-0.183380	0.189076	-0.964687	0.919202	0.380855	-0.100087	0.348482	-0.905097	-0.243641
17441		-0.175005	0.191828	-0.965699	0.920471	0.379990	-0.091327	0.349437	-0.904881	-0.243072
17442		-0.166869	0.194261	-0.966653	0.921196	0.380227	-0.082610	0.351500	-0.904262	-0.242401
17443		-0.159007	0.196360	-0.967553	0.921541	0.381145	-0.074094	0.354229	-0.903422	-0.241559
17444		-0.151673	0.198990	-0.968193	0.921284	0.383328	-0.065540	0.358094	-0.901921	-0.241467
17445		-0.144666	0.201499	-0.968746	0.920664	0.386148	-0.057167	0.362561	-0.900160	-0.241376
17446		-0.137974	0.203887	-0.969223	0.919776	0.389370	-0.049026	0.367390	-0.898232	-0.241253
17447		-0.131124	0.205421	-0.969850	0.918626	0.393000	-0.040958	0.372738	-0.896300	-0.240237
17448		-0.123895	0.206382	-0.970596	0.917727	0.395840	-0.032977	0.377395	-0.894828	-0.238445
17449		-0.116478	0.207004	-0.971382	0.917390	0.397181	-0.025363	0.380564	-0.894090	-0.236166
17450		-0.109030	0.206735	-0.972303	0.917805	0.396595	-0.018593	0.381766	-0.894412	-0.232983
17451		-0.102209	0.206507	-0.973092	0.918601	0.394984	-0.012663	0.381741	-0.895177	-0.230069
17452		-0.096258	0.206655	-0.973667	0.919704	0.392539	-0.007609	0.380630	-0.896218	-0.227847
17453		-0.091217	0.206760	-0.974130	0.921379	0.388646	-0.003787	0.377809	-0.897889	-0.225956
17454		-0.086631	0.206578	-0.974587	0.923603	0.383349	-0.000842	0.373433	-0.900205	-0.224006
17455		-0.082558	0.207021	-0.974847	0.926199	0.377032	0.001630	0.367886	-0.902767	-0.222869
17456		-0.079010	0.208518	-0.974822	0.928351	0.371681	0.004260	0.363211	-0.904640	-0.222944
17457		-0.075586	0.210176	-0.974737	0.929459	0.368850	0.007457	0.361099	-0.905415	-0.223230
17458		-0.072412	0.212451	-0.974485	0.930028	0.367324	0.010973	0.360283	-0.905504	-0.224184
17459		-0.069362	0.214792	-0.974194	0.930575	0.365818	0.014400	0.359471	-0.905561	-0.225254
17460		-0.066168	0.216792	-0.973973	0.931578	0.363119	0.017537	0.357470	-0.906171	-0.225985
17461		-0.062898	0.218431	-0.973823	0.932640	0.360222	0.020560	0.355284	-0.906933	-0.226374
17462		-0.059399	0.220035	-0.973682	0.934446	0.355342	0.023296	0.351116	-0.908469	-0.226718
17463		-0.055911	0.222481	-0.973332	0.937122	0.348054	0.025726	0.344495	-0.910692	-0.227952
17464		-0.051826	0.225469	-0.972871	0.941064	0.337068	0.027986	0.334234	-0.914084	-0.229650
17465		-0.046635	0.228537	-0.972418	0.945750	0.323444	0.030660	0.321530	-0.918234	-0.231223
17466		-0.040425	0.231816	-0.971919	0.950481	0.308902	0.034144	0.308143	-0.922410	-0.232824
17467		-0.033408	0.234762	-0.971479	0.954725	0.294995	0.038455	0.295609	-0.926210	-0.233988
17468		-0.025328	0.236783	-0.971232	0.958302	0.282372	0.043850	0.284632	-0.929623	-0.234062
17469		-0.016776	0.239235	-0.970817	0.960898	0.272261	0.050487	0.276394	-0.932009	-0.234448
17470		-0.007800	0.241937	-0.970261	0.962367	0.265394	0.058440	0.271640	-0.933291	-0.234902
17471		0.001523	0.243640	-0.969865	0.962699	0.262060	0.067344	0.270570	-0.933790	-0.234152
17472		0.010636	0.244842	-0.969505	0.962208	0.261334	0.076554	0.272108	-0.933679	-0.232809
17473		0.019122	0.246203	-0.969030	0.961116	0.262521	0.085665	0.275481	-0.932988	-0.231609
17474		0.026962	0.247923	-0.968404	0.959982	0.263729	0.094245	0.278762	-0.932192	-0.230891
17475		0.034357	0.249588	-0.967742	0.959253	0.263491	0.102012	0.280453	-0.931814	-0.230366
17476		0.041367	0.250812	-0.967152	0.959237	0.260870	0.108680	0.279559	-0.932223	-0.229796
17477		0.047688	0.251868	-0.966586	0.960165	0.255183	0.113865	0.275335	-0.933512	-0.229666
17478		0.053191	0.252760	-0.966066	0.961790	0.247226	0.117640	0.268572	-0.935410	-0.229952
17479		0.058037	0.253249	-0.965659	0.963616	0.238593	0.120487	0.260913	-0.937517	-0.230187
17480		0.062385	0.253271	-0.965382	0.965319	0.230377	0.122821	0.253509	-0.939564	-0.230116
17481		0.066196	0.253596	-0.965043	0.966820	0.222855	0.124880	0.246733	-0.941289	-0.230429
17482		0.069592	0.254736	-0.964503	0.968042	0.216274	0.126968	0.240940	-0.942515	-0.231544
17483		0.072770	0.255683	-0.964018	0.969093	0.210318	0.128935	0.235717	-0.943606	-0.232475
17484		0.075704	0.256196	-0.963656	0.969884	0.205456	0.130816	0.231503	-0.944538	-0.232927
17485		0.078247	0.256836	-0.963282	0.970353	0.202014	0.132684	0.228674	-0.945106	-0.233414
17486		0.080371	0.257584	-0.962908	0.970564	0.199813	0.134461	0.227036	-0.945371	-0.233942
17487		0.082091	0.258240	-0.962587	0.970514	0.198923	0.136134	0.226635	-0.945379	-0.234295
17488		0.083530	0.258531	-0.962385	0.970387	0.198558	0.137565	0.226654	-0.945376	-0.234289
17489		0.084529	0.258821	-0.962220	0.970218	0.198621	0.138657	0.227005	-0.945284	-0.234324
17490		0.085476	0.258362	-0.962259	0.970216	0.198127	0.139379	0.226660	-0.945513	-0.233732
17491		0.086346	0.257624	-0.962380	0.970356	0.197120	0.139829	0.225727	-0.945925	-0.232966
17492		0.087078	0.257102	-0.962453	0.970584	0.195793	0.140116	0.224466	-0.946342	-0.232490
17493		0.087620	0.256760	-0.962495	0.970842	0.194417	0.140243	0.223134	-0.946719	-0.232239
17494		0.087968	0.256487	-0.962536	0.970982	0.193643	0.140340	0.222384	-0.946951	-0.232010
17495		0.088092	0.256497	-0.962522	0.970947	0.193717	0.140485	0.222490	-0.946934	-0.231980
17496		0.088019	0.256369	-0.962563	0.970942	0.193803	0.140403	0.222542	-0.946951	-0.231861
17497		0.087711	0.255922	-0.962710	0.971076	0.193488	0.139909	0.222079	-0.947136	-0.231548
17498		0.087339	0.255104	-0.962961	0.971294	0.192905	0.139198	0.221270	-0.947476	-0.230933
17499		0.086958	0.254242	-0.963223	0.971429	0.192683	0.138557	0.220824	-0.947752	-0.230223
17500		0.086701	0.253630	-0.963408	0.971325	0.193379	0.138323	0.221385	-0.947775	-0.229591
17501		0.086415	0.253367	-0.963503	0.970887	0.195457	0.138476	0.223409	-0.947418	-0.229100
17502		0.085990	0.253273	-0.963566	0.970269	0.198331	0.138720	0.226239	-0.946846	-0.228688
17503		0.085169	0.253664	-0.963536	0.969556	0.201728	0.138808	0.229582	-0.946024	-0.228761
17504		0.083816	0.254305	-0.963485	0.968921	0.205027	0.138404	0.232738	-0.945142	-0.229217
17505		0.082200	0.254288	-0.963629	0.968476	0.207763	0.137439	0.235156	-0.944549	-0.229193
17506		0.080439	0.253521	-0.963979	0.968148	0.210183	0.136064	0.237107	-0.944219	-0.228539
17507		0.078697	0.252620	-0.964360	0.967859	0.212423	0.134628	0.238862	-0.943959	-0.227783
17508		0.076916	0.251948	-0.964679	0.967612	0.214466	0.133163	0.240441	-0.943677	-0.227292
17509		0.075348	0.250940	-0.965066	0.967397	0.216285	0.131769	0.241795	-0.943531	-0.226462
17510		0.073955	0.250277	-0.965346	0.967324	0.217399	0.130470	0.242519	-0.943450	-0.226022
17511		0.072483	0.249945	-0.965543	0.967313	0.218255	0.129115	0.243006	-0.943341	-0.225956
17512		0.071028	0.249424	-0.965786	0.967136	0.219757	0.127882	0.244135	-0.943130	-0.225618
17513		0.069536	0.248902	-0.966029	0.966881	0.221568	0.126685	0.245573	-0.942845	-0.225251
17514		0.068077	0.248462	-0.966246	0.966605	0.223408	0.125550	0.247062	-0.942526	-0.224956
17515		0.066822	0.248038	-0.966443	0.966121	0.225921	0.124783	0.249290	-0.942039	-0.224538
17516		0.065748	0.247943	-0.966541	0.965385	0.229216	0.124469	0.252408	-0.941268	-0.224290
17517		0.064790	0.248059	-0.966576	0.964645	0.232400	0.124302	0.255466	-0.940456	-0.224231
17518		0.064045	0.248071	-0.966623	0.964097	0.234755	0.124125	0.257711	-0.939868	-0.224129
17519		0.063427	0.247931	-0.966699	0.963783	0.236203	0.123815	0.259035	-0.939542	-0.223970
17520		0.063001	0.247492	-0.966839	0.963676	0.236846	0.123423	0.259538	-0.939495	-0.223581
17521		0.062718	0.246944	-0.966998	0.963684	0.237015	0.123030	0.259574	-0.939597	-0.223111
17522		0.062620	0.246250	-0.967181	0.963784	0.236789	0.122688	0.259229	-0.939836	-0.222504
17523		0.062813	0.245348	-0.967398	0.963994	0.236050	0.122459	0.258399	-0.940258	-0.221686
17524		0.063361	0.244417	-0.967598	0.964088	0.235572	0.122638	0.257914	-0.940620	-0.220714
17525		0.064052	0.244025	-0.967651	0.964034	0.235500	0.123202	0.257946	-0.940740	-0.220164
17526		0.064829	0.244241	-0.967545	0.963953	0.235405	0.124012	0.258054	-0.940708	-0.220176
17527		0.065569	0.244608	-0.967402	0.963923	0.235120	0.124783	0.257978	-0.940683	-0.220367
17528		0.066369	0.244886	-0.967278	0.964037	0.234291	0.125462	0.257348	-0.940818	-0.220529
17529		0.067077	0.245048	-0.967188	0.964241	0.233185	0.125953	0.256398	-0.941051	-0.220644
17530		0.067751	0.245107	-0.967126	0.964543	0.231742	0.126303	0.255081	-0.941392	-0.220715
17531		0.068225	0.244981	-0.967125	0.964989	0.229878	0.126304	0.253262	-0.941882	-0.220720
17532		0.068811	0.244501	-0.967204	0.965515	0.227690	0.126249	0.251090	-0.942537	-0.220402
17533		0.069262	0.244133	-0.967265	0.966091	0.225340	0.126053	0.248738	-0.943197	-0.220247
17534		0.069740	0.243857	-0.967300	0.966666	0.222948	0.125900	0.246359	-0.943837	-0.220180
17535		0.070143	0.243704	-0.967310	0.967195	0.220732	0.125746	0.244161	-0.944397	-0.220227
17536		0.070638	0.243589	-0.967303	0.967704	0.218516	0.125695	0.241989	-0.944942	-0.220286
17537		0.071089	0.243421	-0.967312	0.968178	0.216450	0.125622	0.239954	-0.945460	-0.220288
17538		0.071568	0.242835	-0.967424	0.968712	0.214166	0.125421	0.237647	-0.946131	-0.219910
17539		0.071984	0.241899	-0.967628	0.969244	0.211940	0.125088	0.235338	-0.946872	-0.219202
17540		0.072375	0.241098	-0.967798	0.969808	0.209559	0.124731	0.232884	-0.947606	-0.218652
17541		0.072613	0.240744	-0.967869	0.970325	0.207363	0.124376	0.230643	-0.948179	-0.218543
17542		0.072977	0.240536	-0.967893	0.970803	0.205221	0.124197	0.228506	-0.948697	-0.218537
17543		0.073408	0.240290	-0.967921	0.971175	0.203473	0.124168	0.226782	-0.949136	-0.218427
17544		0.074104	0.239901	-0.967965	0.971568	0.201495	0.124318	0.224864	-0.949656	-0.218149
17545		0.074802	0.239890	-0.967914	0.971868	0.199843	0.124637	0.223330	-0.950008	-0.218193
17546		0.075643	0.239983	-0.967826	0.972160	0.198124	0.125109	0.221774	-0.950345	-0.218315
17547		0.076391	0.240011	-0.967760	0.972443	0.196486	0.125491	0.220271	-0.950678	-0.218387
17548		0.077078	0.239986	-0.967712	0.972713	0.194935	0.125819	0.218836	-0.951003	-0.218412
17549		0.077591	0.240097	-0.967643	0.972866	0.193963	0.126137	0.217972	-0.951174	-0.218532
17550		0.078273	0.240014	-0.967609	0.972933	0.193292	0.126650	0.217428	-0.951332	-0.218388
17551		0.078764	0.240011	-0.967569	0.972960	0.192889	0.127050	0.217127	-0.951414	-0.218329
17552		0.079326	0.239867	-0.967559	0.973077	0.192071	0.127394	0.216397	-0.951616	-0.218173
17553		0.079674	0.239732	-0.967564	0.973199	0.191348	0.127548	0.215719	-0.951795	-0.218061
17554		0.079918	0.239686	-0.967555	0.973471	0.190012	0.127478	0.214402	-0.952075	-0.218142
17555		0.079902	0.239812	-0.967526	0.973785	0.188606	0.127167	0.212977	-0.952322	-0.218456
17556		0.079820	0.239647	-0.967573	0.974168	0.186955	0.126669	0.211248	-0.952690	-0.218534
17557		0.079495	0.239299	-0.967686	0.974442	0.185953	0.126034	0.210104	-0.952973	-0.218401
17558		0.079266	0.238889	-0.967806	0.974732	0.184819	0.125453	0.208839	-0.953296	-0.218203
17559		0.078923	0.238623	-0.967900	0.974983	0.183910	0.124841	0.207796	-0.953539	-0.218139
17560		0.078846	0.238342	-0.967975	0.975224	0.182881	0.124467	0.206690	-0.953807	-0.218017
17561		0.078767	0.238317	-0.967988	0.975308	0.182544	0.124305	0.206324	-0.953878	-0.218054
17562		0.078939	0.238140	-0.968018	0.975333	0.182351	0.124396	0.206143	-0.953959	-0.217871
17563		0.078877	0.238305	-0.967982	0.975150	0.183211	0.124565	0.207029	-0.953753	-0.217932
17564		0.078986	0.238349	-0.967962	0.974987	0.183889	0.124839	0.207753	-0.953611	-0.217863
17565		0.078942	0.238391	-0.967956	0.974602	0.185669	0.125211	0.209568	-0.953256	-0.217679
17566		0.079159	0.238400	-0.967936	0.974199	0.187367	0.125819	0.211355	-0.952921	-0.217417
17567		0.079272	0.238509	-0.967899	0.973731	0.189387	0.126418	0.213459	-0.952495	-0.217231
17568		0.079540	0.238566	-0.967864	0.973450	0.190471	0.126947	0.214635	-0.952264	-0.217082
17569		0.079717	0.238790	-0.967794	0.973198	0.191453	0.127401	0.215710	-0.952011	-0.217128
17570		0.079996	0.239187	-0.967673	0.972963	0.192276	0.127960	0.216667	-0.951745	-0.217339
17571		0.080138	0.239528	-0.967577	0.972656	0.193490	0.128458	0.217986	-0.951414	-0.217473
17572		0.080260	0.239583	-0.967553	0.972410	0.194486	0.128821	0.219039	-0.951197	-0.217364
17573		0.080093	0.239683	-0.967542	0.972124	0.195806	0.128978	0.220364	-0.950901	-0.217319
17574		0.079916	0.239861	-0.967512	0.971907	0.196817	0.129073	0.221382	-0.950647	-0.217394
17575		0.079615	0.240135	-0.967469	0.971670	0.197969	0.129098	0.222530	-0.950338	-0.217571
17576		0.079506	0.240282	-0.967442	0.971520	0.198651	0.129179	0.223222	-0.950159	-0.217644
17578		0.079217	0.240310	-0.967458	0.971177	0.200263	0.129265	0.224810	-0.949814	-0.217520
17579		0.079175	0.240121	-0.967509	0.970990	0.201100	0.129370	0.225631	-0.949684	-0.217233
17580		0.078951	0.239933	-0.967574	0.970737	0.202313	0.129377	0.226795	-0.949474	-0.216940
17581		0.078905	0.239849	-0.967598	0.970606	0.202897	0.129445	0.227370	-0.949371	-0.216790
17582		0.078791	0.239727	-0.967638	0.970463	0.203575	0.129455	0.228020	-0.949257	-0.216606
17583		0.078921	0.239570	-0.967666	0.970459	0.203542	0.129541	0.227995	-0.949303	-0.216429
17584		0.078981	0.239700	-0.967629	0.970347	0.203957	0.129727	0.228451	-0.949181	-0.216483
17585		0.079264	0.239756	-0.967592	0.970247	0.204206	0.130081	0.228776	-0.949114	-0.216436
17586		0.079560	0.239746	-0.967570	0.970061	0.204812	0.130513	0.229460	-0.948986	-0.216273
17587		0.079949	0.239630	-0.967567	0.969911	0.205229	0.130970	0.229958	-0.948925	-0.216012
17588		0.080199	0.239707	-0.967527	0.969628	0.206246	0.131471	0.231063	-0.948685	-0.215885
17589		0.080595	0.239634	-0.967512	0.969386	0.207026	0.132027	0.231938	-0.948534	-0.215613
17590		0.080812	0.239805	-0.967452	0.969024	0.208356	0.132589	0.233369	-0.948199	-0.215539
17591		0.081139	0.239856	-0.967412	0.968759	0.209241	0.133130	0.234354	-0.947991	-0.215385
17592		0.081318	0.240023	-0.967355	0.968425	0.210467	0.133629	0.235670	-0.947678	-0.215329
17593		0.081555	0.240109	-0.967314	0.968170	0.211345	0.134088	0.236633	-0.947460	-0.215230
17594		0.081641	0.240217	-0.967280	0.967822	0.212672	0.134503	0.238023	-0.947136	-0.215125
17595		0.081703	0.240126	-0.967297	0.967531	0.213804	0.134799	0.239181	-0.946904	-0.214861
17596		0.081635	0.240008	-0.967332	0.967247	0.214979	0.134967	0.240350	-0.946668	-0.214597
17597		0.081616	0.239741	-0.967400	0.967062	0.215757	0.135057	0.241102	-0.946559	-0.214235
17598		0.081427	0.239684	-0.967430	0.966859	0.216663	0.135058	0.241978	-0.946366	-0.214098
17599		0.081284	0.239568	-0.967471	0.966695	0.217399	0.135052	0.242681	-0.946227	-0.213918
17600		0.081030	0.239521	-0.967504	0.966469	0.218423	0.135017	0.243664	-0.946003	-0.213790
17601		0.080843	0.239394	-0.967551	0.966316	0.219134	0.134959	0.244332	-0.945870	-0.213615
17602		0.080563	0.239241	-0.967612	0.966104	0.220123	0.134863	0.245259	-0.945679	-0.213398
17603		0.080464	0.238982	-0.967684	0.965907	0.220971	0.134888	0.246066	-0.945547	-0.213054
17604		0.080355	0.238869	-0.967721	0.965697	0.221851	0.134948	0.246925	-0.945370	-0.212848
17605		0.080315	0.238719	-0.967762	0.965547	0.222467	0.135008	0.247524	-0.945263	-0.212627
17606		0.080306	0.238552	-0.967804	0.965369	0.223173	0.135113	0.248219	-0.945139	-0.212368
17607		0.080379	0.238261	-0.967869	0.965273	0.223542	0.135193	0.248571	-0.945125	-0.212019
17608		0.080490	0.237771	-0.967981	0.965132	0.224088	0.135297	0.249083	-0.945119	-0.211443
17609		0.080665	0.237340	-0.968072	0.965062	0.224319	0.135410	0.249295	-0.945172	-0.210954
17610		0.080699	0.237296	-0.968080	0.964956	0.224708	0.135519	0.249693	-0.945091	-0.210847
17611		0.080729	0.237409	-0.968049	0.964903	0.224880	0.135617	0.249891	-0.945022	-0.210922
17612		0.080728	0.237531	-0.968020	0.964839	0.225104	0.135698	0.250137	-0.944938	-0.211007
17613		0.080686	0.237672	-0.967989	0.964788	0.225298	0.135737	0.250347	-0.944856	-0.211124
17614		0.080654	0.237651	-0.967996	0.964689	0.225693	0.135788	0.250740	-0.944767	-0.211056
17615		0.080775	0.237384	-0.968052	0.964610	0.225961	0.135898	0.251002	-0.944770	-0.210731
17616		0.080934	0.237029	-0.968125	0.964540	0.226194	0.136014	0.251223	-0.944803	-0.210317
17617		0.081206	0.236658	-0.968194	0.964532	0.226132	0.136172	0.251165	-0.944911	-0.209901
17618		0.081463	0.236556	-0.968197	0.964503	0.226116	0.136399	0.251191	-0.944941	-0.209739
17619		0.081835	0.236593	-0.968156	0.964492	0.225958	0.136744	0.251115	-0.944969	-0.209701
17620		0.082158	0.236666	-0.968111	0.964402	0.226114	0.137119	0.251355	-0.944914	-0.209664
17621		0.082526	0.236777	-0.968053	0.964361	0.226056	0.137502	0.251391	-0.944900	-0.209683
17622		0.082873	0.236919	-0.967988	0.964382	0.225771	0.137822	0.251197	-0.944932	-0.209770
17623		0.083269	0.236927	-0.967952	0.964480	0.225186	0.138090	0.250687	-0.945070	-0.209760
17624		0.083600	0.236829	-0.967948	0.964585	0.224629	0.138270	0.250175	-0.945227	-0.209662
17625		0.083934	0.236641	-0.967965	0.964764	0.223796	0.138369	0.249371	-0.945471	-0.209519
17626		0.084241	0.236386	-0.968001	0.964954	0.222945	0.138419	0.248531	-0.945736	-0.209320
17627		0.084608	0.236180	-0.968019	0.965140	0.222062	0.138536	0.247680	-0.945995	-0.209159
17628		0.084843	0.236057	-0.968028	0.965227	0.221620	0.138641	0.247261	-0.946130	-0.209045
17629		0.085054	0.236043	-0.968013	0.965331	0.221108	0.138734	0.246782	-0.946253	-0.209054
17630		0.085159	0.236129	-0.967983	0.965404	0.220757	0.138784	0.246460	-0.946314	-0.209160
17631		0.085280	0.236186	-0.967958	0.965584	0.219992	0.138750	0.245714	-0.946477	-0.209297
17632		0.085401	0.236157	-0.967955	0.965802	0.219087	0.138663	0.244813	-0.946695	-0.209371
17633		0.085628	0.235978	-0.967978	0.966051	0.218023	0.138608	0.243750	-0.946985	-0.209298
17634		0.085813	0.235741	-0.968020	0.966295	0.217003	0.138506	0.242715	-0.947278	-0.209173
17635		0.086114	0.235430	-0.968069	0.966609	0.215649	0.138429	0.241353	-0.947665	-0.208998
17636		0.086425	0.235094	-0.968123	0.966916	0.214313	0.138360	0.240009	-0.948051	-0.208794
17637		0.086728	0.234856	-0.968153	0.967214	0.212996	0.138313	0.238696	-0.948407	-0.208684
17638		0.086977	0.234687	-0.968172	0.967405	0.212117	0.138326	0.237829	-0.948645	-0.208588
17639		0.087346	0.234458	-0.968194	0.967605	0.211141	0.138423	0.236880	-0.948920	-0.208420
17640		0.087632	0.234359	-0.968192	0.967731	0.210482	0.138539	0.236255	-0.949091	-0.208352
17641		0.088010	0.234311	-0.968170	0.967922	0.209503	0.138690	0.235331	-0.949319	-0.208356
17642		0.088336	0.234266	-0.968151	0.968051	0.208799	0.138850	0.234677	-0.949485	-0.208337
17643		0.088718	0.234093	-0.968158	0.968189	0.208045	0.139024	0.233964	-0.949694	-0.208189
17644		0.089010	0.233976	-0.968159	0.968241	0.207679	0.139208	0.233638	-0.949802	-0.208059
17645		0.089347	0.233821	-0.968166	0.968341	0.207098	0.139379	0.233095	-0.949968	-0.207915
