// Start Time: Unknown
// Update Rate: 100.0Hz
// Filter Profile: human (46.1)
// Option Flags: AHS Disabled ICC Disabled 
// Firmware Version: 4.0.2
PacketCounter	SampleTimeFine	Mat[1][1]	Mat[2][1]	Mat[3][1]	Mat[1][2]	Mat[2][2]	Mat[3][2]	Mat[1][3]	Mat[2][3]	Mat[3][3]
12704		0.070332	0.008229	-0.997490	0.997101	0.028527	0.070540	0.029035	-0.999559	-0.006199
12705		0.069705	0.008083	-0.997535	0.997263	0.024142	0.069882	0.024647	-0.999676	-0.006378
12706		0.069303	0.008193	-0.997562	0.997376	0.020435	0.069458	0.020954	-0.999758	-0.006755
12707		0.068941	0.008464	-0.997585	0.997452	0.017796	0.069083	0.018338	-0.999806	-0.007216
12708		0.068657	0.008784	-0.997602	0.997495	0.016455	0.068795	0.017020	-0.999826	-0.007633
12709		0.068478	0.008910	-0.997613	0.997511	0.016225	0.068616	0.016798	-0.999829	-0.007777
12710		0.068351	0.008924	-0.997621	0.997508	0.016896	0.068495	0.017467	-0.999817	-0.007747
12711		0.068301	0.008897	-0.997625	0.997493	0.017928	0.068452	0.018494	-0.999800	-0.007650
12712		0.068263	0.008932	-0.997627	0.997480	0.018763	0.068421	0.019329	-0.999784	-0.007628
12713		0.068145	0.009048	-0.997634	0.997483	0.019003	0.068307	0.019576	-0.999778	-0.007730
12714		0.067955	0.009223	-0.997646	0.997505	0.018517	0.068117	0.019102	-0.999786	-0.007942
12715		0.067795	0.009454	-0.997654	0.997538	0.017326	0.067952	0.017928	-0.999805	-0.008256
12716		0.067611	0.009623	-0.997665	0.997579	0.015686	0.067757	0.016302	-0.999831	-0.008540
12717		0.067258	0.009792	-0.997688	0.997631	0.013802	0.067390	0.014430	-0.999857	-0.008840
12718		0.066876	0.010029	-0.997711	0.997681	0.011998	0.066995	0.012642	-0.999878	-0.009203
12719		0.066420	0.010210	-0.997740	0.997732	0.010228	0.066524	0.010884	-0.999896	-0.009507
12720		0.065878	0.010347	-0.997774	0.997783	0.008828	0.065970	0.009491	-0.999907	-0.009743
12721		0.065307	0.010445	-0.997811	0.997829	0.007788	0.065390	0.008454	-0.999915	-0.009914
12722		0.064676	0.010513	-0.997851	0.997879	0.006770	0.064749	0.007436	-0.999922	-0.010053
12723		0.064073	0.010622	-0.997889	0.997925	0.005647	0.064136	0.006316	-0.999928	-0.010238
12724		0.063370	0.010762	-0.997932	0.997977	0.004511	0.063421	0.005185	-0.999932	-0.010455
12725		0.062567	0.011011	-0.997980	0.998033	0.003233	0.062606	0.003916	-0.999934	-0.010787
12726		0.061716	0.011288	-0.998030	0.998090	0.001935	0.061742	0.002628	-0.999934	-0.011147
12727		0.060777	0.011533	-0.998085	0.998150	0.000750	0.060790	0.001449	-0.999933	-0.011466
12728		0.059854	0.011740	-0.998138	0.998207	-0.000272	0.059855	0.000432	-0.999931	-0.011735
12729		0.058982	0.011938	-0.998188	0.998259	-0.001229	0.058972	-0.000522	-0.999928	-0.011989
12730		0.058234	0.011953	-0.998231	0.998302	-0.002037	0.058213	-0.001337	-0.999926	-0.012051
12731		0.057426	0.011922	-0.998279	0.998348	-0.002562	0.057399	-0.001873	-0.999926	-0.012049
12732		0.056546	0.012099	-0.998327	0.998397	-0.003153	0.056512	-0.002464	-0.999922	-0.012258
12733		0.055610	0.012289	-0.998377	0.998447	-0.003994	0.055565	-0.003305	-0.999917	-0.012492
12734		0.054656	0.012429	-0.998428	0.998497	-0.004814	0.054600	-0.004127	-0.999911	-0.012673
12735		0.053734	0.012544	-0.998476	0.998543	-0.005595	0.053668	-0.004913	-0.999906	-0.012827
12736		0.052919	0.012570	-0.998520	0.998584	-0.006055	0.052846	-0.005382	-0.999903	-0.012872
12737		0.052187	0.012556	-0.998558	0.998622	-0.006276	0.052112	-0.005613	-0.999901	-0.012866
12738		0.051532	0.012553	-0.998592	0.998655	-0.006294	0.051456	-0.005639	-0.999901	-0.012860
12739		0.050932	0.012589	-0.998623	0.998687	-0.006113	0.050858	-0.005465	-0.999902	-0.012884
12740		0.050431	0.012650	-0.998647	0.998714	-0.005891	0.050359	-0.005246	-0.999903	-0.012931
12741		0.050037	0.012766	-0.998666	0.998735	-0.005655	0.049968	-0.005009	-0.999903	-0.013033
12742		0.049734	0.012796	-0.998681	0.998752	-0.005301	0.049669	-0.004658	-0.999904	-0.013044
12743		0.049591	0.012792	-0.998688	0.998760	-0.005081	0.049530	-0.004440	-0.999905	-0.013028
12744		0.049626	0.012885	-0.998685	0.998759	-0.004959	0.049566	-0.004314	-0.999905	-0.013115
12745		0.049867	0.012981	-0.998671	0.998746	-0.005043	0.049805	-0.004390	-0.999903	-0.013216
12746		0.050330	0.013094	-0.998647	0.998722	-0.005204	0.050265	-0.004538	-0.999901	-0.013339
12747		0.051001	0.013181	-0.998612	0.998688	-0.005374	0.050934	-0.004695	-0.999899	-0.013437
12748		0.051818	0.013333	-0.998568	0.998645	-0.005472	0.051749	-0.004774	-0.999896	-0.013599
12749		0.052825	0.013490	-0.998513	0.998591	-0.005759	0.052751	-0.005039	-0.999892	-0.013775
12750		0.054020	0.013739	-0.998445	0.998525	-0.006212	0.053939	-0.005462	-0.999886	-0.014055
12751		0.055404	0.014040	-0.998365	0.998446	-0.006770	0.055313	-0.005983	-0.999879	-0.014393
12752		0.056878	0.014387	-0.998277	0.998359	-0.007445	0.056776	-0.006615	-0.999869	-0.014787
12753		0.058388	0.014662	-0.998186	0.998268	-0.008119	0.058274	-0.007249	-0.999860	-0.015111
12754		0.059952	0.014857	-0.998091	0.998171	-0.008720	0.059827	-0.007814	-0.999852	-0.015352
12755		0.061573	0.015031	-0.997989	0.998066	-0.009514	0.061435	-0.008571	-0.999842	-0.015588
12756		0.063135	0.015228	-0.997889	0.997962	-0.010237	0.062984	-0.009256	-0.999832	-0.015843
12757		0.064648	0.015456	-0.997788	0.997856	-0.011206	0.064479	-0.010185	-0.999818	-0.016147
12758		0.066021	0.015791	-0.997693	0.997754	-0.012361	0.065830	-0.011292	-0.999799	-0.016572
12759		0.067186	0.016169	-0.997609	0.997660	-0.013789	0.066966	-0.012673	-0.999774	-0.017057
12760		0.068094	0.016529	-0.997542	0.997579	-0.015284	0.067843	-0.014125	-0.999747	-0.017530
12761		0.068820	0.016868	-0.997486	0.997509	-0.016658	0.068540	-0.015460	-0.999719	-0.017972
12762		0.069455	0.017175	-0.997437	0.997447	-0.017815	0.069149	-0.016582	-0.999694	-0.018368
12763		0.069877	0.017460	-0.997403	0.997405	-0.018604	0.069551	-0.017342	-0.999674	-0.018715
12764		0.070158	0.017726	-0.997378	0.997378	-0.019019	0.069820	-0.017731	-0.999662	-0.019014
12765		0.070357	0.017954	-0.997360	0.997360	-0.019252	0.070010	-0.017944	-0.999653	-0.019262
12766		0.070396	0.018243	-0.997352	0.997355	-0.019427	0.070041	-0.018098	-0.999645	-0.019563
12767		0.070358	0.018486	-0.997350	0.997354	-0.019625	0.069995	-0.018279	-0.999637	-0.019818
12768		0.070259	0.018706	-0.997353	0.997358	-0.019835	0.069887	-0.018475	-0.999628	-0.020050
12769		0.070162	0.018912	-0.997356	0.997357	-0.020263	0.069778	-0.018890	-0.999616	-0.020284
12770		0.070041	0.019170	-0.997360	0.997353	-0.020894	0.069639	-0.019504	-0.999598	-0.020583
12771		0.069919	0.019517	-0.997362	0.997346	-0.021697	0.069494	-0.020283	-0.999574	-0.020982
12772		0.069836	0.019883	-0.997360	0.997335	-0.022563	0.069385	-0.021124	-0.999548	-0.021406
12773		0.069730	0.020282	-0.997360	0.997322	-0.023507	0.069250	-0.022041	-0.999518	-0.021867
12774		0.069626	0.020615	-0.997360	0.997311	-0.024357	0.069119	-0.022868	-0.999491	-0.022255
12775		0.069559	0.020957	-0.997358	0.997301	-0.025031	0.069029	-0.023518	-0.999467	-0.022641
12776		0.069522	0.021297	-0.997353	0.997289	-0.025639	0.068970	-0.024103	-0.999444	-0.023022
12777		0.069511	0.021647	-0.997346	0.997278	-0.026155	0.068939	-0.024594	-0.999423	-0.023406
12778		0.069520	0.021935	-0.997339	0.997265	-0.026667	0.068929	-0.025084	-0.999404	-0.023729
12779		0.069404	0.022245	-0.997341	0.997261	-0.027165	0.068793	-0.025562	-0.999383	-0.024069
12780		0.069265	0.022519	-0.997344	0.997261	-0.027559	0.068637	-0.025940	-0.999367	-0.024366
12781		0.069099	0.022884	-0.997347	0.997266	-0.027830	0.068455	-0.026190	-0.999351	-0.024745
12782		0.068885	0.023239	-0.997354	0.997277	-0.028002	0.068228	-0.026342	-0.999338	-0.025105
12783		0.068671	0.023556	-0.997361	0.997286	-0.028230	0.067999	-0.026554	-0.999324	-0.025431
12784		0.068383	0.023899	-0.997373	0.997300	-0.028470	0.067696	-0.026777	-0.999309	-0.025781
12785		0.068059	0.024196	-0.997388	0.997317	-0.028669	0.067359	-0.026964	-0.999296	-0.026082
12786		0.067802	0.024561	-0.997396	0.997326	-0.029007	0.067083	-0.027284	-0.999277	-0.026462
12787		0.067587	0.024904	-0.997403	0.997329	-0.029432	0.066847	-0.027691	-0.999256	-0.026827
12788		0.067420	0.025240	-0.997405	0.997327	-0.029912	0.066657	-0.028152	-0.999234	-0.027189
12789		0.067246	0.025568	-0.997409	0.997322	-0.030545	0.066458	-0.028766	-0.999206	-0.027554
12790		0.067058	0.025882	-0.997413	0.997312	-0.031337	0.066238	-0.029542	-0.999174	-0.027914
12791		0.066637	0.026121	-0.997435	0.997321	-0.031975	0.065792	-0.030174	-0.999147	-0.028182
12792		0.066048	0.026343	-0.997469	0.997343	-0.032540	0.065180	-0.030740	-0.999123	-0.028422
12793		0.065512	0.026588	-0.997498	0.997367	-0.032902	0.064626	-0.031101	-0.999105	-0.028673
12794		0.065038	0.026821	-0.997522	0.997391	-0.033116	0.064139	-0.031314	-0.999092	-0.028905
12795		0.064751	0.027094	-0.997534	0.997407	-0.033229	0.063840	-0.031417	-0.999080	-0.029176
12796		0.064448	0.027309	-0.997547	0.997423	-0.033348	0.063527	-0.031531	-0.999071	-0.029388
12797		0.064146	0.027585	-0.997559	0.997440	-0.033440	0.063214	-0.031615	-0.999060	-0.029659
12798		0.063757	0.027874	-0.997576	0.997465	-0.033434	0.062816	-0.031602	-0.999052	-0.029935
12799		0.063325	0.028277	-0.997592	0.997495	-0.033362	0.062373	-0.031518	-0.999043	-0.030319
12800		0.062943	0.028678	-0.997605	0.997521	-0.033331	0.061979	-0.031473	-0.999033	-0.030705
12801		0.062606	0.029089	-0.997614	0.997536	-0.033535	0.061623	-0.031663	-0.999014	-0.031116
12802		0.062279	0.029498	-0.997623	0.997540	-0.034064	0.061267	-0.032175	-0.998984	-0.031547
12803		0.061979	0.029846	-0.997631	0.997537	-0.034728	0.060935	-0.032827	-0.998951	-0.031925
12804		0.061692	0.030233	-0.997637	0.997534	-0.035391	0.060613	-0.033475	-0.998916	-0.032342
12805		0.061346	0.030714	-0.997644	0.997539	-0.035892	0.060234	-0.033957	-0.998884	-0.032840
12806		0.060845	0.031260	-0.997658	0.997559	-0.036199	0.059705	-0.034248	-0.998856	-0.033387
12807		0.060276	0.031765	-0.997676	0.997582	-0.036564	0.059106	-0.034601	-0.998826	-0.033892
12808		0.059642	0.032181	-0.997701	0.997605	-0.036985	0.058444	-0.035019	-0.998798	-0.034310
12809		0.059013	0.032573	-0.997726	0.997624	-0.037516	0.057782	-0.035549	-0.998765	-0.034709
12810		0.058332	0.033013	-0.997751	0.997638	-0.038245	0.057060	-0.036275	-0.998723	-0.035166
12811		0.057522	0.033475	-0.997783	0.997649	-0.039227	0.056198	-0.037259	-0.998669	-0.035652
12812		0.056568	0.033892	-0.997823	0.997682	-0.039776	0.055209	-0.037818	-0.998634	-0.036063
12813		0.055634	0.034330	-0.997861	0.997722	-0.040099	0.054247	-0.038151	-0.998606	-0.036483
12814		0.054701	0.034785	-0.997897	0.997761	-0.040426	0.053284	-0.038487	-0.998577	-0.036918
12815		0.053783	0.035263	-0.997930	0.997805	-0.040557	0.052343	-0.038627	-0.998555	-0.037367
12816		0.052918	0.035654	-0.997962	0.997858	-0.040378	0.051470	-0.038461	-0.998548	-0.037714
12817		0.052141	0.036036	-0.997989	0.997902	-0.040281	0.050682	-0.038373	-0.998538	-0.038061
12818		0.051464	0.036494	-0.998008	0.997935	-0.040332	0.049986	-0.038427	-0.998520	-0.038495
12819		0.050786	0.036958	-0.998025	0.997960	-0.040593	0.049280	-0.038692	-0.998492	-0.038944
12820		0.050161	0.037444	-0.998039	0.997977	-0.040970	0.048621	-0.039069	-0.998459	-0.039424
12821		0.049614	0.037956	-0.998047	0.997981	-0.041555	0.048031	-0.039651	-0.998415	-0.039941
12822		0.049187	0.038552	-0.998045	0.997979	-0.042144	0.047555	-0.040229	-0.998367	-0.040547
12823		0.048799	0.039076	-0.998044	0.997993	-0.042271	0.047141	-0.040346	-0.998342	-0.041060
12824		0.048560	0.039551	-0.998037	0.998009	-0.042187	0.046887	-0.040250	-0.998327	-0.041521
12825		0.048408	0.040116	-0.998022	0.998015	-0.042238	0.046709	-0.040280	-0.998302	-0.042081
12826		0.048366	0.040718	-0.997999	0.998009	-0.042458	0.046634	-0.040475	-0.998268	-0.042690
12827		0.048355	0.041401	-0.997972	0.997994	-0.042878	0.046577	-0.040863	-0.998222	-0.043391
12828		0.048463	0.042039	-0.997940	0.997956	-0.043702	0.046623	-0.041652	-0.998160	-0.044071
12829		0.048711	0.042696	-0.997900	0.997906	-0.044656	0.046800	-0.042564	-0.998090	-0.044782
12830		0.049094	0.043359	-0.997853	0.997840	-0.045797	0.047104	-0.043656	-0.998009	-0.045514
12831		0.049543	0.044109	-0.997797	0.997756	-0.047237	0.047453	-0.045040	-0.997909	-0.046351
12832		0.050004	0.044891	-0.997740	0.997660	-0.048879	0.047801	-0.046623	-0.997795	-0.047230
12833		0.050390	0.045695	-0.997684	0.997562	-0.050596	0.048066	-0.048283	-0.997673	-0.048133
12834		0.050880	0.046612	-0.997616	0.997457	-0.052296	0.048428	-0.049914	-0.997543	-0.049154
12835		0.051447	0.047552	-0.997543	0.997348	-0.053932	0.048866	-0.051475	-0.997412	-0.050201
12836		0.052117	0.048530	-0.997461	0.997238	-0.055452	0.049407	-0.052913	-0.997281	-0.051286
12837		0.052779	0.049527	-0.997377	0.997144	-0.056645	0.049954	-0.054023	-0.997165	-0.052375
12838		0.053533	0.050486	-0.997289	0.997052	-0.057683	0.050600	-0.054972	-0.997058	-0.053425
12839		0.054399	0.051476	-0.997192	0.996942	-0.058906	0.051344	-0.056098	-0.996935	-0.054523
12840		0.055284	0.052617	-0.997083	0.996835	-0.060039	0.052102	-0.057123	-0.996808	-0.055770
12841		0.056178	0.053649	-0.996978	0.996730	-0.061102	0.052876	-0.058081	-0.996689	-0.056907
12842		0.057120	0.054734	-0.996866	0.996611	-0.062331	0.053683	-0.059197	-0.996554	-0.058109
12843		0.058049	0.055885	-0.996748	0.996480	-0.063725	0.054461	-0.060474	-0.996402	-0.059388
12844		0.059003	0.056978	-0.996630	0.996336	-0.065286	0.055253	-0.061918	-0.996239	-0.060621
12845		0.059985	0.058034	-0.996511	0.996176	-0.067016	0.056062	-0.063529	-0.996063	-0.061832
12846		0.061095	0.059294	-0.996369	0.996001	-0.068811	0.056977	-0.065183	-0.995866	-0.063260
12847		0.062308	0.060663	-0.996212	0.995812	-0.070684	0.057979	-0.066899	-0.995652	-0.064814
12848		0.063611	0.062220	-0.996033	0.995614	-0.072566	0.059051	-0.068604	-0.995421	-0.066563
12849		0.064861	0.063802	-0.995853	0.995403	-0.074615	0.060051	-0.070474	-0.995169	-0.068349
12850		0.066091	0.065139	-0.995685	0.995168	-0.076918	0.061025	-0.072611	-0.994907	-0.069908
12851		0.067305	0.066324	-0.995526	0.994969	-0.078678	0.062025	-0.074212	-0.994691	-0.071286
12852		0.068648	0.067632	-0.995346	0.994806	-0.079803	0.063188	-0.075159	-0.994514	-0.072759
12853		0.070214	0.069036	-0.995140	0.994676	-0.080281	0.064612	-0.075430	-0.994379	-0.074305
12854		0.071844	0.070330	-0.994933	0.994542	-0.080716	0.066110	-0.075657	-0.994253	-0.075745
12855		0.073399	0.071726	-0.994720	0.994423	-0.081008	0.067536	-0.075736	-0.994129	-0.077272
12856		0.074931	0.073281	-0.994492	0.994336	-0.080877	0.068959	-0.075378	-0.994027	-0.078926
12857		0.076462	0.074701	-0.994270	0.994235	-0.080889	0.070382	-0.075168	-0.993920	-0.080456
12858		0.077920	0.075940	-0.994063	0.994161	-0.080577	0.071772	-0.074648	-0.993851	-0.081775
12859		0.079256	0.077038	-0.993873	0.994056	-0.080760	0.073010	-0.074641	-0.993752	-0.082981
12860		0.080595	0.078428	-0.993657	0.993848	-0.082296	0.074115	-0.075961	-0.993517	-0.084579
12861		0.082063	0.080305	-0.993387	0.993511	-0.085354	0.075173	-0.078753	-0.993109	-0.086789
12862		0.083566	0.081908	-0.993130	0.993209	-0.087801	0.076331	-0.080946	-0.992765	-0.088689
12863		0.084900	0.083528	-0.992882	0.992927	-0.090099	0.077325	-0.082998	-0.992424	-0.090587
12864		0.086217	0.085336	-0.992615	0.992645	-0.092350	0.078280	-0.084988	-0.992063	-0.092670
12865		0.087439	0.087270	-0.992340	0.992408	-0.094121	0.079168	-0.086491	-0.991728	-0.094837
12866		0.088710	0.089184	-0.992057	0.992168	-0.095845	0.080104	-0.087940	-0.991393	-0.096988
12867		0.090017	0.091210	-0.991755	0.991806	-0.098849	0.080931	-0.090653	-0.990913	-0.099361
12868		0.091246	0.093158	-0.991461	0.991440	-0.101866	0.081673	-0.093388	-0.990427	-0.101655
12869		0.092348	0.095102	-0.991175	0.991059	-0.105047	0.082258	-0.096297	-0.989909	-0.103952
12870		0.093494	0.097164	-0.990867	0.990678	-0.108113	0.082874	-0.099073	-0.989379	-0.106366
12871		0.094650	0.099273	-0.990548	0.990356	-0.110517	0.083555	-0.101178	-0.988904	-0.108776
12872		0.095739	0.101169	-0.990252	0.990068	-0.112568	0.084221	-0.102951	-0.988480	-0.110942
12873		0.096676	0.102683	-0.990005	0.989858	-0.113939	0.084844	-0.104088	-0.988167	-0.112656
12874		0.097634	0.104206	-0.989752	0.989651	-0.115253	0.085489	-0.105164	-0.987855	-0.114380
12875		0.098558	0.105500	-0.989523	0.989477	-0.116237	0.086160	-0.105929	-0.987603	-0.115845
12876		0.099547	0.106582	-0.989308	0.989380	-0.116432	0.087011	-0.105913	-0.987463	-0.117041
12877		0.100453	0.107437	-0.989124	0.989326	-0.116264	0.087845	-0.105562	-0.987390	-0.117969
12878		0.101256	0.107852	-0.988997	0.989345	-0.115451	0.088702	-0.104615	-0.987441	-0.118393
12879		0.101899	0.108169	-0.988896	0.989396	-0.114448	0.089431	-0.103504	-0.987523	-0.118684
12880		0.102290	0.108539	-0.988815	0.989526	-0.112885	0.089973	-0.101856	-0.987662	-0.118950
12881		0.102405	0.108864	-0.988768	0.989655	-0.111549	0.090216	-0.100475	-0.987778	-0.119161
12882		0.102223	0.109160	-0.988754	0.989684	-0.111458	0.090014	-0.100379	-0.987756	-0.119427
12883		0.101814	0.109464	-0.988763	0.989646	-0.112222	0.089481	-0.101166	-0.987636	-0.119756
12884		0.101383	0.109400	-0.988814	0.989648	-0.112577	0.089013	-0.101580	-0.987602	-0.119681
12885		0.101011	0.109406	-0.988851	0.989626	-0.113115	0.088575	-0.102163	-0.987540	-0.119697
12886		0.101160	0.110623	-0.988701	0.989265	-0.116528	0.088179	-0.105456	-0.987008	-0.121223
12887		0.101515	0.112969	-0.988399	0.988623	-0.122305	0.087559	-0.110995	-0.986042	-0.124099
12888		0.101821	0.116267	-0.987985	0.987576	-0.131307	0.086327	-0.119692	-0.984500	-0.128193
12889		0.102090	0.119741	-0.987542	0.986340	-0.141188	0.084846	-0.129269	-0.982715	-0.132519
12890		0.102503	0.123395	-0.987050	0.984927	-0.151573	0.083334	-0.139327	-0.980714	-0.137071
12891		0.102988	0.126031	-0.986666	0.983807	-0.159192	0.082355	-0.146690	-0.979170	-0.140385
12892		0.103726	0.128552	-0.986263	0.982763	-0.165817	0.081745	-0.153031	-0.977742	-0.143536
12893		0.104830	0.131407	-0.985770	0.981690	-0.172200	0.081441	-0.159048	-0.976258	-0.147052
12894		0.105939	0.133773	-0.985333	0.980768	-0.177412	0.081362	-0.163926	-0.975002	-0.149995
12895		0.107230	0.135627	-0.984940	0.979770	-0.182783	0.081497	-0.168977	-0.973753	-0.152483
12896		0.108805	0.137360	-0.984527	0.978463	-0.189571	0.081686	-0.175417	-0.972211	-0.155028
12897		0.110612	0.138866	-0.984114	0.977219	-0.195657	0.082229	-0.181130	-0.970791	-0.157345
12898		0.112604	0.140374	-0.983674	0.975924	-0.201730	0.082930	-0.186795	-0.969330	-0.159710
12899		0.114694	0.142243	-0.983164	0.974639	-0.207554	0.083671	-0.192158	-0.967827	-0.162440
12900		0.116775	0.144232	-0.982630	0.973536	-0.212327	0.084529	-0.196447	-0.966496	-0.165209
12901		0.118873	0.146374	-0.982061	0.972545	-0.216455	0.085459	-0.200063	-0.965257	-0.168086
12902		0.120962	0.148430	-0.981497	0.971866	-0.219014	0.086654	-0.202100	-0.964366	-0.170747
12903		0.123049	0.150236	-0.980963	0.971336	-0.220815	0.088024	-0.203387	-0.963675	-0.173100
12904		0.125310	0.152147	-0.980382	0.970866	-0.222238	0.089604	-0.204245	-0.963048	-0.175563
12905		0.127461	0.153656	-0.979869	0.970369	-0.223785	0.091133	-0.205276	-0.962450	-0.177627
12906		0.129518	0.155193	-0.979357	0.969511	-0.227024	0.092241	-0.208022	-0.961444	-0.179865
12907		0.131370	0.156895	-0.978839	0.968418	-0.231387	0.092883	-0.211917	-0.960127	-0.182337
12908		0.133055	0.158479	-0.978356	0.967330	-0.235698	0.093376	-0.215798	-0.958818	-0.184662
12909		0.134468	0.159979	-0.977919	0.966299	-0.239784	0.093643	-0.219508	-0.957554	-0.186831
12910		0.135551	0.161134	-0.977580	0.965613	-0.242422	0.093933	-0.221851	-0.956696	-0.188453
12911		0.136336	0.162194	-0.977295	0.965157	-0.244160	0.094121	-0.223350	-0.956075	-0.189831
12912		0.136760	0.163049	-0.977093	0.964966	-0.244883	0.094199	-0.223915	-0.955744	-0.190827
12913		0.136811	0.163830	-0.976956	0.964897	-0.245232	0.093998	-0.224181	-0.955521	-0.191629
12914		0.136680	0.164622	-0.976841	0.964867	-0.245489	0.093633	-0.224389	-0.955319	-0.192392
12915		0.136385	0.165334	-0.976762	0.964889	-0.245584	0.093158	-0.224475	-0.955172	-0.193023
12916		0.136105	0.166150	-0.976662	0.965006	-0.245277	0.092754	-0.224142	-0.955109	-0.193719
12917		0.135876	0.166905	-0.976566	0.965161	-0.244779	0.092454	-0.223612	-0.955105	-0.194350
12918		0.135714	0.167742	-0.976445	0.965188	-0.244806	0.092095	-0.223591	-0.954952	-0.195127
12919		0.135525	0.168548	-0.976332	0.965006	-0.245733	0.091531	-0.224490	-0.954571	-0.195953
12920		0.135434	0.169550	-0.976171	0.964762	-0.246897	0.090968	-0.225590	-0.954094	-0.197014
12921		0.135366	0.170180	-0.976071	0.964756	-0.247011	0.090730	-0.225660	-0.953952	-0.197619
12922		0.135421	0.170436	-0.976019	0.964975	-0.246082	0.090917	-0.224685	-0.954146	-0.197791
12923		0.135507	0.170337	-0.976024	0.965394	-0.244253	0.091404	-0.222827	-0.954634	-0.197540
12924		0.135518	0.169689	-0.976136	0.966083	-0.241213	0.092191	-0.219813	-0.955522	-0.196622
12925		0.135635	0.168899	-0.976256	0.967343	-0.235536	0.093647	-0.214126	-0.957077	-0.195330
12926		0.136173	0.169681	-0.976046	0.967777	-0.233430	0.094439	-0.211814	-0.957454	-0.196000
12927		0.136459	0.169624	-0.976016	0.968528	-0.229870	0.095463	-0.208164	-0.958325	-0.195653
12928		0.137006	0.170148	-0.975848	0.968764	-0.228585	0.096155	-0.206703	-0.958540	-0.196150
12929		0.137589	0.170954	-0.975625	0.968994	-0.227323	0.096821	-0.205230	-0.958696	-0.196931
12930		0.138229	0.171617	-0.975418	0.969031	-0.226921	0.097399	-0.204627	-0.958673	-0.197669
12931		0.139001	0.172190	-0.975207	0.969164	-0.225988	0.098237	-0.203469	-0.958791	-0.198293
12932		0.139838	0.172209	-0.975084	0.969517	-0.223915	0.099494	-0.201202	-0.959274	-0.198271
12933		0.140632	0.171365	-0.975119	0.970318	-0.219571	0.101353	-0.196740	-0.960428	-0.197157
12934		0.141238	0.168606	-0.975512	0.972028	-0.210399	0.104368	-0.187650	-0.962966	-0.193606
12935		0.141831	0.164790	-0.976078	0.974262	-0.197766	0.108178	-0.175208	-0.966298	-0.188598
12936		0.142768	0.161830	-0.976436	0.976356	-0.184813	0.112126	-0.162313	-0.969358	-0.184390
12937		0.144058	0.162126	-0.976198	0.977014	-0.179944	0.114293	-0.157131	-0.970224	-0.184322
12938		0.145010	0.162113	-0.976059	0.977295	-0.177496	0.115713	-0.154488	-0.970677	-0.184171
12939		0.146013	0.163144	-0.975738	0.977175	-0.177624	0.116529	-0.154304	-0.970481	-0.185356
12940		0.146978	0.163832	-0.975478	0.977235	-0.176594	0.117583	-0.153000	-0.970553	-0.186058
12941		0.147916	0.164498	-0.975224	0.977322	-0.175400	0.118648	-0.151537	-0.970657	-0.186712
12942		0.148909	0.165247	-0.974946	0.977485	-0.173654	0.119863	-0.149496	-0.970844	-0.187385
12943		0.149705	0.165556	-0.974772	0.977785	-0.171079	0.121111	-0.146712	-0.971248	-0.187490
12944		0.150300	0.165126	-0.974753	0.978372	-0.166575	0.122640	-0.142119	-0.972104	-0.186591
12945		0.150701	0.163794	-0.974916	0.979508	-0.158030	0.124861	-0.133615	-0.973755	-0.184253
12946		0.151271	0.162220	-0.975091	0.980784	-0.147580	0.127602	-0.123204	-0.975656	-0.181427
12947		0.152016	0.161101	-0.975160	0.981744	-0.138731	0.130123	-0.114322	-0.977139	-0.179249
12948		0.153190	0.160596	-0.975060	0.982100	-0.134178	0.132196	-0.109602	-0.977857	-0.178276
12949		0.154811	0.161646	-0.974630	0.981362	-0.138848	0.132852	-0.113851	-0.977032	-0.180129
12950		0.156188	0.162247	-0.974311	0.981042	-0.140059	0.133944	-0.114729	-0.976760	-0.181047
12951		0.157540	0.162921	-0.973981	0.980591	-0.142385	0.134791	-0.116720	-0.976311	-0.182190
12952		0.158875	0.163799	-0.973616	0.980105	-0.144989	0.135542	-0.118962	-0.975781	-0.183575
12953		0.160083	0.164633	-0.973278	0.979930	-0.145155	0.136624	-0.118784	-0.975616	-0.184566
12954		0.161296	0.165381	-0.972950	0.979876	-0.144298	0.137917	-0.117586	-0.975616	-0.185328
12955		0.162406	0.166004	-0.972660	0.979885	-0.142988	0.139208	-0.115970	-0.975703	-0.185887
12956		0.163558	0.166380	-0.972402	0.979733	-0.142933	0.140334	-0.115639	-0.975647	-0.186386
12957		0.164790	0.167209	-0.972052	0.979271	-0.145420	0.140999	-0.117780	-0.975138	-0.187706
12958		0.166203	0.167887	-0.971695	0.978722	-0.148332	0.141776	-0.120331	-0.974583	-0.188968
12959		0.167788	0.168682	-0.971284	0.977926	-0.152937	0.142375	-0.124529	-0.973733	-0.190620
12960		0.169429	0.169175	-0.970914	0.977132	-0.157266	0.143112	-0.128481	-0.972958	-0.191951
12961		0.170858	0.169463	-0.970613	0.976316	-0.161812	0.143611	-0.132720	-0.972162	-0.193096
12962		0.172073	0.169732	-0.970352	0.975606	-0.165682	0.144024	-0.136324	-0.971463	-0.194100
12963		0.173034	0.169895	-0.970152	0.975002	-0.168951	0.144312	-0.139390	-0.970871	-0.194883
12964		0.173866	0.170570	-0.969885	0.974258	-0.173309	0.144170	-0.143499	-0.969984	-0.196312
12965		0.174519	0.171427	-0.969616	0.973772	-0.176046	0.144142	-0.145987	-0.969340	-0.197654
12966		0.174960	0.172544	-0.969339	0.973398	-0.178244	0.143965	-0.147938	-0.968740	-0.199140
12967		0.175210	0.174058	-0.969023	0.972702	-0.182720	0.143055	-0.152160	-0.967635	-0.201321
12968		0.175490	0.175595	-0.968695	0.971990	-0.187151	0.142162	-0.156330	-0.966510	-0.203520
12969		0.175811	0.176729	-0.968430	0.971348	-0.190954	0.141493	-0.159919	-0.965559	-0.205237
12970		0.176335	0.177917	-0.968118	0.970417	-0.196200	0.140697	-0.164913	-0.964288	-0.207250
12971		0.176824	0.178629	-0.967897	0.969497	-0.201196	0.139985	-0.169732	-0.963126	-0.208756
12972		0.177299	0.178845	-0.967770	0.968634	-0.205673	0.139449	-0.174104	-0.962140	-0.209701
12973		0.177682	0.178974	-0.967676	0.967449	-0.211825	0.138463	-0.180196	-0.960780	-0.210785
12974		0.178076	0.179429	-0.967520	0.966144	-0.218426	0.137315	-0.186694	-0.959216	-0.212251
12975		0.178275	0.179772	-0.967419	0.964809	-0.225069	0.135970	-0.193293	-0.957615	-0.213570
12976		0.178488	0.180487	-0.967247	0.963259	-0.232552	0.134359	-0.200685	-0.955690	-0.215363
12977		0.178602	0.180829	-0.967162	0.962156	-0.237709	0.133233	-0.205811	-0.954356	-0.216441
12978		0.178722	0.181535	-0.967008	0.961008	-0.242981	0.131998	-0.211002	-0.952893	-0.217882
12979		0.178833	0.181963	-0.966906	0.960143	-0.246841	0.131129	-0.214811	-0.951819	-0.218854
12980		0.179147	0.182396	-0.966767	0.959295	-0.250439	0.130513	-0.218311	-0.950796	-0.219837
12981		0.179686	0.182719	-0.966606	0.958496	-0.253623	0.130235	-0.221357	-0.949889	-0.220708
12982		0.180516	0.182812	-0.966434	0.957498	-0.257405	0.130155	-0.224971	-0.948853	-0.221508
12983		0.181761	0.182592	-0.966242	0.956379	-0.261351	0.130518	-0.228697	-0.947816	-0.222130
12984		0.183439	0.182250	-0.965989	0.954943	-0.266262	0.131107	-0.233312	-0.946514	-0.222881
12985		0.185318	0.181762	-0.965722	0.953354	-0.271543	0.131836	-0.238273	-0.945107	-0.223606
12986		0.187284	0.181126	-0.965463	0.951601	-0.277271	0.132577	-0.243681	-0.943565	-0.224288
12987		0.189099	0.180224	-0.965278	0.950239	-0.281416	0.133610	-0.247565	-0.942509	-0.224472
12988		0.190716	0.179499	-0.965094	0.949016	-0.285085	0.134516	-0.250989	-0.941545	-0.224718
12989		0.191901	0.178885	-0.964974	0.948090	-0.287837	0.135184	-0.253573	-0.940824	-0.224835
12990		0.192794	0.178619	-0.964845	0.947290	-0.290291	0.135546	-0.255875	-0.940120	-0.225170
12991		0.193292	0.178240	-0.964815	0.946688	-0.292185	0.135682	-0.257721	-0.939605	-0.225215
12992		0.193620	0.178042	-0.964786	0.946225	-0.293674	0.135700	-0.259172	-0.939179	-0.225329
12993		0.193725	0.177795	-0.964811	0.945906	-0.294738	0.135615	-0.260255	-0.938892	-0.225276
12994		0.193700	0.177480	-0.964874	0.945649	-0.295633	0.135462	-0.261207	-0.938670	-0.225098
12995		0.193621	0.176980	-0.964981	0.945547	-0.295968	0.135441	-0.261633	-0.938659	-0.224648
12996		0.193585	0.176677	-0.965044	0.945547	-0.295943	0.135493	-0.261660	-0.938724	-0.224347
12997		0.193417	0.176831	-0.965050	0.945731	-0.295387	0.135420	-0.261117	-0.938870	-0.224367
12998		0.193178	0.177331	-0.965006	0.946447	-0.292992	0.135622	-0.258689	-0.939526	-0.224434
12999		0.192857	0.178180	-0.964914	0.947348	-0.289984	0.135798	-0.255613	-0.940298	-0.224724
13000		0.192461	0.179118	-0.964819	0.948406	-0.286401	0.136017	-0.251962	-0.941218	-0.224998
13001		0.192044	0.180193	-0.964702	0.949308	-0.283382	0.136047	-0.248864	-0.941926	-0.225480
13002		0.191593	0.181079	-0.964626	0.950243	-0.280186	0.136140	-0.245623	-0.942712	-0.225750
13003		0.191243	0.181835	-0.964553	0.951224	-0.276688	0.136440	-0.242071	-0.943599	-0.225881
13004		0.190987	0.182480	-0.964482	0.952075	-0.273581	0.136769	-0.238906	-0.944380	-0.225985
13005		0.190621	0.183275	-0.964403	0.952928	-0.270507	0.136946	-0.235779	-0.945112	-0.226212
13006		0.190156	0.184313	-0.964297	0.953891	-0.267031	0.137064	-0.232235	-0.945898	-0.226592
13007		0.189517	0.185838	-0.964131	0.954887	-0.263529	0.136905	-0.228634	-0.946582	-0.227397
13008		0.188677	0.187608	-0.963952	0.956011	-0.259583	0.136601	-0.224598	-0.947322	-0.228333
13009		0.187596	0.189375	-0.963818	0.957155	-0.255613	0.136075	-0.220595	-0.948050	-0.229214
13010		0.186358	0.191156	-0.963706	0.958383	-0.251288	0.135484	-0.216269	-0.948849	-0.230031
13011		0.185065	0.192974	-0.963593	0.959819	-0.245967	0.135082	-0.210945	-0.949874	-0.230740
13012		0.183793	0.194757	-0.963478	0.961317	-0.240191	0.134828	-0.205160	-0.950988	-0.231369
13013		0.182514	0.196356	-0.963397	0.962827	-0.234147	0.134683	-0.199131	-0.952166	-0.231792
13014		0.181317	0.198129	-0.963260	0.964219	-0.228451	0.134508	-0.193408	-0.953181	-0.232462
13015		0.180122	0.199678	-0.963164	0.965415	-0.223523	0.134203	-0.188492	-0.954026	-0.233034
13016		0.179019	0.201229	-0.963047	0.966497	-0.218982	0.133904	-0.183944	-0.954753	-0.233689
13017		0.178017	0.202660	-0.962932	0.967393	-0.215210	0.133548	-0.180168	-0.955308	-0.234363
13018		0.177011	0.204003	-0.962834	0.968117	-0.212268	0.133007	-0.177245	-0.955680	-0.235073
13019		0.175811	0.205216	-0.962796	0.968738	-0.209964	0.132143	-0.175034	-0.955930	-0.235714
13020		0.174479	0.206274	-0.962813	0.969374	-0.207612	0.131189	-0.172831	-0.956215	-0.236181
13021		0.173208	0.207110	-0.962863	0.970002	-0.205189	0.130357	-0.170570	-0.956558	-0.236437
13022		0.172093	0.207674	-0.962941	0.970603	-0.202722	0.129742	-0.168266	-0.956961	-0.236456
13023		0.171029	0.208353	-0.962984	0.971100	-0.200788	0.129028	-0.166472	-0.957222	-0.236672
13024		0.170093	0.208939	-0.963023	0.971569	-0.198883	0.128452	-0.164690	-0.957492	-0.236827
13025		0.169283	0.209529	-0.963037	0.972044	-0.196810	0.128046	-0.162706	-0.957791	-0.236988
13026		0.168598	0.209854	-0.963087	0.972505	-0.194660	0.127831	-0.160649	-0.958159	-0.236904
13027		0.167929	0.210055	-0.963160	0.973009	-0.192192	0.127731	-0.158282	-0.958613	-0.236660
13028		0.167248	0.210181	-0.963251	0.973646	-0.188861	0.127844	-0.155050	-0.959247	-0.236228
13029		0.166624	0.210464	-0.963297	0.974399	-0.184698	0.128191	-0.150939	-0.959996	-0.235851
13030		0.165944	0.210565	-0.963392	0.975131	-0.180578	0.128498	-0.146911	-0.960757	-0.235294
13031		0.165279	0.211091	-0.963392	0.975790	-0.176868	0.128653	-0.143235	-0.961332	-0.235213
13032		0.164892	0.211909	-0.963278	0.976463	-0.172743	0.129148	-0.139032	-0.961901	-0.235405
13033		0.164579	0.212772	-0.963142	0.977037	-0.169134	0.129589	-0.135327	-0.962352	-0.235722
13034		0.164523	0.213483	-0.962994	0.977534	-0.165701	0.130273	-0.131758	-0.962792	-0.235948
13035		0.164480	0.213505	-0.962996	0.978160	-0.161084	0.131356	-0.127078	-0.963570	-0.235337
13036		0.164704	0.212939	-0.963083	0.979082	-0.153559	0.133488	-0.119465	-0.964923	-0.233777
13037		0.164882	0.209310	-0.963848	0.980773	-0.138231	0.137759	-0.104400	-0.968030	-0.228077
13038		0.165313	0.203873	-0.964939	0.982874	-0.114836	0.144122	-0.081427	-0.972239	-0.219366
13039		0.165742	0.200212	-0.965632	0.984365	-0.092784	0.149720	-0.059619	-0.975349	-0.212460
13040		0.166030	0.196984	-0.966246	0.985406	-0.070444	0.154961	-0.037542	-0.977873	-0.205805
13041		0.166495	0.194835	-0.966602	0.985912	-0.048820	0.159981	-0.016020	-0.979620	-0.200218
13042		0.167370	0.193722	-0.966674	0.985889	-0.029666	0.164752	0.003239	-0.980608	-0.195953
13043		0.168649	0.193901	-0.966416	0.985539	-0.016791	0.168617	0.016468	-0.980877	-0.193928
13044		0.170622	0.194701	-0.965909	0.985130	-0.013621	0.171272	0.020190	-0.980768	-0.194130
13045		0.172549	0.194570	-0.965593	0.984704	-0.010025	0.173945	0.024165	-0.980837	-0.193323
13046		0.174380	0.195204	-0.965136	0.984304	-0.007517	0.176323	0.027164	-0.980734	-0.193451
13047		0.176204	0.195135	-0.964818	0.983995	-0.008479	0.177992	0.026552	-0.980740	-0.193506
13048		0.178138	0.196517	-0.964182	0.983774	-0.014299	0.178843	0.021359	-0.980396	-0.195876
13049		0.180100	0.197577	-0.963601	0.983554	-0.022618	0.179192	0.013610	-0.980026	-0.198401
13050		0.182339	0.199173	-0.962851	0.983226	-0.032561	0.179462	0.004392	-0.979423	-0.201769
13051		0.184813	0.200381	-0.962129	0.982761	-0.042718	0.179880	-0.005056	-0.978786	-0.204822
13052		0.187659	0.201624	-0.961318	0.982116	-0.053700	0.180456	-0.015238	-0.977990	-0.208095
13053		0.190721	0.202358	-0.960561	0.981341	-0.063639	0.181440	-0.024414	-0.977242	-0.210719
13054		0.193869	0.203016	-0.959791	0.980426	-0.074332	0.182315	-0.034330	-0.976350	-0.213453
13055		0.197068	0.203050	-0.959132	0.979488	-0.082731	0.183736	-0.042042	-0.975667	-0.215189
13056		0.200286	0.202501	-0.958582	0.978508	-0.090347	0.185364	-0.049068	-0.975106	-0.216244
13057		0.203349	0.201596	-0.958127	0.977499	-0.097843	0.186873	-0.056073	-0.974570	-0.216956
13058		0.206236	0.201007	-0.957634	0.976400	-0.106392	0.187946	-0.064106	-0.973795	-0.218205
13059		0.208923	0.200882	-0.957078	0.975194	-0.115982	0.188534	-0.073131	-0.972725	-0.220130
13060		0.211656	0.200796	-0.956495	0.973885	-0.125606	0.189135	-0.082163	-0.971547	-0.222137
13061		0.214635	0.200950	-0.955799	0.972409	-0.135535	0.189870	-0.091390	-0.970180	-0.224496
13062		0.218052	0.201384	-0.954934	0.970818	-0.144849	0.191132	-0.099831	-0.968743	-0.227091
13063		0.221534	0.201998	-0.954002	0.969083	-0.154590	0.192304	-0.108634	-0.967108	-0.230000
13064		0.224751	0.203286	-0.952975	0.967157	-0.165693	0.192751	-0.118717	-0.964998	-0.233849
13065		0.227501	0.205404	-0.951868	0.965288	-0.176370	0.192649	-0.128310	-0.962654	-0.238398
13066		0.230041	0.207819	-0.950733	0.963793	-0.184021	0.192976	-0.134851	-0.960702	-0.242627
13067		0.232493	0.210136	-0.949626	0.962486	-0.190140	0.193566	-0.139887	-0.959004	-0.246459
13068		0.235101	0.212459	-0.948466	0.961370	-0.194559	0.194718	-0.143163	-0.957605	-0.249993
13069		0.237730	0.214652	-0.947317	0.960347	-0.198199	0.196090	-0.145666	-0.956369	-0.253258
13070		0.240306	0.217050	-0.946120	0.959483	-0.200839	0.197625	-0.147123	-0.955276	-0.256519
13071		0.242636	0.219472	-0.944965	0.958713	-0.203166	0.198980	-0.148314	-0.954230	-0.259706
13072		0.244789	0.222285	-0.943752	0.958224	-0.203978	0.200499	-0.147937	-0.953406	-0.262931
13073		0.246819	0.225000	-0.942579	0.957916	-0.203747	0.202199	-0.146553	-0.952818	-0.265820
13074		0.248928	0.227740	-0.941366	0.957756	-0.202404	0.204296	-0.144009	-0.952453	-0.268504
13075		0.250992	0.230556	-0.940131	0.957711	-0.200303	0.206563	-0.140687	-0.952220	-0.271080
13076		0.252888	0.233268	-0.938953	0.957706	-0.198068	0.208732	-0.137286	-0.952027	-0.273491
13077		0.254627	0.235947	-0.937813	0.957615	-0.196583	0.210544	-0.134681	-0.951674	-0.276002
13078		0.256485	0.238768	-0.936592	0.957370	-0.195980	0.212213	-0.132884	-0.951095	-0.278855
13079		0.258284	0.241516	-0.935393	0.956954	-0.196654	0.213462	-0.132394	-0.950262	-0.281912
13080		0.260035	0.244203	-0.934209	0.956461	-0.197930	0.214490	-0.132529	-0.949310	-0.285039
13081		0.261495	0.246492	-0.933200	0.955992	-0.199411	0.215210	-0.133043	-0.948408	-0.287789
13082		0.262711	0.248518	-0.932320	0.955674	-0.200143	0.215942	-0.132932	-0.947724	-0.290082
13083		0.263535	0.250452	-0.931570	0.955523	-0.200302	0.216460	-0.132383	-0.947182	-0.292099
13084		0.264037	0.252135	-0.930974	0.955538	-0.199746	0.216907	-0.131269	-0.946852	-0.293665
13085		0.264147	0.253568	-0.930554	0.955624	-0.199270	0.216964	-0.130416	-0.946570	-0.294952
13086		0.263978	0.254698	-0.930293	0.955773	-0.198737	0.216798	-0.129666	-0.946379	-0.295896
13087		0.263479	0.255379	-0.930248	0.955895	-0.198855	0.216152	-0.129784	-0.946170	-0.296509
13088		0.262936	0.256165	-0.930185	0.955965	-0.199443	0.215299	-0.130367	-0.945834	-0.297326
13089		0.262231	0.256557	-0.930276	0.956060	-0.200021	0.214336	-0.131086	-0.945606	-0.297736
13090		0.261373	0.257067	-0.930377	0.956341	-0.199535	0.213535	-0.130750	-0.945570	-0.297997
13091		0.260245	0.257417	-0.930596	0.956836	-0.197900	0.212841	-0.129376	-0.945818	-0.297808
13092		0.258799	0.258016	-0.930833	0.957497	-0.195598	0.211995	-0.127371	-0.946134	-0.297670
13093		0.257232	0.258429	-0.931153	0.958403	-0.191545	0.211599	-0.123675	-0.946850	-0.296951
13094		0.255875	0.258727	-0.931444	0.958902	-0.190139	0.210603	-0.122615	-0.947052	-0.296746
13095		0.254757	0.258605	-0.931784	0.959300	-0.188986	0.209829	-0.121832	-0.947316	-0.296225
13096		0.253834	0.257927	-0.932224	0.959706	-0.187277	0.209502	-0.120548	-0.947840	-0.295071
13097		0.252895	0.256480	-0.932879	0.960364	-0.183390	0.209926	-0.117239	-0.948992	-0.292692
13098		0.251941	0.254265	-0.933742	0.961351	-0.176469	0.211337	-0.111041	-0.950899	-0.288898
13099		0.250943	0.251985	-0.934629	0.962661	-0.166246	0.213648	-0.101542	-0.953345	-0.284295
13100		0.250257	0.250497	-0.935213	0.963246	-0.161814	0.214416	-0.097619	-0.954499	-0.281785
13101		0.249556	0.250176	-0.935486	0.963018	-0.165450	0.212654	-0.101575	-0.953959	-0.282213
13102		0.249006	0.248759	-0.936010	0.963250	-0.164122	0.212634	-0.100725	-0.954559	-0.280485
13103		0.248289	0.247116	-0.936636	0.963154	-0.166170	0.211477	-0.103381	-0.954631	-0.279269
13104		0.247529	0.244913	-0.937415	0.963184	-0.166963	0.210712	-0.104908	-0.955061	-0.277225
13105		0.246557	0.242535	-0.938289	0.963085	-0.169275	0.209318	-0.108062	-0.955261	-0.275317
13106		0.245287	0.239467	-0.939409	0.963072	-0.171168	0.207833	-0.111027	-0.955697	-0.272609
13107		0.243690	0.236213	-0.940648	0.963215	-0.172231	0.206286	-0.113282	-0.956316	-0.269495
13108		0.241770	0.232603	-0.942042	0.963536	-0.172266	0.204751	-0.114656	-0.957194	-0.265770
13109		0.239644	0.228949	-0.943479	0.964141	-0.170266	0.203575	-0.114034	-0.958432	-0.261542
13110		0.237352	0.225174	-0.944966	0.965106	-0.165424	0.202992	-0.110611	-0.960173	-0.256580
13111		0.235111	0.221622	-0.946365	0.966021	-0.160829	0.202330	-0.107362	-0.961778	-0.251904
13112		0.233307	0.220293	-0.947121	0.965650	-0.167081	0.199009	-0.114406	-0.961018	-0.251707
13113		0.231246	0.217723	-0.948221	0.965929	-0.167810	0.197033	-0.116222	-0.961476	-0.249110
13114		0.229226	0.216175	-0.949065	0.965678	-0.172867	0.193863	-0.122154	-0.960929	-0.248381
13115		0.227035	0.215021	-0.949853	0.965355	-0.178507	0.190331	-0.128630	-0.960157	-0.248099
13116		0.224741	0.213471	-0.950748	0.964981	-0.184230	0.186740	-0.135293	-0.959421	-0.247399
13117		0.222537	0.211877	-0.951623	0.964292	-0.191597	0.182841	-0.143589	-0.958331	-0.246949
13118		0.220585	0.210559	-0.952369	0.962883	-0.202739	0.178197	-0.155562	-0.956327	-0.247465
13119		0.218651	0.208848	-0.953192	0.961338	-0.213673	0.173704	-0.167394	-0.954320	-0.247493
13120		0.217115	0.207558	-0.953824	0.959424	-0.225465	0.169327	-0.179909	-0.951885	-0.248088
13121		0.215961	0.206938	-0.954221	0.956827	-0.239560	0.164599	-0.194531	-0.948571	-0.249740
13122		0.215027	0.205835	-0.954670	0.954674	-0.250317	0.161057	-0.205819	-0.946030	-0.250330
13123		0.213966	0.204787	-0.955134	0.952657	-0.259970	0.157671	-0.216017	-0.943651	-0.250717
13124		0.212907	0.203741	-0.955594	0.951014	-0.267577	0.154837	-0.224149	-0.941749	-0.250730
13125		0.211798	0.202981	-0.956002	0.949387	-0.274903	0.151965	-0.231962	-0.939802	-0.250931
13126		0.210806	0.202134	-0.956401	0.947958	-0.281096	0.149535	-0.238614	-0.938151	-0.250871
13127		0.209840	0.201242	-0.956801	0.946429	-0.287460	0.147104	-0.245439	-0.936412	-0.250782
13128		0.208956	0.200294	-0.957194	0.944926	-0.293476	0.144868	-0.251897	-0.934748	-0.250587
13129		0.208108	0.199093	-0.957629	0.943319	-0.299643	0.142702	-0.258535	-0.933047	-0.250167
13130		0.207481	0.198240	-0.957942	0.941584	-0.306022	0.140609	-0.265277	-0.931156	-0.250153
13131		0.206877	0.197508	-0.958224	0.940075	-0.311454	0.138763	-0.271036	-0.929509	-0.250105
13132		0.206240	0.197253	-0.958413	0.938581	-0.316794	0.136772	-0.276641	-0.927757	-0.250473
13133		0.205466	0.197112	-0.958609	0.937371	-0.321160	0.134876	-0.281281	-0.926285	-0.250754
13134		0.204562	0.196950	-0.958835	0.936306	-0.325029	0.132993	-0.285456	-0.924969	-0.250894
13135		0.203544	0.196791	-0.959085	0.935524	-0.327977	0.131247	-0.288729	-0.923961	-0.250860
13136		0.202191	0.196246	-0.959482	0.935234	-0.329415	0.129705	-0.290614	-0.923566	-0.250141
13137		0.200469	0.195851	-0.959924	0.935136	-0.330405	0.127881	-0.292118	-0.923296	-0.249383
13138		0.198330	0.195050	-0.960532	0.935553	-0.329875	0.126186	-0.292243	-0.923655	-0.247903
13139		0.195817	0.194385	-0.961182	0.936295	-0.328477	0.124317	-0.291560	-0.924293	-0.246323
13140		0.192773	0.193598	-0.961956	0.937585	-0.325512	0.122379	-0.289436	-0.925506	-0.244264
13141		0.189250	0.192523	-0.962870	0.939498	-0.320643	0.120544	-0.285530	-0.927428	-0.241557
13142		0.185371	0.191397	-0.963849	0.941576	-0.315274	0.118481	-0.281199	-0.929500	-0.238657
13143		0.181107	0.189842	-0.964966	0.943747	-0.309571	0.116221	-0.276662	-0.931733	-0.235229
13144		0.176764	0.188752	-0.965985	0.945496	-0.305263	0.113367	-0.273481	-0.933374	-0.232424
13145		0.172021	0.187735	-0.967039	0.947300	-0.300829	0.110108	-0.270242	-0.935017	-0.229590
13146		0.167110	0.187333	-0.967978	0.949007	-0.296757	0.106403	-0.267322	-0.936398	-0.227372
13147		0.161789	0.186340	-0.969073	0.950930	-0.291887	0.102634	-0.263735	-0.938125	-0.224421
13148		0.156385	0.185591	-0.970103	0.952662	-0.287616	0.098549	-0.260727	-0.939592	-0.221784
13149		0.150814	0.184655	-0.971163	0.954392	-0.283255	0.094352	-0.257664	-0.941100	-0.218952
13150		0.145248	0.183886	-0.972157	0.956343	-0.277944	0.090311	-0.253598	-0.942833	-0.216228
13151		0.139794	0.182547	-0.973208	0.958577	-0.271283	0.086807	-0.248169	-0.945030	-0.212909
13152		0.134611	0.180958	-0.974235	0.960313	-0.266213	0.083240	-0.244291	-0.946776	-0.209612
13153		0.129501	0.179855	-0.975132	0.961870	-0.261708	0.079470	-0.240906	-0.948241	-0.206889
13154		0.124481	0.179022	-0.975938	0.962441	-0.260956	0.074891	-0.241270	-0.948606	-0.204783
13155		0.119533	0.178646	-0.976625	0.962756	-0.261133	0.070069	-0.242512	-0.948628	-0.203207
13156		0.115025	0.178666	-0.977163	0.963335	-0.260098	0.065840	-0.242395	-0.948909	-0.202033
13157		0.110614	0.178191	-0.977759	0.964387	-0.257065	0.062253	-0.240254	-0.949824	-0.200280
13158		0.106203	0.177351	-0.978400	0.965335	-0.254332	0.058683	-0.238432	-0.950716	-0.198214
13159		0.101839	0.176798	-0.978964	0.966336	-0.251307	0.055140	-0.236272	-0.951623	-0.196439
13160		0.097608	0.176969	-0.979364	0.967516	-0.247466	0.051710	-0.233208	-0.952598	-0.195375
13161		0.093381	0.176614	-0.979841	0.969205	-0.241358	0.048863	-0.227862	-0.954229	-0.193713
13162		0.089425	0.176134	-0.980296	0.970522	-0.236578	0.046027	-0.223809	-0.955514	-0.192098
13163		0.085856	0.176247	-0.980595	0.971380	-0.233594	0.043064	-0.221471	-0.956227	-0.191258
13164		0.082727	0.176807	-0.980763	0.971705	-0.232787	0.039997	-0.221238	-0.956321	-0.191062
13165		0.079650	0.177098	-0.980965	0.971681	-0.233418	0.036756	-0.222466	-0.956113	-0.190675
13166		0.076641	0.176814	-0.981256	0.971687	-0.233847	0.033757	-0.223496	-0.956061	-0.189730
13167		0.073755	0.176077	-0.981609	0.972334	-0.231454	0.031541	-0.221644	-0.956779	-0.188277
13168		0.070983	0.174434	-0.982107	0.973575	-0.226369	0.030160	-0.217058	-0.958295	-0.185892
13169		0.068400	0.173156	-0.982516	0.974629	-0.221977	0.028730	-0.213121	-0.959554	-0.183946
13170		0.065927	0.172281	-0.982839	0.975475	-0.218432	0.027144	-0.210007	-0.960524	-0.182456
13171		0.063815	0.171645	-0.983090	0.975840	-0.217000	0.025457	-0.208961	-0.960963	-0.181346
13172		0.062078	0.171032	-0.983308	0.975865	-0.217069	0.023852	-0.209367	-0.961056	-0.180379
13173		0.060669	0.169852	-0.983600	0.976266	-0.215348	0.023030	-0.207905	-0.961652	-0.178886
13174		0.059597	0.168360	-0.983922	0.976161	-0.215913	0.022182	-0.208707	-0.961788	-0.177214
13175		0.058961	0.167723	-0.984069	0.974985	-0.221303	0.020698	-0.214306	-0.960674	-0.176575
13176		0.058571	0.168623	-0.983939	0.973195	-0.229226	0.018648	-0.222400	-0.958656	-0.177529
13177		0.058522	0.169299	-0.983826	0.971859	-0.234921	0.017385	-0.228178	-0.957157	-0.178283
13178		0.059005	0.170792	-0.983539	0.969879	-0.243064	0.015977	-0.236334	-0.954856	-0.179989
13179		0.059808	0.172180	-0.983248	0.968289	-0.249368	0.015230	-0.242568	-0.952979	-0.181634
13180		0.060905	0.173317	-0.982981	0.966634	-0.255735	0.014801	-0.248817	-0.951084	-0.183109
13181		0.062103	0.173949	-0.982794	0.965199	-0.261100	0.014778	-0.254037	-0.949510	-0.184110
13182		0.063488	0.174710	-0.982571	0.963664	-0.266703	0.014844	-0.259461	-0.947811	-0.185294
13183		0.064788	0.175464	-0.982352	0.962162	-0.272074	0.014860	-0.264665	-0.946144	-0.186451
13184		0.066384	0.175927	-0.982162	0.961155	-0.275568	0.015604	-0.267907	-0.945046	-0.187387
13185		0.068152	0.176534	-0.981932	0.960204	-0.278810	0.016518	-0.270857	-0.943981	-0.188510
13186		0.070277	0.177752	-0.981563	0.958908	-0.283185	0.017372	-0.274876	-0.942449	-0.190349
13187		0.072579	0.179542	-0.981069	0.957396	-0.288212	0.018083	-0.279509	-0.940584	-0.192811
13188		0.074926	0.181273	-0.980574	0.955978	-0.292828	0.018913	-0.283711	-0.938825	-0.195233
13189		0.077277	0.182964	-0.980078	0.955137	-0.295477	0.020150	-0.285904	-0.937666	-0.197589
13190		0.079830	0.183630	-0.979749	0.955087	-0.295474	0.022441	-0.285369	-0.937537	-0.198970
13191		0.082741	0.183228	-0.979582	0.955685	-0.293252	0.025870	-0.282524	-0.938313	-0.199372
13192		0.086085	0.182380	-0.979452	0.956515	-0.290130	0.030045	-0.278689	-0.939448	-0.199426
13193		0.089130	0.180224	-0.979579	0.957419	-0.286649	0.034375	-0.274600	-0.940931	-0.198099
13194		0.092178	0.178444	-0.979623	0.957462	-0.286046	0.037988	-0.273439	-0.941454	-0.197221
13195		0.094982	0.177034	-0.979611	0.957006	-0.287171	0.040893	-0.274077	-0.941378	-0.196699
13196		0.097900	0.175748	-0.979555	0.956396	-0.288773	0.043775	-0.275176	-0.941129	-0.196355
13197		0.101197	0.175038	-0.979347	0.954929	-0.293205	0.046270	-0.279051	-0.939890	-0.196820
13198		0.104569	0.173818	-0.979210	0.954040	-0.295578	0.049413	-0.280844	-0.939373	-0.196737
13199		0.108191	0.172678	-0.979018	0.954098	-0.294686	0.053461	-0.279271	-0.939863	-0.196634
13200		0.111760	0.171408	-0.978841	0.954639	-0.292091	0.057847	-0.275996	-0.940905	-0.196276
13201		0.115255	0.170792	-0.978543	0.955522	-0.288279	0.062228	-0.271465	-0.942192	-0.196421
13202		0.118670	0.170027	-0.978268	0.956623	-0.283578	0.066758	-0.266064	-0.943756	-0.196303
13203		0.122282	0.169409	-0.977930	0.957360	-0.279984	0.071207	-0.261741	-0.944939	-0.196423
13204		0.126011	0.168302	-0.977648	0.958324	-0.275355	0.076119	-0.256389	-0.946496	-0.195985
13205		0.130054	0.166860	-0.977366	0.959129	-0.271023	0.081357	-0.251314	-0.948000	-0.195288
13206		0.134595	0.165131	-0.977045	0.959005	-0.269866	0.086500	-0.249387	-0.948633	-0.194683
13207		0.139541	0.163147	-0.976684	0.958362	-0.270413	0.091753	-0.249139	-0.948820	-0.194088
13208		0.145132	0.161411	-0.976157	0.956918	-0.273669	0.097019	-0.251484	-0.948183	-0.194175
13209		0.150676	0.159202	-0.975680	0.955211	-0.277716	0.102201	-0.254691	-0.947380	-0.193916
13210		0.156377	0.156931	-0.975151	0.954005	-0.279669	0.107979	-0.255775	-0.947184	-0.193447
13211		0.162198	0.154739	-0.974550	0.953081	-0.280387	0.114105	-0.255594	-0.947333	-0.192957
13212		0.168166	0.152720	-0.973857	0.952449	-0.279822	0.120588	-0.254090	-0.947827	-0.192514
13213		0.173985	0.150917	-0.973115	0.952395	-0.277007	0.127320	-0.250345	-0.948942	-0.191928
13214		0.179815	0.149507	-0.972273	0.952362	-0.273952	0.134007	-0.246321	-0.950052	-0.191646
13215		0.185728	0.148330	-0.971341	0.952583	-0.269657	0.140963	-0.241020	-0.951464	-0.191379
13216		0.191808	0.147220	-0.970328	0.952560	-0.265974	0.147941	-0.236302	-0.952672	-0.191252
13217		0.197901	0.145903	-0.969303	0.952181	-0.263448	0.154750	-0.232782	-0.953576	-0.191062
13218		0.204044	0.144311	-0.968267	0.951257	-0.262867	0.161281	-0.231250	-0.953979	-0.190913
13219		0.209773	0.142399	-0.967325	0.950274	-0.262584	0.167420	-0.230164	-0.954344	-0.190401
13220		0.215077	0.140548	-0.966431	0.949340	-0.262256	0.173133	-0.229118	-0.954708	-0.189833
13221		0.219708	0.138667	-0.965660	0.948774	-0.260757	0.178422	-0.227061	-0.955394	-0.188854
13222		0.224165	0.137399	-0.964817	0.948427	-0.258448	0.183552	-0.224135	-0.956204	-0.188248
13223		0.228148	0.135989	-0.964083	0.948526	-0.254435	0.188577	-0.219652	-0.957481	-0.187038
13224		0.231914	0.134466	-0.963397	0.949030	-0.248595	0.193758	-0.213442	-0.959228	-0.185265
13225		0.235579	0.132850	-0.962732	0.949293	-0.243670	0.198666	-0.208196	-0.960716	-0.183517
13226		0.239181	0.131230	-0.962066	0.949343	-0.239589	0.203336	-0.203817	-0.961965	-0.181887
13227		0.242313	0.129599	-0.961503	0.949203	-0.236722	0.207306	-0.200742	-0.962895	-0.180377
13228		0.245242	0.128310	-0.960933	0.948947	-0.234603	0.210857	-0.198382	-0.963586	-0.179294
13229		0.247674	0.127598	-0.960404	0.948895	-0.232071	0.213873	-0.195592	-0.964293	-0.178555
13230		0.249420	0.127407	-0.959978	0.949345	-0.227831	0.216420	-0.191139	-0.965329	-0.177779
13231		0.250618	0.127548	-0.959647	0.950201	-0.222076	0.218634	-0.185228	-0.966651	-0.176852
13232		0.251545	0.127619	-0.959395	0.951395	-0.214590	0.220903	-0.177685	-0.968331	-0.175395
13233		0.252076	0.126899	-0.959351	0.952689	-0.206524	0.223007	-0.169830	-0.970178	-0.172955
13234		0.252382	0.126261	-0.959355	0.953931	-0.198690	0.224805	-0.162230	-0.971895	-0.170590
13235		0.252197	0.125997	-0.959438	0.954921	-0.192854	0.225683	-0.156597	-0.973104	-0.168954
13236		0.251721	0.126384	-0.959512	0.955907	-0.187416	0.226089	-0.151254	-0.974116	-0.167988
13237		0.251128	0.126453	-0.959659	0.956875	-0.182003	0.226417	-0.146030	-0.975133	-0.166705
13238		0.250583	0.125951	-0.959867	0.958071	-0.174577	0.227207	-0.138954	-0.976555	-0.164416
13239		0.249938	0.125272	-0.960124	0.959415	-0.165780	0.228123	-0.130592	-0.978174	-0.161622
13240		0.249168	0.124757	-0.960391	0.960602	-0.157910	0.228710	-0.123122	-0.979541	-0.159188
13241		0.248254	0.124544	-0.960655	0.961706	-0.150596	0.229001	-0.116150	-0.980719	-0.157161
13242		0.247136	0.124323	-0.960972	0.962852	-0.142871	0.229136	-0.108809	-0.981902	-0.155013
13243		0.245793	0.124368	-0.961311	0.963916	-0.135955	0.228870	-0.102231	-0.982878	-0.153297
13244		0.244490	0.124218	-0.961662	0.964875	-0.129486	0.228581	-0.096128	-0.983770	-0.151513
13245		0.243145	0.124126	-0.962015	0.965881	-0.122171	0.228359	-0.089185	-0.984717	-0.149596
13246		0.241855	0.123990	-0.962358	0.966707	-0.116215	0.227975	-0.083573	-0.985454	-0.147969
13247		0.240588	0.124246	-0.962642	0.967326	-0.112424	0.227249	-0.079989	-0.985862	-0.147235
13248		0.239504	0.124822	-0.962838	0.967676	-0.111387	0.226267	-0.079004	-0.985907	-0.147465
13249		0.238568	0.125459	-0.962988	0.967896	-0.111524	0.225254	-0.079137	-0.985811	-0.148037
13250		0.238207	0.126050	-0.963000	0.967872	-0.113004	0.224620	-0.080509	-0.985567	-0.148919
13251		0.238261	0.126010	-0.962992	0.967868	-0.112881	0.224696	-0.080390	-0.985586	-0.148857
13252		0.238930	0.126928	-0.962705	0.967687	-0.113399	0.225216	-0.080583	-0.985408	-0.149921
13253		0.239635	0.127519	-0.962452	0.967404	-0.114969	0.225635	-0.081879	-0.985150	-0.150913
13254		0.240597	0.127359	-0.962233	0.966978	-0.117305	0.226258	-0.084058	-0.984896	-0.151376
13255		0.241914	0.126492	-0.962017	0.966348	-0.120774	0.227123	-0.087457	-0.984588	-0.151452
13256		0.243549	0.124939	-0.961808	0.965353	-0.127022	0.227947	-0.093691	-0.984000	-0.151546
13257		0.245249	0.123324	-0.961584	0.963901	-0.137084	0.228259	-0.103668	-0.982853	-0.152491
13258		0.246967	0.122466	-0.961254	0.961702	-0.152688	0.227629	-0.118895	-0.980657	-0.155485
13259		0.248624	0.122283	-0.960850	0.958788	-0.171910	0.226213	-0.137518	-0.977494	-0.159985
13260		0.250125	0.122284	-0.960460	0.955249	-0.192960	0.224200	-0.157914	-0.973557	-0.165076
13261		0.251633	0.121922	-0.960113	0.951050	-0.215041	0.221950	-0.179403	-0.968965	-0.170065
13262		0.253639	0.122068	-0.959566	0.945762	-0.239460	0.219529	-0.202980	-0.963202	-0.176183
13263		0.256076	0.122559	-0.958856	0.939570	-0.264729	0.217088	-0.227231	-0.956503	-0.182944
13264		0.259444	0.123775	-0.957794	0.932684	-0.289437	0.215238	-0.250580	-0.949161	-0.190536
13265		0.262845	0.125268	-0.956672	0.926136	-0.310771	0.213762	-0.270528	-0.942194	-0.197700
13266		0.266235	0.127570	-0.955429	0.920375	-0.328161	0.212650	-0.286406	-0.935968	-0.204780
13267		0.269626	0.129705	-0.954190	0.915732	-0.341061	0.212397	-0.297888	-0.931050	-0.210734
13268		0.273498	0.131258	-0.952875	0.912007	-0.350213	0.213526	-0.305682	-0.927428	-0.215491
13269		0.277449	0.131564	-0.951690	0.909309	-0.355720	0.215918	-0.310128	-0.925286	-0.218326
13270		0.281337	0.132079	-0.950476	0.907366	-0.358970	0.218694	-0.312308	-0.923957	-0.220835
13271		0.284894	0.132864	-0.949306	0.905786	-0.361383	0.221255	-0.313666	-0.922903	-0.223302
13272		0.288234	0.134118	-0.948121	0.904807	-0.362254	0.223823	-0.313442	-0.922380	-0.225765
13273		0.291216	0.135756	-0.946976	0.903980	-0.362993	0.225956	-0.313071	-0.921850	-0.228430
13274		0.293902	0.137511	-0.945892	0.902626	-0.365500	0.227323	-0.314464	-0.920598	-0.231542
13275		0.296249	0.138982	-0.944945	0.900480	-0.370448	0.227824	-0.318389	-0.918397	-0.234895
13276		0.298389	0.140502	-0.944046	0.898201	-0.375858	0.227960	-0.322798	-0.915964	-0.238351
13277		0.300043	0.141735	-0.943337	0.896589	-0.379578	0.228143	-0.325735	-0.914238	-0.240968
13278		0.301805	0.143489	-0.942510	0.894907	-0.383507	0.228176	-0.328718	-0.912323	-0.244153
13279		0.303108	0.144852	-0.941883	0.893435	-0.387030	0.227995	-0.331511	-0.910618	-0.246727
13280		0.304179	0.146638	-0.941261	0.892612	-0.389008	0.227854	-0.332746	-0.909489	-0.249219
13281		0.305030	0.148647	-0.940670	0.892643	-0.388843	0.228011	-0.331880	-0.909233	-0.251297
13282		0.305644	0.150386	-0.940195	0.893072	-0.387678	0.228315	-0.330158	-0.909445	-0.252797
13283		0.306023	0.151962	-0.939818	0.893973	-0.385314	0.228792	-0.327357	-0.910187	-0.253765
13284		0.306102	0.153284	-0.939577	0.894936	-0.382891	0.229093	-0.324639	-0.910988	-0.254384
13285		0.305963	0.154674	-0.939395	0.895884	-0.380655	0.229115	-0.322147	-0.911689	-0.255037
13286		0.305598	0.155959	-0.939301	0.896728	-0.378823	0.228848	-0.320139	-0.912233	-0.255620
13287		0.305209	0.157622	-0.939150	0.897615	-0.376962	0.228443	-0.318016	-0.912719	-0.256536
13288		0.304654	0.159279	-0.939051	0.898691	-0.374653	0.228013	-0.315500	-0.913381	-0.257282
13289		0.303603	0.160709	-0.939148	0.900145	-0.371509	0.227421	-0.312353	-0.914415	-0.257452
13290		0.302200	0.162172	-0.939348	0.902296	-0.366513	0.227004	-0.307470	-0.916170	-0.257087
13291		0.300451	0.163472	-0.939684	0.904572	-0.361251	0.226380	-0.302455	-0.918028	-0.256410
13292		0.298711	0.165104	-0.939953	0.906687	-0.356447	0.225529	-0.297808	-0.919612	-0.256173
13293		0.296674	0.166220	-0.940402	0.908856	-0.351478	0.224597	-0.293198	-0.921322	-0.255345
13294		0.294794	0.167524	-0.940761	0.910692	-0.347395	0.223510	-0.289372	-0.922633	-0.254973
13295		0.293041	0.168761	-0.941088	0.912552	-0.343046	0.222638	-0.285264	-0.924034	-0.254529
13296		0.291395	0.169949	-0.941385	0.914218	-0.339161	0.221757	-0.281594	-0.925250	-0.254200
13297		0.289551	0.170994	-0.941765	0.915593	-0.336293	0.220444	-0.279015	-0.926104	-0.253935
13298		0.287501	0.171797	-0.942247	0.916637	-0.334596	0.218681	-0.277704	-0.926570	-0.253672
13299		0.285314	0.172421	-0.942798	0.917460	-0.333681	0.216622	-0.277243	-0.926784	-0.253393
13300		0.282952	0.172776	-0.943444	0.918248	-0.332930	0.214425	-0.277054	-0.926987	-0.252855
13301		0.280389	0.172738	-0.944216	0.918918	-0.332618	0.212026	-0.277439	-0.927107	-0.251994
13302		0.277823	0.172629	-0.944994	0.919652	-0.332055	0.209714	-0.277587	-0.927329	-0.251011
13303		0.275205	0.172259	-0.945827	0.920579	-0.330805	0.207611	-0.277122	-0.927844	-0.249617
13304		0.272675	0.171808	-0.946641	0.921448	-0.329644	0.205591	-0.276733	-0.928341	-0.248198
13305		0.270074	0.171108	-0.947514	0.922125	-0.329109	0.203404	-0.277031	-0.928660	-0.246666
13306		0.267558	0.170366	-0.948361	0.922433	-0.329716	0.201012	-0.278444	-0.928581	-0.245369
13307		0.265035	0.169320	-0.949256	0.922646	-0.330554	0.198644	-0.280146	-0.928475	-0.243830
13308		0.262732	0.167786	-0.950168	0.922651	-0.331799	0.196533	-0.282289	-0.928309	-0.241982
13309		0.260683	0.166025	-0.951041	0.922571	-0.333078	0.194733	-0.284440	-0.928167	-0.239998
13310		0.258840	0.164314	-0.951842	0.922425	-0.334425	0.193110	-0.286589	-0.927987	-0.238131
13311		0.257036	0.162542	-0.952634	0.922088	-0.336327	0.191409	-0.289285	-0.927612	-0.236327
13312		0.255306	0.160646	-0.953421	0.921708	-0.338266	0.189818	-0.292017	-0.927237	-0.234431
13313		0.253785	0.158516	-0.954183	0.921329	-0.339994	0.188564	-0.294526	-0.926972	-0.232331
13314		0.252674	0.156445	-0.954820	0.920908	-0.341592	0.187731	-0.296789	-0.926736	-0.230383
13315		0.251698	0.154447	-0.955403	0.920581	-0.342814	0.187107	-0.298628	-0.926620	-0.228466
13316		0.250610	0.152338	-0.956027	0.920373	-0.343704	0.186496	-0.300180	-0.926640	-0.226343
13317		0.249232	0.150547	-0.956671	0.920325	-0.344329	0.185578	-0.301471	-0.926700	-0.224369
13318		0.247722	0.149259	-0.957265	0.920038	-0.345854	0.184162	-0.303586	-0.926340	-0.223000
13319		0.246067	0.148255	-0.957847	0.919801	-0.347344	0.182531	-0.305642	-0.925944	-0.221835
13320		0.244392	0.147302	-0.958423	0.919897	-0.347836	0.181108	-0.306697	-0.925911	-0.220511
13321		0.242631	0.146130	-0.959050	0.920401	-0.347092	0.179967	-0.306580	-0.926376	-0.218714
13322		0.240943	0.144776	-0.959680	0.921073	-0.345762	0.179089	-0.305893	-0.927086	-0.216659
13323		0.239268	0.143666	-0.960266	0.921482	-0.345260	0.177950	-0.305976	-0.927446	-0.214996
13324		0.237908	0.142956	-0.960710	0.921442	-0.346009	0.176697	-0.307155	-0.927276	-0.214044
13325		0.236644	0.142305	-0.961118	0.921264	-0.347124	0.175435	-0.308662	-0.926960	-0.213246
13326		0.235487	0.141650	-0.961499	0.921429	-0.347143	0.174531	-0.309055	-0.927053	-0.212268
13327		0.234243	0.140973	-0.961903	0.921872	-0.346364	0.173733	-0.308677	-0.927447	-0.211093
13328		0.232820	0.139974	-0.962394	0.922346	-0.345531	0.172877	-0.308338	-0.927909	-0.209551
13329		0.231017	0.138447	-0.963049	0.923002	-0.344254	0.171920	-0.307732	-0.928613	-0.207316
13330		0.228954	0.137014	-0.963746	0.923668	-0.343095	0.170655	-0.307274	-0.929254	-0.205109
13331		0.226560	0.135369	-0.964544	0.924320	-0.342107	0.169099	-0.307087	-0.929859	-0.202632
13332		0.224209	0.133802	-0.965312	0.924985	-0.341063	0.167568	-0.306812	-0.930469	-0.200234
13333		0.221896	0.132014	-0.966092	0.925738	-0.339680	0.166211	-0.306220	-0.931230	-0.197584
13334		0.219896	0.130450	-0.966762	0.926321	-0.338680	0.164997	-0.305899	-0.931815	-0.195313
13335		0.218043	0.128785	-0.967405	0.926912	-0.337557	0.163979	-0.305436	-0.932453	-0.192974
13336		0.216456	0.127233	-0.967966	0.927276	-0.337003	0.163060	-0.305460	-0.932867	-0.190926
13337		0.215101	0.125685	-0.968470	0.927366	-0.337162	0.162216	-0.306144	-0.933019	-0.189080
13338		0.214041	0.124095	-0.968910	0.927226	-0.337860	0.161561	-0.307307	-0.932980	-0.187380
13339		0.213237	0.122391	-0.969304	0.927032	-0.338570	0.161187	-0.308450	-0.932947	-0.185656
13340		0.212774	0.120624	-0.969627	0.926663	-0.339622	0.161096	-0.309874	-0.932795	-0.184041
13341		0.212613	0.119127	-0.969848	0.926501	-0.339942	0.161355	-0.310470	-0.932871	-0.182647
13342		0.212754	0.117807	-0.969978	0.926404	-0.339942	0.161910	-0.310663	-0.933038	-0.181461
13343		0.212736	0.116181	-0.970178	0.926294	-0.340010	0.162397	-0.311003	-0.933218	-0.179950
13344		0.212542	0.113978	-0.970482	0.926463	-0.339230	0.163060	-0.310631	-0.933773	-0.177697
13345		0.211892	0.110967	-0.970973	0.927254	-0.336668	0.163876	-0.308710	-0.935062	-0.174232
13346		0.210702	0.106885	-0.971689	0.929115	-0.330903	0.165071	-0.303891	-0.937592	-0.169031
13347		0.208926	0.101829	-0.972615	0.931638	-0.323105	0.166296	-0.297323	-0.940869	-0.162372
13348		0.206818	0.097338	-0.973525	0.934315	-0.314905	0.167002	-0.290313	-0.944119	-0.156072
13349		0.204533	0.094506	-0.974287	0.935835	-0.310724	0.166321	-0.287016	-0.945790	-0.151995
13350		0.201623	0.091827	-0.975149	0.937626	-0.305965	0.165053	-0.283205	-0.947604	-0.147789
13351		0.198107	0.089745	-0.976063	0.939019	-0.302921	0.162736	-0.281065	-0.948781	-0.144283
13352		0.193897	0.088269	-0.977043	0.940731	-0.299221	0.159659	-0.278259	-0.950092	-0.141056
13353		0.188937	0.087191	-0.978111	0.943251	-0.293118	0.156075	-0.273093	-0.952092	-0.137624
13354		0.183491	0.085766	-0.979273	0.946569	-0.284182	0.152474	-0.265215	-0.954926	-0.133328
13355		0.177891	0.084173	-0.980444	0.950356	-0.273181	0.148979	-0.255299	-0.958273	-0.128591
13356		0.172332	0.081761	-0.981640	0.954594	-0.259708	0.145953	-0.243006	-0.962220	-0.122805
13357		0.167379	0.080096	-0.982634	0.958429	-0.246830	0.143137	-0.231079	-0.965743	-0.118081
13358		0.162238	0.077607	-0.983695	0.962191	-0.233477	0.140271	-0.218785	-0.969260	-0.112551
13359		0.157008	0.074559	-0.984779	0.965872	-0.219592	0.137368	-0.206007	-0.972739	-0.106492
13360		0.151918	0.071687	-0.985790	0.969020	-0.207306	0.134258	-0.194736	-0.975646	-0.100960
13361		0.147533	0.069272	-0.986628	0.971773	-0.195829	0.131562	-0.184097	-0.978188	-0.096208
13362		0.144112	0.066764	-0.987307	0.974118	-0.185148	0.129667	-0.174141	-0.980440	-0.091718
13363		0.141849	0.064678	-0.987773	0.976375	-0.173463	0.128854	-0.163008	-0.982714	-0.087755
13364		0.140837	0.062845	-0.988036	0.978221	-0.162533	0.129100	-0.152475	-0.984700	-0.084367
13365		0.141315	0.061950	-0.988024	0.979374	-0.154343	0.130401	-0.144416	-0.986073	-0.082483
13366		0.143232	0.061994	-0.987746	0.980081	-0.147619	0.132856	-0.137574	-0.987100	-0.081902
13367		0.146538	0.062836	-0.987207	0.980900	-0.138282	0.136800	-0.127917	-0.988398	-0.081899
13368		0.151672	0.064488	-0.986325	0.981605	-0.126892	0.142650	-0.115958	-0.989818	-0.082548
13369		0.157776	0.065064	-0.985329	0.982097	-0.114341	0.149708	-0.102923	-0.991309	-0.081940
13370		0.164737	0.068208	-0.983976	0.982183	-0.102810	0.157310	-0.090433	-0.992360	-0.083929
13371		0.171929	0.070836	-0.982559	0.982244	-0.088346	0.165504	-0.075082	-0.993568	-0.084767
13372		0.179958	0.072857	-0.980973	0.981842	-0.074144	0.174611	-0.060012	-0.994583	-0.084877
13373		0.189038	0.074569	-0.979134	0.980767	-0.063681	0.184503	-0.048594	-0.995180	-0.085173
13374		0.199388	0.077088	-0.976884	0.979106	-0.056307	0.195398	-0.039942	-0.995433	-0.086704
13375		0.210520	0.080316	-0.974285	0.977018	-0.051369	0.206876	-0.033432	-0.995445	-0.089285
13376		0.223147	0.082895	-0.971254	0.974282	-0.050953	0.219494	-0.031293	-0.995255	-0.092133
13377		0.237460	0.085320	-0.967643	0.970941	-0.051379	0.233739	-0.029774	-0.995028	-0.095041
13378		0.254200	0.087162	-0.963216	0.966719	-0.052699	0.250356	-0.028939	-0.994799	-0.097657
13379		0.273921	0.088483	-0.957673	0.961250	-0.057364	0.269644	-0.031078	-0.994425	-0.100767
13380		0.296586	0.091403	-0.950622	0.954390	-0.064112	0.291597	-0.034294	-0.993748	-0.106249
13381		0.320880	0.094454	-0.942398	0.946373	-0.071477	0.315070	-0.037600	-0.992960	-0.112324
13382		0.346324	0.094980	-0.933294	0.937207	-0.078789	0.339758	-0.041263	-0.992356	-0.116303
13383		0.371187	0.094771	-0.923709	0.927317	-0.089242	0.363481	-0.047986	-0.991491	-0.121009
13384		0.394457	0.094230	-0.914070	0.916904	-0.106130	0.384739	-0.060757	-0.989877	-0.128264
13385		0.415352	0.095005	-0.904686	0.906059	-0.131619	0.402160	-0.080867	-0.986737	-0.140748
13386		0.433496	0.098485	-0.895758	0.894953	-0.163478	0.415132	-0.105553	-0.981619	-0.159007
13387		0.448547	0.103851	-0.887705	0.884478	-0.194347	0.424180	-0.128472	-0.975420	-0.179028
13388		0.460575	0.108149	-0.881008	0.874760	-0.223648	0.429855	-0.150548	-0.968651	-0.197611
13389		0.469730	0.113015	-0.875546	0.866638	-0.247995	0.432940	-0.168203	-0.962146	-0.214434
13390		0.476490	0.117413	-0.871304	0.861122	-0.262155	0.435595	-0.177273	-0.957856	-0.226021
13391		0.481386	0.120759	-0.868150	0.858378	-0.265361	0.439056	-0.177354	-0.956557	-0.231398
13392		0.484889	0.122413	-0.865966	0.858338	-0.256520	0.444356	-0.167743	-0.958756	-0.229456
13393		0.486949	0.120720	-0.865048	0.859694	-0.241206	0.450274	-0.154298	-0.962936	-0.221237
13394		0.488163	0.118458	-0.864676	0.861497	-0.224005	0.455681	-0.139712	-0.967362	-0.211402
13395		0.487553	0.114813	-0.865511	0.863989	-0.206233	0.459338	-0.125759	-0.971744	-0.199747
13396		0.484977	0.109985	-0.867583	0.866923	-0.191004	0.460394	-0.115076	-0.975408	-0.187981
13397		0.480857	0.105605	-0.870416	0.870284	-0.178274	0.459155	-0.106684	-0.978297	-0.177631
13398		0.475668	0.101802	-0.873714	0.874125	-0.165611	0.456595	-0.098214	-0.980923	-0.167764
13399		0.469114	0.096102	-0.877893	0.878253	-0.155174	0.452319	-0.092758	-0.983202	-0.157196
13400		0.461787	0.087822	-0.882632	0.882249	-0.148232	0.446838	-0.091592	-0.985046	-0.145932
13401		0.454038	0.077261	-0.887626	0.886137	-0.142907	0.440838	-0.092788	-0.986716	-0.133349
13402		0.446030	0.063629	-0.892753	0.889860	-0.138458	0.434717	-0.095948	-0.988322	-0.118377
13403		0.438226	0.046328	-0.897670	0.893207	-0.134321	0.429115	-0.100696	-0.989854	-0.100243
13404		0.431435	0.026758	-0.901747	0.896100	-0.128224	0.424928	-0.104256	-0.991384	-0.079298
13405		0.425287	0.004107	-0.905049	0.898749	-0.119790	0.421782	-0.106684	-0.992791	-0.054636
13406		0.419563	-0.021009	-0.907483	0.901119	-0.110769	0.419184	-0.109328	-0.993624	-0.027542
13407		0.413571	-0.047071	-0.909254	0.903694	-0.100406	0.416240	-0.110887	-0.993832	0.001013
13408		0.406844	-0.074269	-0.910474	0.906850	-0.087192	0.412337	-0.110010	-0.993419	0.031877
13409		0.398990	-0.103025	-0.911149	0.910561	-0.072623	0.406944	-0.108096	-0.992024	0.064835
13410		0.389950	-0.133288	-0.911139	0.914740	-0.057594	0.399916	-0.105780	-0.989403	0.099465
13411		0.379752	-0.165078	-0.910241	0.919518	-0.040463	0.390960	-0.101370	-0.985450	0.136427
13412		0.368321	-0.197985	-0.908373	0.924812	-0.022017	0.379786	-0.095191	-0.979958	0.174990
13413		0.355513	-0.232691	-0.905243	0.930498	-0.003308	0.366282	-0.088224	-0.972545	0.215342
13414		0.341112	-0.268839	-0.900760	0.936409	0.013232	0.350662	-0.082353	-0.963094	0.256257
13415		0.324902	-0.306956	-0.894549	0.942532	0.027155	0.333011	-0.077928	-0.951336	0.298138
13416		0.307202	-0.345787	-0.886599	0.948676	0.037752	0.313987	-0.075101	-0.937553	0.339637
13417		0.287935	-0.384241	-0.877184	0.954840	0.045075	0.293681	-0.073305	-0.922132	0.379867
13418		0.267221	-0.421951	-0.866343	0.960908	0.049082	0.272484	-0.072453	-0.905289	0.418572
13419		0.245556	-0.458143	-0.854287	0.966728	0.050568	0.250757	-0.071683	-0.887439	0.455318
13420		0.223016	-0.491530	-0.841821	0.972344	0.050720	0.227979	-0.069361	-0.869382	0.489247
13421		0.199442	-0.524007	-0.828034	0.977684	0.049488	0.204170	-0.066008	-0.850275	0.522183
13422		0.175460	-0.555019	-0.813122	0.982571	0.047223	0.179791	-0.061390	-0.830496	0.553631
13423		0.151181	-0.584896	-0.796894	0.986914	0.043574	0.155249	-0.056081	-0.809937	0.583830
13424		0.127175	-0.614323	-0.778739	0.990624	0.039171	0.130877	-0.049897	-0.788082	0.613545
13425		0.104374	-0.642021	-0.759549	0.993652	0.035094	0.106880	-0.041964	-0.765883	0.641609
13426		0.082477	-0.667782	-0.739773	0.996075	0.031309	0.082790	-0.032124	-0.743698	0.667743
13427		0.061463	-0.691695	-0.719570	0.997847	0.026055	0.060188	-0.022883	-0.721720	0.691807
13428		0.040768	-0.714142	-0.698813	0.998983	0.015655	0.042281	-0.019255	-0.699826	0.714054
13429		0.021111	-0.734388	-0.678402	0.999600	0.002729	0.028152	-0.018823	-0.678725	0.734151
13430		0.002237	-0.751141	-0.660138	0.999782	-0.012033	0.017079	-0.020772	-0.660032	0.750950
13431		-0.015806	-0.766466	-0.642091	0.999590	-0.027451	0.008162	-0.023882	-0.641698	0.766585
13432		-0.032809	-0.780656	-0.624099	0.999031	-0.043943	0.002446	-0.029334	-0.623414	0.781341
13433		-0.048693	-0.793200	-0.607011	0.998230	-0.059418	-0.002432	-0.034138	-0.606055	0.794690
13434		-0.063800	-0.804471	-0.590556	0.997176	-0.074875	-0.005733	-0.039606	-0.589254	0.806977
13435		-0.077817	-0.814860	-0.574410	0.995901	-0.090183	-0.006984	-0.046111	-0.572599	0.818538
13436		-0.091117	-0.823860	-0.559422	0.994437	-0.105083	-0.007216	-0.052841	-0.556967	0.828852
13437		-0.104117	-0.831810	-0.545207	0.992872	-0.118905	-0.008196	-0.058010	-0.542174	0.838261
13438		-0.116774	-0.838758	-0.531836	0.991077	-0.133067	-0.007749	-0.064270	-0.527995	0.846812
13439		-0.128954	-0.844523	-0.519762	0.989199	-0.146381	-0.007580	-0.069682	-0.515125	0.854278
13440		-0.140847	-0.849366	-0.508665	0.987331	-0.158428	-0.008846	-0.073074	-0.503467	0.860919
13441		-0.152385	-0.853296	-0.498663	0.985583	-0.168731	-0.012456	-0.073511	-0.493372	0.866706
13442		-0.163799	-0.856270	-0.489869	0.983953	-0.177426	-0.018876	-0.070752	-0.485100	0.871592
13443		-0.175329	-0.858593	-0.481744	0.982315	-0.185224	-0.027393	-0.065711	-0.478027	0.875884
13444		-0.186696	-0.860196	-0.474560	0.980592	-0.192598	-0.036666	-0.059860	-0.472195	0.879459
13445		-0.197957	-0.860934	-0.468620	0.978767	-0.199551	-0.046847	-0.053181	-0.467944	0.882157
13446		-0.209070	-0.860979	-0.463686	0.976782	-0.206535	-0.056920	-0.046760	-0.464821	0.884169
13447		-0.220132	-0.860561	-0.459323	0.974562	-0.214332	-0.065503	-0.042079	-0.462058	0.885851
13448		-0.231101	-0.859231	-0.456415	0.972139	-0.222833	-0.072734	-0.039210	-0.460508	0.886789
13449		-0.242192	-0.857059	-0.454746	0.969517	-0.231734	-0.079604	-0.037154	-0.460163	0.887057
13450		-0.253230	-0.854139	-0.454225	0.966739	-0.240868	-0.086019	-0.035936	-0.460900	0.886724
13451		-0.264391	-0.850301	-0.455066	0.963750	-0.250476	-0.091912	-0.035830	-0.462871	0.885701
13452		-0.275776	-0.845529	-0.457197	0.960534	-0.260404	-0.097797	-0.036366	-0.466123	0.883972
13453		-0.287495	-0.840023	-0.460116	0.957052	-0.270705	-0.103776	-0.037382	-0.470191	0.881773
13454		-0.299283	-0.833817	-0.463875	0.953430	-0.280404	-0.111108	-0.037429	-0.475525	0.878906
13455		-0.311115	-0.827136	-0.468031	0.949709	-0.288984	-0.120589	-0.035510	-0.482010	0.875446
13456		-0.322567	-0.819949	-0.472899	0.946063	-0.295257	-0.133375	-0.030266	-0.490415	0.870964
13457		-0.333768	-0.812033	-0.478749	0.942383	-0.299645	-0.148755	-0.022661	-0.500814	0.865258
13458		-0.344705	-0.803609	-0.485170	0.938599	-0.303058	-0.164888	-0.014529	-0.512218	0.858732
13459		-0.355636	-0.794489	-0.492250	0.934592	-0.306691	-0.180217	-0.007788	-0.524145	0.851593
13460		-0.366628	-0.784533	-0.500091	0.930362	-0.310964	-0.194235	-0.003127	-0.536478	0.843909
13461		-0.378064	-0.773218	-0.509118	0.925779	-0.316496	-0.206795	-0.001237	-0.549512	0.835485
13462		-0.389810	-0.760284	-0.519630	0.920894	-0.322750	-0.218601	-0.001512	-0.563738	0.825953
13463		-0.401985	-0.745496	-0.531642	0.915641	-0.329267	-0.230619	-0.003127	-0.579498	0.814967
13464		-0.414329	-0.728994	-0.544885	0.910114	-0.335070	-0.243763	-0.004873	-0.596905	0.802297
13465		-0.426993	-0.710980	-0.558735	0.904241	-0.339122	-0.259507	-0.004975	-0.616039	0.787700
13466		-0.439880	-0.691858	-0.572572	0.898053	-0.340796	-0.278136	-0.002699	-0.636546	0.771234
13467		-0.453185	-0.671455	-0.586321	0.891414	-0.339760	-0.299907	0.002166	-0.658568	0.752518
13468		-0.466492	-0.650062	-0.599837	0.884470	-0.335191	-0.324593	0.009946	-0.681958	0.731324
13469		-0.479690	-0.627601	-0.613201	0.877240	-0.328171	-0.350363	0.018654	-0.705990	0.707976
13470		-0.492463	-0.604686	-0.625967	0.869900	-0.319279	-0.375945	0.027471	-0.729668	0.683250
13471		-0.505032	-0.581551	-0.637762	0.862421	-0.310700	-0.399620	0.034247	-0.751841	0.658455
13472		-0.517334	-0.558142	-0.648724	0.854961	-0.303843	-0.420383	0.037523	-0.772112	0.634378
13473		-0.529685	-0.533950	-0.659038	0.847417	-0.299868	-0.438137	0.036319	-0.790555	0.611313
13474		-0.541739	-0.509086	-0.668843	0.839971	-0.298445	-0.453187	0.031098	-0.807318	0.589297
13475		-0.553551	-0.483302	-0.678233	0.832485	-0.298194	-0.466957	0.023436	-0.823103	0.567408
13476		-0.564756	-0.457029	-0.687149	0.825142	-0.298797	-0.479438	0.013799	-0.837761	0.545862
13477		-0.575233	-0.430435	-0.695581	0.817978	-0.298161	-0.491947	0.004356	-0.851954	0.523598
13478		-0.584722	-0.404203	-0.703363	0.811229	-0.294194	-0.505329	-0.002670	-0.866066	0.499923
13479		-0.593078	-0.379194	-0.710261	0.805112	-0.287348	-0.518870	-0.007340	-0.879570	0.475713
13480		-0.600132	-0.355598	-0.716514	0.799824	-0.279194	-0.531349	-0.011100	-0.891964	0.451969
13481		-0.606303	-0.332905	-0.722199	0.795072	-0.272086	-0.542061	-0.016046	-0.902853	0.429649
13482		-0.611630	-0.311177	-0.727377	0.790795	-0.267771	-0.550402	-0.023498	-0.911848	0.409854
13483		-0.616431	-0.289869	-0.732113	0.786668	-0.267048	-0.556632	-0.034159	-0.919055	0.392647
13484		-0.620389	-0.268666	-0.736842	0.782841	-0.269292	-0.560929	-0.047723	-0.924825	0.377388
13485		-0.623596	-0.246611	-0.741830	0.779150	-0.273346	-0.564098	-0.063663	-0.929766	0.362604
13486		-0.626137	-0.224633	-0.746654	0.775595	-0.277727	-0.566851	-0.080032	-0.934028	0.348119
13487		-0.628114	-0.203131	-0.751139	0.772249	-0.281106	-0.569747	-0.095417	-0.937932	0.333434
13488		-0.629346	-0.182751	-0.755331	0.769568	-0.281782	-0.573031	-0.108117	-0.941913	0.317978
13489		-0.629936	-0.163798	-0.759177	0.767646	-0.279705	-0.576615	-0.117898	-0.946010	0.301935
13490		-0.629722	-0.146666	-0.762849	0.766746	-0.274992	-0.580069	-0.124701	-0.950194	0.285624
13491		-0.628889	-0.130876	-0.766401	0.766518	-0.269421	-0.582977	-0.130187	-0.954088	0.269755
13492		-0.627417	-0.116470	-0.769924	0.766766	-0.264734	-0.584796	-0.135714	-0.957262	0.255404
13493		-0.625553	-0.102900	-0.773366	0.767073	-0.262069	-0.585593	-0.142418	-0.959547	0.242870
13494		-0.623294	-0.090104	-0.776780	0.767346	-0.261797	-0.585357	-0.150616	-0.960908	0.232317
13495		-0.620550	-0.077624	-0.780316	0.767536	-0.263976	-0.584127	-0.160642	-0.961401	0.223389
13496		-0.616953	-0.065573	-0.784264	0.768094	-0.267289	-0.581884	-0.171469	-0.961383	0.215270
13497		-0.612426	-0.054232	-0.788665	0.769349	-0.270266	-0.578842	-0.181757	-0.961257	0.207242
13498		-0.606773	-0.043997	-0.793656	0.771423	-0.273340	-0.574623	-0.191656	-0.960911	0.199796
13499		-0.599995	-0.034642	-0.799253	0.774410	-0.275835	-0.569390	-0.200737	-0.960581	0.192327
13500		-0.591974	-0.026423	-0.805524	0.778583	-0.277019	-0.563089	-0.208267	-0.960501	0.184561
13501		-0.582785	-0.019402	-0.812395	0.783748	-0.277565	-0.555605	-0.214712	-0.960511	0.176967
13502		-0.572334	-0.013377	-0.819911	0.789857	-0.277683	-0.546825	-0.220361	-0.960580	0.169493
13503		-0.560602	-0.008362	-0.828043	0.796802	-0.277697	-0.536647	-0.225457	-0.960632	0.162340
13504		-0.547437	-0.003915	-0.836838	0.804631	-0.277254	-0.525071	-0.229961	-0.960789	0.154929
13505		-0.533093	0.000422	-0.846056	0.813148	-0.275934	-0.512495	-0.233672	-0.961176	0.146756
13506		-0.518114	0.003894	-0.855303	0.821921	-0.274412	-0.499142	-0.236649	-0.961604	0.138976
13507		-0.502276	0.006963	-0.864679	0.830865	-0.273128	-0.484834	-0.239544	-0.961952	0.131400
13508		-0.485509	0.009507	-0.874180	0.840253	-0.270995	-0.469614	-0.241363	-0.962534	0.123582
13509		-0.468101	0.011360	-0.883602	0.849967	-0.267749	-0.453725	-0.241738	-0.963422	0.115678
13510		-0.450017	0.012643	-0.892930	0.859690	-0.264491	-0.437010	-0.241697	-0.964305	0.108157
13511		-0.431272	0.013780	-0.902117	0.869455	-0.260673	-0.419640	-0.240940	-0.965329	0.100440
13512		-0.412005	0.014504	-0.911066	0.879186	-0.256308	-0.401669	-0.239339	-0.966486	0.092849
13513		-0.392393	0.015358	-0.919670	0.888893	-0.250673	-0.383448	-0.236425	-0.967950	0.084711
13514		-0.372673	0.015902	-0.927826	0.898255	-0.244786	-0.364991	-0.232923	-0.969447	0.076941
13515		-0.352321	0.016388	-0.935736	0.907522	-0.238280	-0.345871	-0.228635	-0.971058	0.069078
13516		-0.331421	0.016909	-0.943331	0.916899	-0.229898	-0.326256	-0.222387	-0.973068	0.060689
13517		-0.309993	0.017096	-0.950585	0.926195	-0.220286	-0.306001	-0.214632	-0.975286	0.052453
13518		-0.288024	0.016840	-0.957475	0.934936	-0.211405	-0.284962	-0.207214	-0.977253	0.045146
13519		-0.265249	0.016669	-0.964036	0.943267	-0.202627	-0.263038	-0.199724	-0.979114	0.038024
13520		-0.241739	0.016635	-0.970199	0.951036	-0.194388	-0.240298	-0.192592	-0.980784	0.031171
13521		-0.217243	0.017583	-0.975959	0.958016	-0.187820	-0.216633	-0.187114	-0.982046	0.023958
13522		-0.192479	0.018541	-0.981126	0.965068	-0.177531	-0.192683	-0.177753	-0.983940	0.016277
13523		-0.167498	0.018011	-0.985708	0.971825	-0.165165	-0.168157	-0.165833	-0.986102	0.010161
13524		-0.142154	0.017072	-0.989697	0.977859	-0.152698	-0.143088	-0.153568	-0.988125	0.005013
13525		-0.116013	0.016026	-0.993118	0.983406	-0.138552	-0.117114	-0.139476	-0.990225	0.000314
13526		-0.089356	0.015286	-0.995882	0.988399	-0.121929	-0.090556	-0.122812	-0.992421	-0.004214
13527		-0.062750	0.013275	-0.997941	0.992671	-0.102646	-0.063784	-0.103281	-0.994629	-0.006736
13528		-0.036429	0.010075	-0.999285	0.995880	-0.082728	-0.037139	-0.083043	-0.996521	-0.007019
13529		-0.010042	0.005859	-0.999932	0.997939	-0.063330	-0.010393	-0.063387	-0.997975	-0.005211
13530		0.016278	0.001115	-0.999867	0.998840	-0.045347	0.016211	-0.045323	-0.998971	-0.001852
13531		0.042304	-0.003775	-0.999098	0.998660	-0.029664	0.042398	-0.029797	-0.999553	0.002515
13532		0.067495	-0.009261	-0.997677	0.997574	-0.016474	0.067641	-0.017063	-0.999821	0.008126
13533		0.091825	-0.015391	-0.995656	0.995746	-0.006189	0.091929	-0.007577	-0.999862	0.014757
13534		0.114897	-0.022213	-0.993129	0.993377	0.001396	0.114894	-0.001166	-0.999752	0.022226
13535		0.136936	-0.030064	-0.990124	0.990577	0.006502	0.136801	0.002325	-0.999527	0.030672
13536		0.158054	-0.038346	-0.986686	0.987420	0.010696	0.157756	0.004505	-0.999207	0.039554
13537		0.178529	-0.047145	-0.982805	0.983912	0.015404	0.177991	0.006748	-0.998769	0.049137
13538		0.198108	-0.056572	-0.978546	0.980132	0.021369	0.197194	0.009755	-0.998170	0.059682
13539		0.216794	-0.066687	-0.973937	0.976136	0.027652	0.215391	0.012568	-0.997391	0.071090
13540		0.234147	-0.076918	-0.969154	0.972083	0.034055	0.232152	0.015148	-0.996456	0.082744
13541		0.249801	-0.087412	-0.964344	0.968155	0.039590	0.247200	0.016570	-0.995385	0.094518
13542		0.263830	-0.098191	-0.959558	0.964431	0.043703	0.260698	0.016338	-0.994207	0.106229
13543		0.276557	-0.108640	-0.954837	0.960881	0.046729	0.272991	0.014961	-0.992982	0.117313
13544		0.288067	-0.118652	-0.950231	0.957529	0.048623	0.284208	0.012482	-0.991745	0.127619
13545		0.298765	-0.128481	-0.945638	0.954285	0.049493	0.294773	0.008929	-0.990476	0.137395
13546		0.308757	-0.137830	-0.941102	0.951131	0.049226	0.304838	0.004310	-0.989232	0.146293
13547		0.318299	-0.146798	-0.936555	0.947990	0.049232	0.314469	-0.000055	-0.987941	0.154833
13548		0.327526	-0.155000	-0.932042	0.944833	0.049478	0.323793	-0.004072	-0.986675	0.162654
13549		0.336817	-0.161873	-0.927551	0.941540	0.049945	0.333180	-0.007606	-0.985547	0.169232
13550		0.345840	-0.167240	-0.923269	0.938234	0.050580	0.342284	-0.010545	-0.984618	0.174403
13551		0.354510	-0.171352	-0.919218	0.934955	0.050792	0.351111	-0.013475	-0.983900	0.178213
13552		0.362632	-0.173979	-0.915549	0.931766	0.049146	0.359716	-0.017588	-0.983522	0.179930
13553		0.369877	-0.174730	-0.912502	0.928797	0.045286	0.367811	-0.022944	-0.983574	0.179039
13554		0.375967	-0.174328	-0.910087	0.926131	0.038360	0.375247	-0.030505	-0.983940	0.175872
13555		0.381242	-0.171986	-0.908337	0.923649	0.029340	0.382114	-0.039068	-0.984662	0.170041
13556		0.385334	-0.167684	-0.907414	0.921610	0.020480	0.387577	-0.046406	-0.985628	0.162431
13557		0.388253	-0.162432	-0.907125	0.920058	0.012276	0.391590	-0.052471	-0.986643	0.154213
13558		0.389861	-0.156035	-0.907558	0.919072	0.004318	0.394065	-0.057569	-0.987742	0.145091
13559		0.390232	-0.148819	-0.908610	0.918644	-0.003236	0.395072	-0.061734	-0.988859	0.135449
13560		0.389484	-0.140647	-0.910231	0.918736	-0.010433	0.394735	-0.065015	-0.990005	0.125154
13561		0.387621	-0.131987	-0.912321	0.919363	-0.016838	0.393049	-0.067239	-0.991108	0.114818
13562		0.384937	-0.123021	-0.914707	0.920401	-0.022343	0.390338	-0.068457	-0.992153	0.104628
13563		0.381625	-0.113527	-0.917319	0.921821	-0.026139	0.386733	-0.067882	-0.993191	0.094676
13564		0.378123	-0.104174	-0.919875	0.923472	-0.027302	0.382693	-0.064981	-0.994184	0.085878
13565		0.374595	-0.094276	-0.922383	0.925254	-0.026229	0.378441	-0.059871	-0.995201	0.077403
13566		0.370981	-0.084658	-0.924774	0.927058	-0.024355	0.374127	-0.054196	-0.996112	0.069447
13567		0.367424	-0.074720	-0.927047	0.928731	-0.023661	0.369998	-0.049581	-0.996924	0.060701
13568		0.363977	-0.064966	-0.929139	0.930250	-0.024361	0.366116	-0.046420	-0.997590	0.051568
13569		0.360554	-0.055140	-0.931107	0.931727	-0.025174	0.362285	-0.043416	-0.998161	0.042299
13570		0.357011	-0.045391	-0.932997	0.933238	-0.025571	0.358347	-0.040123	-0.998642	0.033231
13571		0.353411	-0.035636	-0.934789	0.934769	-0.025169	0.354363	-0.036156	-0.999048	0.024416
13572		0.349638	-0.025978	-0.936525	0.936380	-0.023137	0.350225	-0.030767	-0.999395	0.016236
13573		0.345827	-0.016555	-0.938152	0.937964	-0.020582	0.346121	-0.025039	-0.999651	0.008410
13574		0.341651	-0.007049	-0.939800	0.939619	-0.018485	0.341724	-0.019781	-0.999804	0.000308
13575		0.337038	0.001897	-0.941489	0.941374	-0.016452	0.336964	-0.014850	-0.999863	-0.007330
13576		0.332037	0.010392	-0.943209	0.943214	-0.014196	0.331882	-0.009940	-0.999845	-0.014515
13577		0.326562	0.018739	-0.944990	0.945166	-0.010923	0.326406	-0.004205	-0.999765	-0.021278
13578		0.320705	0.026724	-0.946802	0.947175	-0.006255	0.320655	0.002646	-0.999623	-0.027318
13579		0.314627	0.034677	-0.948582	0.949165	-0.001194	0.314777	0.009783	-0.999398	-0.033290
13580		0.308490	0.042202	-0.950291	0.951064	0.004837	0.308956	0.017636	-0.999097	-0.038645
13581		0.302257	0.048877	-0.951973	0.952875	0.011616	0.303140	0.025874	-0.998737	-0.043063
13582		0.295949	0.054367	-0.953655	0.954594	0.018828	0.297314	0.034120	-0.998343	-0.046327
13583		0.289587	0.058512	-0.955361	0.956259	0.025407	0.291416	0.041324	-0.997963	-0.048595
13584		0.283247	0.061637	-0.957064	0.957910	0.030406	0.285455	0.046696	-0.997635	-0.050430
13585		0.276831	0.063803	-0.958798	0.959590	0.034097	0.279328	0.050514	-0.997380	-0.051785
13586		0.270382	0.065460	-0.960525	0.961330	0.035864	0.273053	0.052322	-0.997210	-0.053232
13587		0.263648	0.067107	-0.962282	0.963189	0.035980	0.266406	0.052500	-0.997097	-0.055150
13588		0.256664	0.068446	-0.964074	0.965128	0.034991	0.259429	0.051491	-0.997041	-0.057078
13589		0.249516	0.069400	-0.965881	0.967102	0.033175	0.252215	0.049547	-0.997037	-0.058840
13590		0.242484	0.069954	-0.967630	0.969019	0.030806	0.245059	0.046951	-0.997074	-0.060317
13591		0.235660	0.069798	-0.969326	0.970836	0.028309	0.238066	0.044058	-0.997159	-0.061091
13592		0.229228	0.068916	-0.970930	0.972497	0.026091	0.231449	0.041284	-0.997281	-0.061040
13593		0.223066	0.067275	-0.972479	0.974036	0.024195	0.225097	0.038673	-0.997441	-0.060131
13594		0.217165	0.065562	-0.973931	0.975471	0.022210	0.219003	0.035989	-0.997601	-0.059131
13595		0.211366	0.063737	-0.975327	0.976855	0.019753	0.212988	0.032840	-0.997771	-0.058087
13596		0.205941	0.061750	-0.976614	0.978157	0.015814	0.207267	0.028243	-0.997966	-0.057144
13597		0.200996	0.060027	-0.977751	0.979349	0.009914	0.201933	0.021815	-0.998148	-0.056794
13598		0.196900	0.058838	-0.978656	0.980332	0.001818	0.197346	0.013391	-0.998266	-0.057323
13599		0.193461	0.057501	-0.979422	0.981100	-0.007200	0.193369	0.004068	-0.998319	-0.057807
13600		0.190445	0.055966	-0.980101	0.981685	-0.015916	0.189844	-0.004975	-0.998306	-0.057972
13601		0.187415	0.053704	-0.980812	0.982188	-0.023985	0.186365	-0.013516	-0.998269	-0.057243
13602		0.184299	0.050908	-0.981551	0.982642	-0.031075	0.182892	-0.021191	-0.998220	-0.055752
13603		0.180984	0.048582	-0.982285	0.983091	-0.037246	0.179291	-0.027876	-0.998124	-0.054502
13604		0.177564	0.047239	-0.982975	0.983543	-0.042383	0.175630	-0.033365	-0.997984	-0.053987
13605		0.173949	0.046130	-0.983674	0.984063	-0.045581	0.171880	-0.036908	-0.997895	-0.053323
13606		0.171263	0.041818	-0.984337	0.984428	-0.047441	0.169263	-0.039619	-0.997998	-0.049291
13607		0.168778	0.037447	-0.984943	0.984994	-0.042973	0.167153	-0.036066	-0.998374	-0.044138
13608		0.165499	0.034865	-0.985593	0.985613	-0.040601	0.164066	-0.034296	-0.998567	-0.041083
13609		0.161786	0.033181	-0.986268	0.986124	-0.043129	0.160312	-0.037217	-0.998518	-0.039698
13610		0.156797	0.029084	-0.987202	0.987050	-0.038877	0.155628	-0.033853	-0.998821	-0.034803
13611		0.152377	0.028587	-0.987909	0.987998	-0.030016	0.151523	-0.025321	-0.999141	-0.032817
13612		0.148460	0.029315	-0.988484	0.988610	-0.029367	0.147608	-0.024702	-0.999139	-0.033341
13613		0.144186	0.029527	-0.989110	0.989155	-0.032573	0.143220	-0.027989	-0.999033	-0.033904
13614		0.139077	0.030268	-0.989819	0.989900	-0.031999	0.138110	-0.027492	-0.999029	-0.034413
13615		0.133324	0.031294	-0.990578	0.990684	-0.032178	0.132322	-0.027734	-0.998992	-0.035292
13616		0.127141	0.032833	-0.991341	0.991424	-0.034668	0.126003	-0.030231	-0.998859	-0.036959
13617		0.120701	0.034692	-0.992083	0.992206	-0.035372	0.119479	-0.030947	-0.998772	-0.038691
13618		0.114606	0.035865	-0.992763	0.993044	-0.031310	0.113507	-0.027012	-0.998866	-0.039204
13619		0.109184	0.036795	-0.993340	0.993841	-0.023110	0.108383	-0.018968	-0.999056	-0.039092
13620		0.104495	0.037486	-0.993819	0.994497	-0.011535	0.104132	-0.007560	-0.999231	-0.038485
13621		0.100562	0.037725	-0.994215	0.994917	0.001348	0.100685	0.005139	-0.999287	-0.037397
13622		0.097212	0.037732	-0.994548	0.995144	0.011780	0.097718	0.015402	-0.999218	-0.036404
13623		0.094266	0.037685	-0.994834	0.995300	0.018708	0.095019	0.022192	-0.999115	-0.035744
13624		0.091852	0.038132	-0.995042	0.995474	0.020969	0.092695	0.024400	-0.999053	-0.036034
13625		0.089782	0.038817	-0.995205	0.995734	0.017854	0.090526	0.021283	-0.999087	-0.037048
13626		0.088437	0.040442	-0.995260	0.995973	0.011172	0.088954	0.014716	-0.999119	-0.039291
13627		0.087926	0.041711	-0.995253	0.996094	0.004471	0.088188	0.008128	-0.999120	-0.041155
13628		0.088577	0.042927	-0.995144	0.996067	-0.001586	0.088591	0.002225	-0.999077	-0.042898
13629		0.090103	0.044221	-0.994950	0.995931	-0.005886	0.089930	-0.001880	-0.999004	-0.044571
13630		0.092378	0.045577	-0.994680	0.995719	-0.007512	0.092130	-0.003273	-0.998933	-0.046076
13631		0.095367	0.046946	-0.994335	0.995441	-0.006063	0.095187	-0.001560	-0.998879	-0.047311
13632		0.099241	0.048295	-0.993891	0.995061	-0.002443	0.099239	0.002364	-0.998830	-0.048299
13633		0.103813	0.049839	-0.993347	0.994571	0.002047	0.104043	0.007219	-0.998755	-0.049356
13634		0.109137	0.051880	-0.992672	0.993958	0.006079	0.109596	0.011720	-0.998635	-0.050904
13635		0.115113	0.054222	-0.991871	0.993255	0.007709	0.115695	0.013920	-0.998499	-0.052969
13636		0.121891	0.057197	-0.990894	0.992441	0.007341	0.122505	0.014281	-0.998336	-0.055869
13637		0.129452	0.060268	-0.989752	0.991506	0.004752	0.129971	0.012537	-0.998171	-0.059140
13638		0.138034	0.063806	-0.988370	0.990392	-0.000472	0.138286	0.008357	-0.997962	-0.063258
13639		0.147565	0.067702	-0.986732	0.989050	-0.007770	0.147378	0.002311	-0.997675	-0.068107
13640		0.158319	0.071852	-0.984770	0.987376	-0.016520	0.157532	-0.004949	-0.997279	-0.073560
13641		0.170367	0.076846	-0.982380	0.985266	-0.028493	0.168638	-0.015032	-0.996636	-0.080568
13642		0.184010	0.082390	-0.979465	0.982574	-0.042032	0.181058	-0.026251	-0.995713	-0.088688
13643		0.198649	0.087110	-0.976192	0.979383	-0.054953	0.194394	-0.036711	-0.994682	-0.096230
13644		0.214085	0.091761	-0.972495	0.975723	-0.067142	0.208461	-0.046167	-0.993515	-0.103908
13645		0.229701	0.097027	-0.968413	0.971767	-0.077975	0.222684	-0.053906	-0.992223	-0.112198
13646		0.245363	0.102609	-0.963986	0.967685	-0.085585	0.237195	-0.058164	-0.991033	-0.120293
13647		0.260183	0.107899	-0.959512	0.963893	-0.087385	0.251544	-0.056705	-0.990314	-0.126739
13648		0.273814	0.112304	-0.955203	0.960430	-0.084583	0.265368	-0.050992	-0.990067	-0.131020
13649		0.285705	0.115283	-0.951358	0.957381	-0.078212	0.278036	-0.042355	-0.990249	-0.132715
13650		0.295702	0.119787	-0.947740	0.954702	-0.071577	0.288827	-0.033239	-0.990216	-0.135527
13651		0.302933	0.124869	-0.944796	0.952562	-0.070131	0.296154	-0.029279	-0.989692	-0.140191
13652		0.308602	0.132046	-0.941981	0.950754	-0.072856	0.301263	-0.028848	-0.988562	-0.148027
13653		0.312738	0.138240	-0.939726	0.949289	-0.079179	0.304272	-0.032344	-0.987229	-0.155992
13654		0.315458	0.143426	-0.938038	0.948266	-0.084879	0.305920	-0.035742	-0.986014	-0.162782
13655		0.316107	0.147453	-0.937195	0.947924	-0.089645	0.305621	-0.038950	-0.984998	-0.168111
13656		0.313984	0.151089	-0.937329	0.948589	-0.091437	0.303016	-0.039924	-0.984282	-0.172031
13657		0.307528	0.152967	-0.939163	0.950896	-0.085670	0.297417	-0.034964	-0.984511	-0.171802
13658		0.296774	0.152545	-0.942685	0.954616	-0.073417	0.288650	-0.025177	-0.985566	-0.167410
13659		0.282899	0.150462	-0.947275	0.959033	-0.059763	0.276918	-0.014947	-0.986808	-0.161205
13660		0.267016	0.147446	-0.952346	0.963678	-0.046187	0.263042	-0.005201	-0.987991	-0.154423
13661		0.249882	0.143312	-0.957612	0.968263	-0.031837	0.247897	0.005039	-0.989165	-0.146720
13662		0.232684	0.138006	-0.962711	0.972402	-0.015631	0.232786	0.017078	-0.990308	-0.137835
13663		0.216977	0.130440	-0.967423	0.975679	0.002674	0.219189	0.031178	-0.991453	-0.126688
13664		0.202928	0.122055	-0.971557	0.978193	0.019564	0.206772	0.044245	-0.992331	-0.115423
13665		0.189261	0.116555	-0.974985	0.980505	0.030987	0.194037	0.052828	-0.992701	-0.108418
13666		0.174094	0.115590	-0.977921	0.983535	0.028480	0.178460	0.048479	-0.992889	-0.108729
13667		0.158945	0.109737	-0.981170	0.986529	0.021291	0.162195	0.038689	-0.993733	-0.104874
13668		0.150525	0.095643	-0.983969	0.986570	0.049318	0.155716	0.063420	-0.994193	-0.086935
13669		0.151056	0.078682	-0.985389	0.986971	0.043872	0.154801	0.055411	-0.995934	-0.071030
13670		0.157722	0.065288	-0.985323	0.986721	0.028778	0.159853	0.038793	-0.997451	-0.059882
13671		0.166663	0.051547	-0.984666	0.985938	0.003663	0.167071	0.012219	-0.998664	-0.050212
13672		0.175554	0.037341	-0.983761	0.984285	-0.026040	0.174659	-0.019095	-0.998963	-0.041325
13673		0.183548	0.021761	-0.982770	0.981999	-0.049406	0.182310	-0.044587	-0.998542	-0.030437
13674		0.188340	0.004112	-0.982095	0.979588	-0.072314	0.187556	-0.070248	-0.997373	-0.017647
13675		0.188654	-0.016240	-0.981909	0.978531	-0.081383	0.189351	-0.082986	-0.996551	0.000538
13676		0.185419	-0.038183	-0.981918	0.978809	-0.081193	0.187989	-0.086903	-0.995967	0.022319
13677		0.178850	-0.060619	-0.982007	0.980537	-0.071186	0.182977	-0.080997	-0.995619	0.046707
13678		0.169227	-0.082679	-0.982103	0.983012	-0.057683	0.174240	-0.071056	-0.994905	0.071513
13679		0.158088	-0.103678	-0.981967	0.985705	-0.042106	0.163135	-0.058260	-0.993719	0.095539
13680		0.147035	-0.123053	-0.981447	0.987958	-0.030055	0.151778	-0.048175	-0.991945	0.117152
13681		0.136581	-0.144573	-0.980023	0.989713	-0.022615	0.141268	-0.042587	-0.989236	0.139997
13682		0.127614	-0.166830	-0.977692	0.990982	-0.019160	0.132618	-0.040857	-0.985799	0.162881
13683		0.121179	-0.189084	-0.974455	0.991574	-0.022225	0.127620	-0.045788	-0.981709	0.184798
13684		0.117835	-0.210882	-0.970383	0.991337	-0.032116	0.127359	-0.058022	-0.976984	0.205270
13685		0.118104	-0.230606	-0.965853	0.990293	-0.044430	0.131701	-0.073284	-0.972032	0.223120
13686		0.123060	-0.248308	-0.960833	0.988235	-0.057944	0.141544	-0.090821	-0.966946	0.238256
13687		0.133209	-0.265165	-0.954957	0.984582	-0.074817	0.158116	-0.113373	-0.961296	0.251110
13688		0.149753	-0.282789	-0.947420	0.977530	-0.101435	0.184789	-0.148358	-0.953804	0.261245
13689		0.173743	-0.301952	-0.937357	0.962417	-0.149679	0.226604	-0.208726	-0.941500	0.264598
13690		0.203428	-0.317908	-0.926041	0.936169	-0.213812	0.279054	-0.286713	-0.923698	0.254120
13691		0.237154	-0.331437	-0.913185	0.908464	-0.257356	0.329334	-0.344168	-0.907699	0.240066
13692		0.273892	-0.329568	-0.903531	0.878252	-0.297194	0.374633	-0.391991	-0.896136	0.208045
13693		0.306072	-0.318403	-0.897184	0.850872	-0.331213	0.407817	-0.427009	-0.888211	0.169545
13694		0.331653	-0.303804	-0.893146	0.843270	-0.328995	0.425040	-0.422969	-0.894129	0.147076
13695		0.346325	-0.294250	-0.890772	0.844025	-0.316739	0.432779	-0.409488	-0.901717	0.138660
13696		0.360075	-0.284293	-0.888551	0.851030	-0.290122	0.437695	-0.382222	-0.913787	0.137476
13697		0.372073	-0.278815	-0.885338	0.859010	-0.257929	0.442237	-0.351657	-0.925059	0.143536
13698		0.382130	-0.290684	-0.877200	0.868138	-0.212415	0.448572	-0.316723	-0.932943	0.171184
13699		0.378902	-0.286744	-0.879892	0.889332	-0.150161	0.431903	-0.255971	-0.946166	0.198115
13700		0.370588	-0.322446	-0.871030	0.882390	-0.170501	0.438539	-0.289917	-0.931106	0.221338
13701		0.381754	-0.324098	-0.865577	0.863327	-0.209380	0.459159	-0.330047	-0.922562	0.199871
13702		0.392788	-0.319909	-0.862193	0.852033	-0.226207	0.472092	-0.346060	-0.920048	0.183721
13703		0.385242	-0.315860	-0.867076	0.848026	-0.249370	0.467619	-0.363924	-0.915449	0.171789
13705		0.338799	-0.292057	-0.894381	0.873399	-0.255836	0.414393	-0.349841	-0.921548	0.168405
13706		0.304529	-0.281287	-0.910022	0.890645	-0.254595	0.376740	-0.337659	-0.925235	0.172995
13707		0.274405	-0.264166	-0.924618	0.907457	-0.246993	0.339878	-0.318158	-0.932315	0.171943
13708		0.249670	-0.260085	-0.932749	0.919665	-0.237842	0.312486	-0.303120	-0.935835	0.179809
13709		0.222744	-0.267977	-0.937322	0.928571	-0.234485	0.287703	-0.296886	-0.934454	0.196606
13710		0.198274	-0.262733	-0.944277	0.939227	-0.224534	0.259687	-0.280250	-0.938379	0.202247
13711		0.171510	-0.257560	-0.950919	0.949355	-0.214726	0.229387	-0.263268	-0.942102	0.207688
13713		0.126184	-0.249746	-0.960054	0.968677	-0.177631	0.173526	-0.213873	-0.951879	0.219509
13714		0.119546	-0.238743	-0.963696	0.973105	-0.164340	0.161427	-0.196913	-0.957076	0.212676
13715		0.122182	-0.214869	-0.968970	0.979455	-0.131712	0.152711	-0.160437	-0.967721	0.194362
13716		0.129507	-0.186028	-0.973972	0.985759	-0.082106	0.146756	-0.107270	-0.979108	0.172745
13717		0.139285	-0.157167	-0.977701	0.987974	-0.044885	0.147963	-0.067139	-0.986552	0.149025
13718		0.151866	-0.134506	-0.979206	0.987760	-0.015032	0.155257	-0.035602	-0.990799	0.130577
13719		0.166392	-0.113471	-0.979509	0.985582	-0.011766	0.168786	-0.030677	-0.993472	0.109877
13720		0.183474	-0.088429	-0.979039	0.982157	-0.025356	0.186348	-0.041303	-0.995760	0.082199
13721		0.202142	-0.063579	-0.977290	0.977995	-0.039485	0.204857	-0.051613	-0.997195	0.054199
13722		0.221571	-0.042340	-0.974225	0.973767	-0.043480	0.223356	-0.051816	-0.998157	0.031596
13723		0.241269	-0.021088	-0.970229	0.969375	-0.041978	0.241969	-0.045831	-0.998896	0.010315
13724		0.260926	0.000877	-0.965358	0.964796	-0.034384	0.260742	-0.032965	-0.999408	-0.009818
13725		0.279973	0.023118	-0.959729	0.959865	-0.023992	0.279435	-0.016566	-0.999445	-0.028908
13726		0.297963	0.045742	-0.953481	0.954577	-0.014010	0.297634	0.000257	-0.998855	-0.047839
13727		0.314450	0.068556	-0.946795	0.949170	-0.007935	0.314664	0.014059	-0.997616	-0.067567
13728		0.327738	0.089401	-0.940529	0.944576	-0.010888	0.328113	0.019093	-0.995936	-0.088014
13729		0.336663	0.105235	-0.935726	0.941397	-0.015737	0.336934	0.020732	-0.994323	-0.104366
13730		0.343102	0.115228	-0.932204	0.939082	-0.020783	0.343064	0.020157	-0.993122	-0.115339
13731		0.347572	0.121441	-0.929756	0.937525	-0.028622	0.346738	0.015497	-0.992186	-0.123802
13732		0.349883	0.128118	-0.927991	0.936784	-0.043464	0.347197	0.004148	-0.990806	-0.135226
13733		0.350803	0.133971	-0.926817	0.936421	-0.057898	0.346069	-0.007297	-0.989293	-0.145764
13734		0.351096	0.137398	-0.926204	0.936199	-0.068648	0.344701	-0.016221	-0.988134	-0.152734
13735		0.353788	0.137087	-0.925225	0.934607	-0.090587	0.343954	-0.036662	-0.986408	-0.160171
13736		0.366235	0.157116	-0.917162	0.929893	-0.098029	0.354526	-0.034207	-0.982703	-0.182003
13737		0.385206	0.176577	-0.905780	0.922665	-0.092283	0.374397	-0.017478	-0.979951	-0.198469
13738		0.397241	0.167553	-0.902289	0.917560	-0.054467	0.393850	0.016845	-0.984357	-0.175376
13739		0.400917	0.185808	-0.897074	0.914924	-0.031297	0.402412	0.046696	-0.982088	-0.182548
13740		0.404039	0.195476	-0.893612	0.914725	-0.092237	0.393409	-0.005522	-0.976361	-0.216074
13741		0.400739	0.202249	-0.893590	0.915682	-0.120963	0.383269	-0.030576	-0.971835	-0.233670
13742		0.395729	0.219500	-0.891750	0.917562	-0.135154	0.373916	-0.038449	-0.966206	-0.254889
13743		0.396446	0.219728	-0.891375	0.917818	-0.117072	0.379348	-0.021001	-0.968511	-0.248083
13744		0.405970	0.218204	-0.887455	0.913774	-0.112161	0.390432	-0.014344	-0.969436	-0.244923
13745		0.416078	0.209889	-0.884774	0.909141	-0.115808	0.400064	-0.018495	-0.970842	-0.239004
13746		0.424559	0.207201	-0.881373	0.905102	-0.122129	0.407278	-0.023252	-0.970645	-0.239389
13747		0.423505	0.202416	-0.882990	0.905765	-0.111057	0.408970	-0.015280	-0.972982	-0.230375
13748		0.412696	0.201377	-0.888330	0.910863	-0.094698	0.401697	-0.003230	-0.974925	-0.222509
13749		0.394501	0.201533	-0.896523	0.918622	-0.062682	0.390135	0.022429	-0.977474	-0.209860
13750		0.373004	0.202255	-0.905517	0.926404	-0.027096	0.375555	0.051422	-0.978958	-0.197476
13751		0.354103	0.192763	-0.915125	0.932326	0.003972	0.361596	0.073337	-0.981237	-0.178311
13752		0.339110	0.175261	-0.924277	0.937507	0.018512	0.347474	0.078009	-0.984348	-0.158031
13753		0.322238	0.162396	-0.932625	0.944499	0.011361	0.328319	0.063913	-0.986660	-0.149722
13754		0.304627	0.147062	-0.941050	0.950522	0.016252	0.310233	0.060917	-0.988994	-0.134835
13755		0.289819	0.129979	-0.948214	0.954411	0.034702	0.296470	0.071440	-0.990909	-0.113996
13756		0.280459	0.109146	-0.953640	0.957779	0.033662	0.285528	0.063266	-0.993456	-0.095097
13757		0.275500	0.094977	-0.956598	0.960379	0.016386	0.278215	0.042099	-0.995345	-0.086700
13758		0.274425	0.081896	-0.958115	0.961443	-0.004887	0.274961	0.017836	-0.996629	-0.080079
13759		0.273304	0.064494	-0.959763	0.961809	-0.033987	0.271602	-0.015102	-0.997339	-0.071319
13760		0.269898	0.043818	-0.961891	0.961910	-0.057304	0.267293	-0.043408	-0.997395	-0.057615
13761		0.262834	0.021662	-0.964598	0.962659	-0.073088	0.260664	-0.064854	-0.997090	-0.040063
13762		0.253075	-0.004314	-0.967437	0.964723	-0.073862	0.252695	-0.072547	-0.997259	-0.014531
