// Start Time: Unknown
// Update Rate: 100.0Hz
// Filter Profile: human (46.1)
// Option Flags: AHS Disabled ICC Disabled 
// Firmware Version: 4.0.2
PacketCounter	SampleTimeFine	Mat[1][1]	Mat[2][1]	Mat[3][1]	Mat[1][2]	Mat[2][2]	Mat[3][2]	Mat[1][3]	Mat[2][3]	Mat[3][3]
12704		0.011872	0.078620	-0.996834	-0.519803	-0.851134	-0.073319	-0.854203	0.519028	0.030762
12705		0.012029	0.079033	-0.996799	-0.518529	-0.851869	-0.073799	-0.854975	0.517757	0.030734
12706		0.012055	0.079397	-0.996770	-0.517259	-0.852609	-0.074169	-0.855744	0.516482	0.030790
12707		0.011922	0.079742	-0.996744	-0.516327	-0.853151	-0.074430	-0.856309	0.515533	0.031001
12708		0.011794	0.080070	-0.996719	-0.515717	-0.853499	-0.074667	-0.856678	0.514906	0.031227
12709		0.011664	0.080216	-0.996709	-0.515298	-0.853746	-0.074741	-0.856932	0.514474	0.031377
12710		0.011364	0.080254	-0.996710	-0.515218	-0.853804	-0.074622	-0.856984	0.514371	0.031645
12711		0.011001	0.080175	-0.996720	-0.515432	-0.853698	-0.074360	-0.856860	0.514560	0.031934
12712		0.010669	0.079947	-0.996742	-0.515897	-0.853450	-0.073975	-0.856584	0.515006	0.032139
12713		0.010399	0.079638	-0.996770	-0.516491	-0.853128	-0.073550	-0.856229	0.515588	0.032261
12714		0.010068	0.079360	-0.996795	-0.517150	-0.852766	-0.073117	-0.855836	0.516229	0.032455
12715		0.009693	0.079142	-0.996816	-0.517692	-0.852471	-0.072716	-0.855512	0.516749	0.032708
12716		0.009234	0.078935	-0.996837	-0.518186	-0.852208	-0.072283	-0.855218	0.517215	0.033034
12717		0.008830	0.078687	-0.996860	-0.518556	-0.852020	-0.071848	-0.854998	0.517562	0.033281
12718		0.008451	0.078346	-0.996890	-0.518708	-0.851968	-0.071354	-0.854909	0.517698	0.033439
12719		0.008094	0.077976	-0.996922	-0.518626	-0.852060	-0.070856	-0.854963	0.517604	0.033544
12720		0.007731	0.077640	-0.996951	-0.518243	-0.852331	-0.070396	-0.855198	0.517208	0.033647
12721		0.007376	0.077164	-0.996991	-0.517710	-0.852702	-0.069827	-0.855524	0.516667	0.033659
12722		0.007047	0.076513	-0.997044	-0.517082	-0.853140	-0.069124	-0.855907	0.516041	0.033552
12723		0.006628	0.075914	-0.997092	-0.516467	-0.853570	-0.068420	-0.856282	0.515418	0.033549
12724		0.006103	0.075591	-0.997120	-0.516235	-0.853753	-0.067882	-0.856425	0.515162	0.033812
12725		0.005654	0.075391	-0.997138	-0.516286	-0.853754	-0.067478	-0.856397	0.515190	0.034097
12726		0.005321	0.075344	-0.997143	-0.516101	-0.853882	-0.067273	-0.856511	0.514984	0.034341
12727		0.004927	0.075402	-0.997141	-0.515997	-0.853956	-0.067124	-0.856576	0.514853	0.034700
12728		0.004475	0.075490	-0.997136	-0.515876	-0.854041	-0.066972	-0.856652	0.514699	0.035122
12729		0.004095	0.075640	-0.997127	-0.515616	-0.854203	-0.066916	-0.856810	0.514408	0.035503
12730		0.003648	0.075970	-0.997103	-0.515842	-0.854063	-0.066959	-0.856676	0.514592	0.036073
12731		0.003413	0.076402	-0.997071	-0.515997	-0.853950	-0.067202	-0.856584	0.514715	0.036509
12732		0.003186	0.076856	-0.997037	-0.515853	-0.854015	-0.067479	-0.856671	0.514540	0.036926
12733		0.002976	0.077394	-0.996996	-0.515772	-0.854036	-0.067836	-0.856721	0.514425	0.037376
12734		0.002765	0.078033	-0.996947	-0.515691	-0.854050	-0.068278	-0.856770	0.514305	0.037879
12735		0.002505	0.078768	-0.996890	-0.515733	-0.853985	-0.068772	-0.856746	0.514301	0.038484
12736		0.002331	0.079583	-0.996826	-0.516002	-0.853774	-0.069369	-0.856584	0.514526	0.039075
12737		0.002266	0.080401	-0.996760	-0.516416	-0.853471	-0.070017	-0.856335	0.514901	0.039587
12738		0.002275	0.081213	-0.996694	-0.516964	-0.853083	-0.070691	-0.856004	0.515416	0.040043
12739		0.002264	0.082014	-0.996629	-0.517773	-0.852539	-0.071333	-0.855515	0.516189	0.040534
12740		0.002284	0.082738	-0.996569	-0.518779	-0.851878	-0.071915	-0.854905	0.517164	0.040977
12741		0.002326	0.083315	-0.996521	-0.519676	-0.851291	-0.072386	-0.854360	0.518036	0.041316
12742		0.002339	0.083826	-0.996478	-0.520174	-0.850952	-0.072805	-0.854057	0.518512	0.041613
12743		0.002346	0.084348	-0.996434	-0.520554	-0.850682	-0.073236	-0.853826	0.518869	0.041912
12744		0.002330	0.084853	-0.996391	-0.520832	-0.850476	-0.073644	-0.853656	0.519124	0.042213
12745		0.002346	0.085158	-0.996365	-0.520879	-0.850425	-0.073911	-0.853627	0.519159	0.042362
12746		0.002476	0.085160	-0.996364	-0.520653	-0.850556	-0.073992	-0.853765	0.518943	0.042233
12747		0.002507	0.085064	-0.996372	-0.520428	-0.850698	-0.073937	-0.853902	0.518726	0.042137
12748		0.002490	0.085040	-0.996374	-0.520268	-0.850798	-0.073915	-0.854000	0.518566	0.042126
12749		0.002566	0.085046	-0.996374	-0.520006	-0.850954	-0.073973	-0.854159	0.518310	0.042041
12750		0.002739	0.085033	-0.996374	-0.519797	-0.851073	-0.074062	-0.854285	0.518116	0.041869
12751		0.003007	0.084923	-0.996383	-0.520021	-0.850934	-0.074096	-0.854148	0.518363	0.041603
12752		0.003208	0.084808	-0.996392	-0.520640	-0.850557	-0.074072	-0.853770	0.519000	0.041426
12753		0.003313	0.084653	-0.996405	-0.521615	-0.849971	-0.073947	-0.853175	0.519984	0.041341
12754		0.003263	0.084582	-0.996411	-0.522797	-0.849257	-0.073802	-0.852451	0.521162	0.041448
12755		0.003268	0.084449	-0.996422	-0.523823	-0.848638	-0.073642	-0.851821	0.522189	0.041463
12756		0.003317	0.084259	-0.996438	-0.524550	-0.848204	-0.073470	-0.851373	0.522925	0.041385
12757		0.003453	0.084013	-0.996459	-0.524980	-0.847951	-0.073311	-0.851107	0.523374	0.041177
12758		0.003617	0.083744	-0.996481	-0.525306	-0.847763	-0.073153	-0.850906	0.523722	0.040925
12759		0.003691	0.083618	-0.996491	-0.525516	-0.847640	-0.073074	-0.850776	0.523941	0.040814
12760		0.003693	0.083563	-0.996496	-0.525527	-0.847637	-0.073028	-0.850769	0.523955	0.040785
12761		0.003655	0.083504	-0.996501	-0.525344	-0.847755	-0.072967	-0.850882	0.523773	0.040770
12762		0.003596	0.083496	-0.996502	-0.525096	-0.847912	-0.072941	-0.851036	0.523521	0.040795
12763		0.003509	0.083522	-0.996500	-0.524835	-0.848074	-0.072929	-0.851197	0.523254	0.040860
12764		0.003464	0.083587	-0.996494	-0.524610	-0.848209	-0.072972	-0.851335	0.523024	0.040912
12765		0.003421	0.083735	-0.996482	-0.524326	-0.848375	-0.073089	-0.851511	0.522731	0.041002
12766		0.003300	0.083943	-0.996465	-0.523990	-0.848571	-0.073220	-0.851718	0.522380	0.041185
12767		0.003158	0.084234	-0.996441	-0.523721	-0.848721	-0.073406	-0.851884	0.522089	0.041434
12768		0.002964	0.084567	-0.996413	-0.523395	-0.848905	-0.073605	-0.852085	0.521736	0.041746
12769		0.002819	0.084904	-0.996385	-0.522996	-0.849131	-0.073836	-0.852331	0.521313	0.042011
12770		0.002706	0.085244	-0.996356	-0.522453	-0.849443	-0.074094	-0.852664	0.520750	0.042237
12771		0.002755	0.085489	-0.996335	-0.521669	-0.849901	-0.074366	-0.853144	0.519962	0.042256
12772		0.002818	0.085706	-0.996316	-0.520874	-0.850365	-0.074624	-0.853629	0.519166	0.042246
12773		0.002948	0.085854	-0.996303	-0.520338	-0.850674	-0.074845	-0.853955	0.518635	0.042165
12774		0.003011	0.086085	-0.996283	-0.520183	-0.850748	-0.075081	-0.854049	0.518476	0.042218
12775		0.002961	0.086403	-0.996256	-0.520336	-0.850633	-0.075320	-0.853956	0.518611	0.042440
12776		0.002842	0.086759	-0.996225	-0.520683	-0.850401	-0.075545	-0.853745	0.518933	0.042757
12777		0.002735	0.086981	-0.996206	-0.521032	-0.850177	-0.075661	-0.853533	0.519263	0.042995
12778		0.002604	0.087077	-0.996198	-0.521407	-0.849948	-0.075656	-0.853304	0.519622	0.043189
12779		0.002442	0.087191	-0.996189	-0.521569	-0.849848	-0.075661	-0.853205	0.519766	0.043401
12780		0.002245	0.087388	-0.996172	-0.521694	-0.849766	-0.075721	-0.853130	0.519867	0.043683
12781		0.001978	0.087594	-0.996154	-0.521779	-0.849710	-0.075753	-0.853078	0.519922	0.044024
12782		0.001676	0.087693	-0.996146	-0.521817	-0.849694	-0.075678	-0.853056	0.519933	0.044336
12783		0.001445	0.087733	-0.996143	-0.521728	-0.849756	-0.075597	-0.853111	0.519824	0.044545
12784		0.001070	0.087912	-0.996128	-0.521734	-0.849756	-0.075554	-0.853108	0.519794	0.044957
12785		0.000620	0.088228	-0.996100	-0.521980	-0.849603	-0.075577	-0.852958	0.519991	0.045527
12786		0.000348	0.088515	-0.996075	-0.522067	-0.849541	-0.075675	-0.852905	0.520044	0.045915
12787		0.000179	0.088729	-0.996056	-0.521704	-0.849753	-0.075790	-0.853127	0.519660	0.046138
12788		-0.000062	0.088970	-0.996034	-0.521604	-0.849807	-0.075876	-0.853188	0.519530	0.046460
12789		-0.000338	0.089281	-0.996006	-0.521757	-0.849703	-0.075990	-0.853094	0.519648	0.046870
12790		-0.000617	0.089616	-0.995976	-0.521952	-0.849572	-0.076119	-0.852975	0.519805	0.047299
12791		-0.000929	0.089833	-0.995956	-0.522288	-0.849365	-0.076123	-0.852769	0.520105	0.047708
12792		-0.001196	0.090010	-0.995940	-0.522783	-0.849062	-0.076108	-0.852465	0.520569	0.048072
12793		-0.001472	0.090173	-0.995925	-0.523262	-0.848769	-0.076076	-0.852171	0.521018	0.048433
12794		-0.001822	0.090369	-0.995907	-0.523751	-0.848472	-0.076032	-0.851870	0.521468	0.048877
12795		-0.002184	0.090525	-0.995892	-0.524230	-0.848183	-0.075949	-0.851574	0.521910	0.049308
12796		-0.002572	0.090647	-0.995880	-0.524811	-0.847836	-0.075817	-0.851215	0.522454	0.049753
12797		-0.002956	0.090682	-0.995876	-0.525353	-0.847518	-0.075614	-0.850879	0.522962	0.050145
12798		-0.003331	0.090773	-0.995866	-0.525931	-0.847173	-0.075461	-0.850521	0.523505	0.050562
12799		-0.003703	0.090797	-0.995863	-0.526511	-0.846831	-0.075252	-0.850160	0.524054	0.050942
12800		-0.004146	0.090891	-0.995852	-0.527284	-0.846368	-0.075052	-0.849679	0.524786	0.051434
12801		-0.004652	0.090968	-0.995843	-0.527943	-0.845978	-0.074811	-0.849267	0.525401	0.051962
12802		-0.005136	0.091001	-0.995838	-0.528607	-0.845587	-0.074545	-0.848851	0.526023	0.052447
12803		-0.005591	0.090979	-0.995837	-0.529092	-0.845309	-0.074257	-0.848546	0.526475	0.052862
12804		-0.006064	0.090870	-0.995844	-0.529573	-0.845041	-0.073884	-0.848243	0.526924	0.053247
12805		-0.006499	0.090733	-0.995854	-0.529990	-0.844812	-0.073512	-0.847979	0.527315	0.053578
12806		-0.007002	0.090613	-0.995862	-0.530455	-0.844554	-0.073116	-0.847684	0.527747	0.053980
12807		-0.007574	0.090576	-0.995861	-0.530768	-0.844388	-0.072762	-0.847483	0.528020	0.054471
12808		-0.008136	0.090453	-0.995868	-0.531009	-0.844272	-0.072345	-0.847327	0.528226	0.054900
12809		-0.008742	0.090017	-0.995902	-0.530737	-0.844501	-0.071673	-0.847492	0.527935	0.055157
12810		-0.009357	0.089488	-0.995944	-0.530297	-0.844840	-0.070929	-0.847760	0.527482	0.055360
12811		-0.010222	0.089188	-0.995962	-0.530301	-0.844897	-0.070218	-0.847748	0.527442	0.055933
12812		-0.011059	0.089207	-0.995952	-0.530680	-0.844696	-0.069766	-0.847500	0.527760	0.056682
12813		-0.011653	0.089204	-0.995945	-0.530300	-0.844959	-0.069476	-0.847730	0.527340	0.057151
12814		-0.012182	0.089179	-0.995941	-0.529503	-0.845478	-0.069229	-0.848220	0.526511	0.057520
12815		-0.012905	0.089276	-0.995923	-0.529556	-0.845470	-0.068927	-0.848177	0.526508	0.058187
12816		-0.013607	0.089468	-0.995897	-0.530266	-0.845046	-0.068671	-0.847722	0.527156	0.058941
12817		-0.014344	0.089727	-0.995863	-0.530846	-0.844699	-0.068461	-0.847347	0.527668	0.059747
12818		-0.014980	0.089953	-0.995833	-0.531490	-0.844309	-0.068271	-0.846932	0.528253	0.060457
12819		-0.015536	0.090120	-0.995810	-0.532016	-0.843993	-0.068080	-0.846592	0.528729	0.061058
12820		-0.016095	0.090221	-0.995792	-0.532492	-0.843712	-0.067836	-0.846282	0.529160	0.061622
12821		-0.016692	0.090228	-0.995781	-0.532751	-0.843575	-0.067507	-0.846107	0.529377	0.062150
12822		-0.017233	0.090184	-0.995776	-0.533054	-0.843412	-0.067160	-0.845906	0.529645	0.062608
12823		-0.017853	0.090075	-0.995775	-0.533100	-0.843416	-0.066735	-0.845864	0.529656	0.063077
12824		-0.018540	0.089969	-0.995772	-0.533363	-0.843287	-0.066261	-0.845683	0.529879	0.063620
12825		-0.019261	0.089901	-0.995764	-0.533695	-0.843113	-0.065796	-0.845458	0.530167	0.064219
12826		-0.019910	0.089864	-0.995755	-0.534337	-0.842740	-0.065371	-0.845037	0.530768	0.064797
12827		-0.020579	0.089809	-0.995746	-0.534852	-0.842447	-0.064929	-0.844695	0.531241	0.065371
12828		-0.021205	0.089740	-0.995739	-0.535317	-0.842185	-0.064501	-0.844385	0.531668	0.065898
12829		-0.021910	0.089741	-0.995724	-0.535637	-0.842012	-0.064101	-0.844164	0.531942	0.066517
12830		-0.022630	0.089943	-0.995690	-0.535869	-0.841882	-0.063870	-0.843998	0.532114	0.067249
12831		-0.023353	0.090227	-0.995647	-0.535897	-0.841875	-0.063722	-0.843960	0.532076	0.068013
12832		-0.023993	0.090564	-0.995602	-0.535829	-0.841922	-0.063672	-0.843986	0.531945	0.068727
12833		-0.024705	0.091001	-0.995544	-0.535718	-0.841993	-0.063671	-0.844035	0.531758	0.069552
12834		-0.025440	0.091527	-0.995478	-0.535786	-0.841946	-0.063719	-0.843970	0.531742	0.070458
12835		-0.026127	0.092059	-0.995411	-0.535952	-0.841835	-0.063788	-0.843844	0.531826	0.071334
12836		-0.026729	0.092600	-0.995345	-0.536434	-0.841521	-0.063884	-0.843519	0.532229	0.072167
12837		-0.027414	0.093244	-0.995266	-0.537202	-0.841023	-0.063996	-0.843008	0.532904	0.073147
12838		-0.028110	0.094000	-0.995175	-0.538429	-0.840225	-0.064155	-0.842202	0.534028	0.074231
12839		-0.028829	0.094831	-0.995076	-0.539720	-0.839381	-0.064356	-0.841351	0.535208	0.075380
12840		-0.029522	0.095706	-0.994972	-0.541159	-0.838436	-0.064592	-0.840402	0.536531	0.076544
12841		-0.030242	0.096605	-0.994863	-0.542320	-0.837665	-0.064855	-0.839628	0.537573	0.077723
12842		-0.030929	0.097567	-0.994748	-0.543631	-0.836791	-0.065172	-0.838754	0.538760	0.078921
12843		-0.031620	0.098567	-0.994628	-0.544703	-0.836064	-0.065537	-0.838032	0.539705	0.080126
12844		-0.032307	0.099512	-0.994512	-0.545795	-0.835327	-0.065854	-0.837296	0.540672	0.081300
12845		-0.033041	0.100372	-0.994401	-0.546719	-0.834704	-0.066087	-0.836664	0.541474	0.082455
12846		-0.033745	0.101268	-0.994287	-0.547928	-0.833891	-0.066335	-0.835845	0.542559	0.083628
12847		-0.034499	0.102147	-0.994171	-0.549095	-0.833106	-0.066544	-0.835047	0.543599	0.084830
12848		-0.035247	0.103082	-0.994048	-0.550617	-0.832084	-0.066763	-0.834014	0.544986	0.086087
12849		-0.036044	0.104044	-0.993919	-0.552092	-0.831089	-0.066978	-0.833004	0.546321	0.087398
12850		-0.036859	0.105145	-0.993774	-0.553727	-0.829976	-0.067277	-0.831882	0.547799	0.088814
12851		-0.037677	0.106355	-0.993614	-0.555412	-0.828819	-0.067655	-0.830722	0.549316	0.090298
12852		-0.038428	0.107778	-0.993432	-0.557212	-0.827563	-0.068229	-0.829481	0.550930	0.091857
12853		-0.038990	0.109339	-0.993240	-0.558781	-0.826437	-0.069042	-0.828398	0.552311	0.093319
12854		-0.039342	0.111272	-0.993011	-0.560361	-0.825262	-0.070274	-0.827313	0.553680	0.094820
12855		-0.039487	0.113631	-0.992738	-0.561872	-0.824087	-0.071978	-0.826281	0.554949	0.096387
12856		-0.039321	0.116592	-0.992401	-0.563450	-0.822799	-0.074341	-0.825214	0.556245	0.098047
12857		-0.039015	0.120167	-0.991987	-0.564737	-0.821641	-0.077320	-0.824348	0.557195	0.099919
12858		-0.038534	0.124784	-0.991435	-0.566241	-0.820227	-0.081227	-0.823338	0.558262	0.102264
12859		-0.037744	0.130713	-0.990702	-0.567807	-0.818617	-0.086376	-0.822296	0.559267	0.105118
12860		-0.036359	0.137826	-0.989789	-0.570188	-0.816265	-0.092718	-0.820709	0.560995	0.108265
12861		-0.033907	0.145496	-0.988778	-0.572507	-0.813765	-0.100111	-0.819199	0.562688	0.110890
12862		-0.030422	0.153504	-0.987680	-0.575256	-0.810774	-0.108291	-0.817408	0.564874	0.112969
12863		-0.026508	0.161972	-0.986439	-0.578425	-0.807300	-0.117014	-0.815305	0.567479	0.115089
12864		-0.021949	0.170792	-0.985063	-0.581872	-0.803408	-0.126331	-0.812984	0.570408	0.117013
12865		-0.017071	0.179998	-0.983519	-0.585308	-0.799303	-0.136124	-0.810632	0.573337	0.118999
12866		-0.011927	0.189601	-0.981789	-0.588763	-0.794944	-0.146365	-0.808218	0.576295	0.121112
12867		-0.006992	0.199723	-0.979828	-0.592216	-0.790361	-0.156877	-0.805749	0.579172	0.123805
12868		-0.002327	0.210216	-0.977652	-0.595408	-0.785761	-0.167539	-0.803420	0.581712	0.126993
12869		0.001844	0.221003	-0.975271	-0.597328	-0.781922	-0.178318	-0.801995	0.582886	0.130570
12870		0.005524	0.232069	-0.972684	-0.597857	-0.778945	-0.189241	-0.801584	0.582571	0.134441
12871		0.009081	0.243308	-0.969906	-0.597607	-0.776355	-0.200350	-0.801738	0.581442	0.138353
12872		0.012390	0.254581	-0.966972	-0.597220	-0.773729	-0.211358	-0.801982	0.580114	0.142454
12873		0.015922	0.265703	-0.963923	-0.598002	-0.770092	-0.222152	-0.801336	0.579966	0.146630
12874		0.019649	0.276405	-0.960840	-0.600676	-0.764986	-0.232347	-0.799251	0.581719	0.150999
12875		0.023589	0.286307	-0.957847	-0.604193	-0.759257	-0.241827	-0.796489	0.584429	0.155074
12876		0.027783	0.295106	-0.955061	-0.606778	-0.754293	-0.250722	-0.794385	0.586476	0.158108
12877		0.031509	0.302725	-0.952557	-0.608341	-0.750368	-0.258592	-0.793050	0.587627	0.160517
12878		0.034263	0.309188	-0.950383	-0.608538	-0.747880	-0.265247	-0.792784	0.587433	0.162528
12879		0.036411	0.314293	-0.948628	-0.607439	-0.746805	-0.270741	-0.793532	0.586091	0.163722
12880		0.038264	0.317851	-0.947368	-0.605189	-0.747044	-0.275084	-0.795162	0.583863	0.163775
12881		0.039916	0.319634	-0.946700	-0.602949	-0.747811	-0.277905	-0.796781	0.581905	0.162873
12882		0.041071	0.319268	-0.946774	-0.601455	-0.748760	-0.278585	-0.797850	0.580884	0.161273
12883		0.041243	0.316836	-0.947583	-0.600933	-0.749816	-0.276866	-0.798234	0.580853	0.159473
12884		0.039953	0.312867	-0.948956	-0.601668	-0.750704	-0.272836	-0.797747	0.581857	0.158249
12885		0.037324	0.307463	-0.950828	-0.603664	-0.751325	-0.266648	-0.796365	0.583932	0.157562
12886		0.033483	0.300677	-0.953138	-0.606469	-0.751912	-0.258503	-0.794402	0.586704	0.157175
12887		0.028734	0.292149	-0.955941	-0.610170	-0.752365	-0.248274	-0.791749	0.590421	0.156642
12888		0.023004	0.281767	-0.959207	-0.614492	-0.752834	-0.235882	-0.788587	0.594852	0.155825
12889		0.016502	0.269393	-0.962889	-0.619149	-0.753417	-0.221399	-0.785100	0.599825	0.154362
12890		0.009165	0.254922	-0.966918	-0.624708	-0.753578	-0.204598	-0.780805	0.605916	0.152346
12891		0.000990	0.238395	-0.971168	-0.630258	-0.753852	-0.185692	-0.776385	0.612270	0.149504
12892		-0.008218	0.219920	-0.975483	-0.635430	-0.754385	-0.164721	-0.772115	0.618497	0.145943
12893		-0.018486	0.199653	-0.979692	-0.640914	-0.754429	-0.141652	-0.767390	0.625280	0.141907
12894		-0.029932	0.177523	-0.983661	-0.646227	-0.754209	-0.116449	-0.762558	0.632183	0.137295
12895		-0.042579	0.153550	-0.987223	-0.651243	-0.753617	-0.089127	-0.757674	0.639127	0.132087
12896		-0.056707	0.127727	-0.990187	-0.655765	-0.752615	-0.059527	-0.752833	0.645954	0.126437
12897		-0.072297	0.100261	-0.992331	-0.659993	-0.750758	-0.027769	-0.747785	0.652924	0.120450
12898		-0.089441	0.071302	-0.993437	-0.663658	-0.748012	0.006063	-0.742670	0.659844	0.114223
12899		-0.107596	0.040936	-0.993352	-0.666509	-0.744340	0.041519	-0.737691	0.666545	0.107372
12900		-0.126531	0.009107	-0.991921	-0.668008	-0.740011	0.078418	-0.733318	0.672533	0.099717
12901		-0.146280	-0.023419	-0.988966	-0.667964	-0.735064	0.116206	-0.729675	0.677593	0.091883
12902		-0.167034	-0.056072	-0.984355	-0.666734	-0.729070	0.154668	-0.726337	0.682138	0.084395
12903		-0.188399	-0.088421	-0.978104	-0.664462	-0.721904	0.193247	-0.723184	0.686321	0.077254
12904		-0.210069	-0.119774	-0.970322	-0.660585	-0.714271	0.231180	-0.720763	0.689544	0.070926
12905		-0.231345	-0.149564	-0.961306	-0.655695	-0.705998	0.267640	-0.718710	0.692241	0.065261
12906		-0.251884	-0.177569	-0.951327	-0.650284	-0.696968	0.302268	-0.716718	0.694770	0.060085
12907		-0.271399	-0.203835	-0.940635	-0.645368	-0.686509	0.334972	-0.714033	0.697966	0.054770
12908		-0.290286	-0.228344	-0.929297	-0.641697	-0.673966	0.366053	-0.709901	0.702587	0.049115
12909		-0.308492	-0.250899	-0.917542	-0.638649	-0.660225	0.395260	-0.704954	0.707921	0.043437
12910		-0.325770	-0.271073	-0.905755	-0.635880	-0.646144	0.422083	-0.699664	0.713454	0.038124
12911		-0.341479	-0.289137	-0.894311	-0.633026	-0.632581	0.446229	-0.694745	0.718500	0.032982
12912		-0.355419	-0.305205	-0.883475	-0.629273	-0.620773	0.467607	-0.691153	0.722143	0.028577
12913		-0.367663	-0.319183	-0.873468	-0.624803	-0.610902	0.486230	-0.688800	0.724514	0.025179
12914		-0.378329	-0.331061	-0.864445	-0.619619	-0.603217	0.502197	-0.687706	0.725622	0.023084
12915		-0.387481	-0.340959	-0.856508	-0.614614	-0.596932	0.515676	-0.687101	0.726236	0.021742
12916		-0.395337	-0.348894	-0.849695	-0.610640	-0.591210	0.526869	-0.686169	0.727148	0.020678
12917		-0.402250	-0.354701	-0.844027	-0.608057	-0.585700	0.535930	-0.684442	0.728795	0.019919
12918		-0.408344	-0.358679	-0.839407	-0.606487	-0.580656	0.543151	-0.682223	0.730882	0.019573
12919		-0.413478	-0.361236	-0.835790	-0.605293	-0.576677	0.548693	-0.680188	0.732770	0.019790
12920		-0.417672	-0.362776	-0.833033	-0.603897	-0.574180	0.552834	-0.678866	0.733969	0.020740
12921		-0.421213	-0.363215	-0.831056	-0.602306	-0.573056	0.555729	-0.678090	0.734631	0.022612
12922		-0.424092	-0.362779	-0.829782	-0.600442	-0.573277	0.557515	-0.677949	0.734674	0.025295
12923		-0.426358	-0.361382	-0.829230	-0.598313	-0.574872	0.558161	-0.678410	0.734116	0.028882
12924		-0.427970	-0.359176	-0.829358	-0.595899	-0.577792	0.557728	-0.679518	0.732905	0.033245
12925		-0.428942	-0.356151	-0.830160	-0.593831	-0.581347	0.556238	-0.680716	0.731568	0.037871
12926		-0.429404	-0.352090	-0.831652	-0.592127	-0.585555	0.553634	-0.681907	0.730176	0.042958
12927		-0.429299	-0.347010	-0.833838	-0.591094	-0.590100	0.549899	-0.682869	0.728949	0.048214
12928		-0.428744	-0.340970	-0.836611	-0.590995	-0.594554	0.545189	-0.683303	0.728179	0.053400
12929		-0.427837	-0.334161	-0.839817	-0.591551	-0.598993	0.539698	-0.683391	0.727697	0.058598
12930		-0.426733	-0.326853	-0.843247	-0.592713	-0.603167	0.533743	-0.683074	0.727569	0.063662
12931		-0.425613	-0.319146	-0.846758	-0.593882	-0.607510	0.527481	-0.682758	0.727377	0.069029
12932		-0.424648	-0.311072	-0.850240	-0.594881	-0.612070	0.521044	-0.682489	0.727052	0.074863
12933		-0.423931	-0.302775	-0.853586	-0.596307	-0.616058	0.514676	-0.681690	0.727186	0.080619
12934		-0.423393	-0.294489	-0.856746	-0.597509	-0.620075	0.508419	-0.680971	0.727175	0.086576
12935		-0.423182	-0.286290	-0.859625	-0.598678	-0.623787	0.502468	-0.680074	0.727274	0.092580
12936		-0.423214	-0.278199	-0.862262	-0.599517	-0.627565	0.496731	-0.679315	0.727164	0.098810
12937		-0.423392	-0.270320	-0.864677	-0.600147	-0.631288	0.491222	-0.678647	0.726913	0.105050
12938		-0.423686	-0.262789	-0.866852	-0.600546	-0.634934	0.486008	-0.678111	0.726499	0.111195
12939		-0.424132	-0.255850	-0.868708	-0.600630	-0.638445	0.481281	-0.677758	0.725898	0.117114
12940		-0.424949	-0.249586	-0.870129	-0.600200	-0.641876	0.477237	-0.677627	0.725053	0.122963
12941		-0.426203	-0.243882	-0.871133	-0.599350	-0.645168	0.473854	-0.677592	0.724071	0.128801
12942		-0.427952	-0.238665	-0.871720	-0.598142	-0.648274	0.471133	-0.677557	0.723035	0.134675
12943		-0.430099	-0.233784	-0.871986	-0.596871	-0.651027	0.468944	-0.677319	0.722155	0.140467
12944		-0.432547	-0.229295	-0.871967	-0.595452	-0.653549	0.467238	-0.677009	0.721317	0.146156
12945		-0.435231	-0.225221	-0.871693	-0.593902	-0.655850	0.465985	-0.676650	0.720511	0.151687
12946		-0.438129	-0.221684	-0.871148	-0.592096	-0.658014	0.465231	-0.676362	0.719635	0.157037
12947		-0.441173	-0.218697	-0.870367	-0.590342	-0.659746	0.465007	-0.675916	0.718963	0.161956
12948		-0.444314	-0.216118	-0.869413	-0.588517	-0.661279	0.465142	-0.675450	0.718333	0.166626
12949		-0.447409	-0.214034	-0.868341	-0.586738	-0.662525	0.465617	-0.674955	0.717809	0.170838
12950		-0.450514	-0.212208	-0.867182	-0.584840	-0.663751	0.466259	-0.674537	0.717219	0.174921
12951		-0.453667	-0.210369	-0.865986	-0.582726	-0.665183	0.466864	-0.674253	0.716433	0.179184
12952		-0.456878	-0.208493	-0.864750	-0.580447	-0.666776	0.467431	-0.674050	0.715501	0.183617
12953		-0.459996	-0.206772	-0.863510	-0.577901	-0.668618	0.467954	-0.674118	0.714280	0.188068
12954		-0.462961	-0.205312	-0.862273	-0.574694	-0.671100	0.468350	-0.674829	0.712371	0.192701
12955		-0.465720	-0.204196	-0.861051	-0.571020	-0.673995	0.468686	-0.676048	0.709954	0.197294
12956		-0.468334	-0.203140	-0.859882	-0.567233	-0.677044	0.468890	-0.677429	0.707351	0.201855
12957		-0.470783	-0.202129	-0.858782	-0.563420	-0.680175	0.468957	-0.678912	0.704632	0.206331
12958		-0.473132	-0.201108	-0.857731	-0.559517	-0.683443	0.468878	-0.680505	0.701756	0.210835
12959		-0.475340	-0.200070	-0.856752	-0.555502	-0.686895	0.468607	-0.682253	0.698675	0.215370
12960		-0.477376	-0.198952	-0.855880	-0.551558	-0.690395	0.468122	-0.684029	0.695538	0.219845
12961		-0.478924	-0.198104	-0.855211	-0.547505	-0.694106	0.467392	-0.686199	0.692078	0.223961
12962		-0.480005	-0.197458	-0.854754	-0.542916	-0.698471	0.466241	-0.689085	0.687858	0.228067
12963		-0.480662	-0.196911	-0.854512	-0.538203	-0.703092	0.464757	-0.692316	0.683292	0.231971
12964		-0.480856	-0.196510	-0.854495	-0.533652	-0.707672	0.463050	-0.695696	0.678663	0.235421
12965		-0.480437	-0.196436	-0.854748	-0.529044	-0.712399	0.461086	-0.699495	0.673722	0.238339
12966		-0.479524	-0.196779	-0.855181	-0.524647	-0.716892	0.459142	-0.703422	0.668838	0.240527
12967		-0.478017	-0.197703	-0.855812	-0.520389	-0.721181	0.457267	-0.707598	0.663936	0.241855
12968		-0.476011	-0.199314	-0.856556	-0.516010	-0.725399	0.455555	-0.712143	0.658840	0.242450
12969		-0.473622	-0.201478	-0.857373	-0.511463	-0.729590	0.453987	-0.716999	0.653533	0.242501
12970		-0.471009	-0.203997	-0.858216	-0.506987	-0.733557	0.452612	-0.721882	0.648289	0.242089
12971		-0.468161	-0.206758	-0.859114	-0.503089	-0.736919	0.451500	-0.726448	0.643585	0.240979
12972		-0.464858	-0.210126	-0.860089	-0.499188	-0.740107	0.450613	-0.731244	0.638818	0.239152
12973		-0.461092	-0.214310	-0.861084	-0.494356	-0.743812	0.449840	-0.736889	0.633100	0.237020
12974		-0.456832	-0.219333	-0.862089	-0.489093	-0.747565	0.449372	-0.743029	0.626929	0.234237
12975		-0.452051	-0.225172	-0.863104	-0.483810	-0.751022	0.449327	-0.749385	0.620697	0.230559
12976		-0.446349	-0.232030	-0.864254	-0.478158	-0.754519	0.449517	-0.756398	0.613891	0.225832
12977		-0.439559	-0.240095	-0.865530	-0.472515	-0.757692	0.450147	-0.763883	0.606842	0.219602
12978		-0.431582	-0.249401	-0.866912	-0.467664	-0.759927	0.451444	-0.771380	0.600258	0.211335
12979		-0.422497	-0.259958	-0.868284	-0.462907	-0.761731	0.453302	-0.779239	0.593454	0.201493
12980		-0.412139	-0.271906	-0.869603	-0.457762	-0.763432	0.455660	-0.787779	0.585866	0.190172
12981		-0.400371	-0.284827	-0.870963	-0.454212	-0.763804	0.458579	-0.795861	0.579204	0.176433
12982		-0.387150	-0.297826	-0.872591	-0.453271	-0.762656	0.461411	-0.802907	0.574156	0.160266
12983		-0.371532	-0.311167	-0.874722	-0.452761	-0.761809	0.463308	-0.810538	0.568174	0.142152
12984		-0.352744	-0.325633	-0.877231	-0.452304	-0.761357	0.464496	-0.819142	0.560623	0.121279
12985		-0.331507	-0.341288	-0.879560	-0.454913	-0.758920	0.465934	-0.826533	0.554584	0.096331
12986		-0.308867	-0.358001	-0.881156	-0.462408	-0.753068	0.468046	-0.831131	0.552018	0.067055
12987		-0.286322	-0.374873	-0.881754	-0.473843	-0.744463	0.470370	-0.832762	0.552490	0.035525
12988		-0.263677	-0.391458	-0.881609	-0.488393	-0.733971	0.471974	-0.831834	0.555020	0.002346
12989		-0.240830	-0.407271	-0.880983	-0.505541	-0.722206	0.472067	-0.828510	0.559061	-0.031963
12990		-0.217361	-0.422649	-0.879842	-0.523224	-0.710499	0.470562	-0.824009	0.562636	-0.066705
12991		-0.193477	-0.437877	-0.877970	-0.540410	-0.699325	0.467869	-0.818855	0.564986	-0.101330
12992		-0.169878	-0.452828	-0.875265	-0.557687	-0.688093	0.464233	-0.812481	0.566987	-0.135644
12993		-0.147109	-0.467376	-0.871733	-0.572815	-0.678238	0.460300	-0.806376	0.567056	-0.167945
12994		-0.125216	-0.481682	-0.867355	-0.584053	-0.670910	0.456904	-0.801999	0.563793	-0.197319
12995		-0.104442	-0.495608	-0.862244	-0.591214	-0.666222	0.454549	-0.799724	0.557245	-0.223428
12996		-0.084866	-0.508824	-0.856677	-0.595158	-0.663663	0.453143	-0.799115	0.548315	-0.246508
12997		-0.066800	-0.521027	-0.850922	-0.596849	-0.662554	0.452542	-0.799568	0.538102	-0.266716
12998		-0.050284	-0.532192	-0.845129	-0.596593	-0.662631	0.452766	-0.800967	0.526965	-0.284182
12999		-0.035467	-0.542113	-0.839556	-0.593540	-0.664446	0.454116	-0.804022	0.514417	-0.298200
13000		-0.022343	-0.550840	-0.834312	-0.586881	-0.668373	0.456999	-0.809365	0.499853	-0.308344
13001		-0.010942	-0.558524	-0.829416	-0.577647	-0.673531	0.461173	-0.816213	0.484156	-0.315260
13002		-0.001032	-0.565547	-0.824716	-0.566520	-0.679275	0.466520	-0.824047	0.467699	-0.319693
13003		0.007521	-0.571976	-0.820236	-0.552612	-0.686005	0.473305	-0.833404	0.449713	-0.321240
13004		0.014909	-0.577689	-0.816121	-0.535723	-0.693788	0.481310	-0.844262	0.430039	-0.319825
13005		0.021631	-0.582716	-0.812388	-0.516996	-0.702017	0.489783	-0.855714	0.409407	-0.316447
13006		0.028045	-0.587313	-0.808874	-0.498032	-0.709817	0.498121	-0.866705	0.388875	-0.312407
13007		0.034117	-0.591225	-0.805784	-0.478556	-0.717478	0.506171	-0.877394	0.368344	-0.307413
13008		0.039975	-0.594401	-0.803175	-0.459410	-0.724750	0.513497	-0.887324	0.348460	-0.302046
13009		0.045643	-0.596739	-0.801136	-0.441135	-0.731581	0.519797	-0.896279	0.329684	-0.296634
13010		0.051204	-0.598308	-0.799628	-0.424869	-0.737659	0.524735	-0.903806	0.312869	-0.291973
13011		0.056942	-0.599567	-0.798296	-0.411209	-0.742705	0.528485	-0.909761	0.298174	-0.288838
13012		0.062745	-0.600725	-0.796989	-0.399677	-0.746857	0.531473	-0.914506	0.285191	-0.286957
13013		0.068380	-0.601753	-0.795749	-0.390159	-0.750223	0.533799	-0.918205	0.273968	-0.286079
13014		0.073593	-0.602609	-0.794636	-0.382466	-0.752926	0.535558	-0.921034	0.264508	-0.285887
13015		0.078338	-0.603289	-0.793666	-0.375633	-0.755300	0.537049	-0.923451	0.256056	-0.285785
13016		0.082718	-0.603847	-0.792797	-0.369083	-0.757517	0.538467	-0.925708	0.248067	-0.285530
13017		0.086679	-0.604272	-0.792049	-0.362493	-0.759674	0.539902	-0.927947	0.240314	-0.284892
13018		0.090156	-0.604508	-0.791481	-0.355273	-0.761953	0.541487	-0.930405	0.232373	-0.283459
13019		0.092923	-0.604621	-0.791074	-0.347714	-0.764194	0.543233	-0.932985	0.224589	-0.281246
13020		0.095203	-0.604981	-0.790528	-0.339773	-0.766192	0.545439	-0.935677	0.216673	-0.278500
13021		0.096751	-0.605728	-0.789768	-0.330982	-0.767912	0.548418	-0.938664	0.208339	-0.274781
13022		0.097246	-0.606540	-0.789083	-0.321727	-0.769432	0.551785	-0.941825	0.200210	-0.269964
13023		0.097182	-0.607517	-0.788339	-0.312804	-0.770594	0.555282	-0.944833	0.192632	-0.264921
13024		0.096669	-0.608671	-0.787512	-0.304275	-0.771411	0.558876	-0.947667	0.185594	-0.259775
13025		0.095598	-0.610129	-0.786513	-0.296236	-0.771770	0.562686	-0.950319	0.179202	-0.254522
13026		0.093897	-0.611815	-0.785408	-0.288413	-0.771781	0.566720	-0.952891	0.173309	-0.248923
13027		0.091683	-0.613719	-0.784183	-0.280961	-0.771447	0.570903	-0.955330	0.167983	-0.243160
13028		0.089030	-0.615704	-0.782932	-0.274134	-0.770843	0.575023	-0.957561	0.163435	-0.237413
13029		0.086178	-0.617738	-0.781648	-0.268213	-0.769986	0.578950	-0.959497	0.159755	-0.232041
13030		0.083143	-0.619799	-0.780344	-0.262802	-0.768972	0.582766	-0.961261	0.156623	-0.226819
13031		0.079843	-0.621929	-0.778993	-0.257598	-0.767815	0.586603	-0.962948	0.153831	-0.221512
13032		0.075783	-0.623844	-0.777866	-0.252235	-0.766731	0.590340	-0.964694	0.151468	-0.215461
13033		0.071190	-0.625406	-0.777046	-0.246945	-0.765821	0.593747	-0.966411	0.149619	-0.208960
13034		0.066342	-0.626543	-0.776559	-0.241452	-0.765223	0.596770	-0.968142	0.147910	-0.202046
13035		0.061348	-0.627189	-0.776447	-0.235422	-0.765056	0.599387	-0.969955	0.146021	-0.194589
13036		0.056117	-0.627378	-0.776691	-0.229036	-0.765261	0.601597	-0.971799	0.144130	-0.186636
13037		0.050335	-0.627047	-0.777354	-0.223439	-0.765682	0.603164	-0.973417	0.143331	-0.178647
13038		0.043849	-0.626314	-0.778336	-0.219682	-0.766062	0.604061	-0.974586	0.144499	-0.171181
13039		0.036624	-0.625291	-0.779532	-0.218047	-0.766260	0.604401	-0.975251	0.147839	-0.164406
13040		0.028910	-0.624030	-0.780865	-0.218123	-0.766304	0.604318	-0.975493	0.152854	-0.158269
13041		0.021336	-0.622863	-0.782040	-0.218497	-0.766214	0.604297	-0.975604	0.157980	-0.152441
13042		0.013726	-0.621707	-0.783130	-0.217487	-0.766309	0.604541	-0.975967	0.162023	-0.145731
13043		0.005733	-0.620570	-0.784130	-0.215604	-0.766467	0.605015	-0.976464	0.165593	-0.138192
13044		-0.002870	-0.619294	-0.785154	-0.212770	-0.766801	0.605595	-0.977098	0.168795	-0.129567
13045		-0.012183	-0.617665	-0.786347	-0.209467	-0.767381	0.606012	-0.977740	0.172097	-0.120031
13046		-0.022148	-0.615576	-0.787766	-0.206430	-0.768164	0.606062	-0.978211	0.176042	-0.110060
13047		-0.032351	-0.613044	-0.789387	-0.203930	-0.769136	0.605675	-0.978451	0.180574	-0.100135
13048		-0.043078	-0.609878	-0.791324	-0.201571	-0.770465	0.604775	-0.978526	0.185561	-0.089743
13049		-0.054712	-0.605785	-0.793745	-0.199257	-0.772323	0.603170	-0.978419	0.191160	-0.078452
13050		-0.067650	-0.600242	-0.796952	-0.198041	-0.774809	0.600376	-0.977856	0.198445	-0.066457
13051		-0.081403	-0.593106	-0.800999	-0.198068	-0.778010	0.596212	-0.976802	0.207186	-0.054143
13052		-0.095826	-0.584117	-0.805993	-0.198692	-0.782199	0.590496	-0.975366	0.216730	-0.041104
13053		-0.110580	-0.573360	-0.811807	-0.199469	-0.787393	0.583287	-0.973645	0.226430	-0.027297
13054		-0.125360	-0.561148	-0.818167	-0.200055	-0.793435	0.574838	-0.971732	0.235741	-0.012795
13055		-0.140255	-0.547722	-0.824821	-0.199548	-0.800324	0.565387	-0.969798	0.243890	0.002953
13056		-0.155751	-0.532852	-0.831751	-0.197706	-0.808173	0.554769	-0.967809	0.250848	0.020525
13057		-0.171782	-0.516531	-0.838860	-0.195555	-0.816693	0.542928	-0.965531	0.257308	0.039283
13058		-0.188340	-0.498591	-0.846129	-0.193871	-0.825719	0.529718	-0.962778	0.263807	0.058853
13059		-0.205123	-0.479234	-0.853381	-0.192401	-0.835164	0.515250	-0.959639	0.269881	0.079106
13060		-0.222039	-0.458352	-0.860588	-0.191191	-0.845019	0.499388	-0.956109	0.275421	0.099995
13061		-0.238650	-0.436490	-0.867481	-0.190357	-0.854935	0.482546	-0.952266	0.280290	0.120942
13062		-0.255352	-0.413663	-0.873887	-0.190353	-0.864651	0.464913	-0.947925	0.285063	0.142049
13063		-0.272342	-0.390023	-0.879609	-0.190968	-0.874069	0.446693	-0.943060	0.289630	0.163564
13064		-0.289791	-0.365244	-0.884657	-0.192618	-0.883151	0.427718	-0.937507	0.294349	0.185577
13065		-0.307218	-0.339673	-0.888954	-0.195219	-0.891768	0.408214	-0.931400	0.298952	0.207656
13066		-0.324683	-0.313204	-0.892460	-0.199301	-0.899738	0.388265	-0.924586	0.303931	0.229708
13067		-0.341941	-0.286129	-0.895101	-0.204614	-0.906994	0.368096	-0.917175	0.309017	0.251593
13068		-0.359037	-0.258033	-0.896945	-0.211331	-0.913588	0.347414	-0.909083	0.314287	0.273482
13069		-0.375665	-0.229114	-0.897988	-0.219473	-0.919402	0.326392	-0.900393	0.319699	0.295102
13070		-0.391651	-0.199397	-0.898249	-0.228875	-0.924440	0.305004	-0.891193	0.325042	0.316421
13071		-0.406972	-0.169285	-0.897617	-0.239300	-0.928597	0.283625	-0.881538	0.330227	0.337403
13072		-0.421952	-0.138634	-0.895956	-0.250639	-0.931887	0.262233	-0.871284	0.335212	0.358464
13073		-0.436511	-0.107994	-0.893194	-0.263545	-0.933874	0.241709	-0.860234	0.340905	0.379185
13074		-0.450764	-0.077330	-0.889287	-0.277609	-0.934694	0.221993	-0.848378	0.346941	0.399859
13075		-0.464337	-0.047113	-0.884405	-0.291671	-0.934745	0.202930	-0.836253	0.352183	0.420295
13076		-0.477354	-0.016985	-0.878547	-0.305752	-0.934125	0.184188	-0.823801	0.356541	0.440716
13077		-0.489678	0.012825	-0.871809	-0.319667	-0.932906	0.165827	-0.811190	0.359890	0.460924
13078		-0.501842	0.042526	-0.863913	-0.333781	-0.930949	0.148066	-0.797963	0.362664	0.481384
13079		-0.513701	0.071390	-0.854994	-0.347637	-0.928384	0.131350	-0.784385	0.364702	0.501729
13080		-0.524973	0.099331	-0.845303	-0.360755	-0.925507	0.115291	-0.770882	0.365472	0.521701
13081		-0.535514	0.125833	-0.835099	-0.372494	-0.922649	0.099839	-0.757940	0.364535	0.540963
13082		-0.545652	0.151035	-0.824289	-0.383604	-0.919536	0.085446	-0.745058	0.362824	0.559685
13083		-0.555372	0.174233	-0.813145	-0.394278	-0.916088	0.072998	-0.732193	0.361146	0.577466
13084		-0.564889	0.195787	-0.801603	-0.404533	-0.912404	0.062225	-0.719203	0.359425	0.594610
13085		-0.574300	0.215702	-0.789717	-0.414074	-0.908703	0.052922	-0.706203	0.357395	0.611185
13086		-0.583845	0.234681	-0.777207	-0.423698	-0.904679	0.045114	-0.692535	0.355641	0.627626
13087		-0.593493	0.252519	-0.764199	-0.433976	-0.900053	0.039625	-0.677813	0.355161	0.643763
13088		-0.603066	0.269624	-0.750743	-0.444544	-0.895047	0.035648	-0.662339	0.355236	0.659632
13089		-0.612390	0.285843	-0.737070	-0.454103	-0.890375	0.031993	-0.647124	0.354298	0.675058
13090		-0.621244	0.301561	-0.723268	-0.463241	-0.885771	0.028581	-0.632031	0.352803	0.689976
13091		-0.629360	0.316408	-0.709783	-0.472351	-0.881024	0.026087	-0.617082	0.351685	0.703937
13092		-0.636716	0.330582	-0.696640	-0.481640	-0.876027	0.024502	-0.602175	0.351131	0.717002
13093		-0.643414	0.344250	-0.683747	-0.491367	-0.870620	0.024047	-0.587006	0.351443	0.729322
13094		-0.649662	0.358024	-0.670640	-0.501829	-0.864618	0.024551	-0.571057	0.352497	0.741377
13095		-0.655471	0.371771	-0.657376	-0.512134	-0.858538	0.025114	-0.555046	0.353126	0.753144
13096		-0.660775	0.386085	-0.643672	-0.522803	-0.852069	0.025609	-0.538566	0.353436	0.764872
13097		-0.665352	0.400651	-0.629909	-0.532897	-0.845813	0.024906	-0.522807	0.352248	0.776269
13098		-0.669080	0.415936	-0.615897	-0.542317	-0.839888	0.021942	-0.508158	0.348693	0.787521
13099		-0.672052	0.431642	-0.601690	-0.551376	-0.834073	0.017504	-0.494298	0.343521	0.798538
13100		-0.674364	0.447891	-0.587049	-0.560814	-0.827846	0.012619	-0.480334	0.337735	0.809453
13101		-0.676169	0.464384	-0.571965	-0.570314	-0.821394	0.007319	-0.466409	0.331149	0.820246
13102		-0.677250	0.481340	-0.556457	-0.579962	-0.814643	0.001184	-0.452744	0.323525	0.830876
13103		-0.677384	0.498533	-0.540939	-0.589314	-0.807877	-0.006582	-0.440294	0.314325	0.841036
13104		-0.676280	0.516211	-0.525520	-0.598310	-0.801086	-0.016945	-0.429734	0.302964	0.850612
13105		-0.674059	0.533944	-0.510439	-0.606664	-0.794397	-0.029849	-0.421429	0.289545	0.859396
13106		-0.670799	0.551790	-0.495537	-0.614949	-0.787324	-0.044255	-0.414567	0.275043	0.867459
13107		-0.666724	0.569368	-0.480935	-0.623457	-0.779651	-0.058709	-0.408388	0.260700	0.874788
13108		-0.661743	0.586743	-0.466722	-0.632748	-0.770993	-0.072116	-0.402153	0.247595	0.881459
13109		-0.656033	0.603616	-0.453066	-0.642712	-0.761500	-0.083903	-0.395655	0.236148	0.887520
13110		-0.649570	0.620081	-0.439953	-0.653470	-0.751115	-0.093822	-0.388633	0.226553	0.893106
13111		-0.642625	0.635779	-0.427572	-0.664769	-0.740133	-0.101419	-0.380940	0.219062	0.898274
13112		-0.635153	0.650925	-0.415786	-0.676483	-0.728606	-0.107260	-0.372762	0.213146	0.903115
13113		-0.627485	0.665171	-0.404735	-0.688299	-0.716876	-0.111055	-0.364015	0.208894	0.907665
13114		-0.619527	0.678572	-0.394622	-0.699979	-0.705085	-0.113513	-0.355269	0.205903	0.911805
13115		-0.611613	0.691094	-0.385122	-0.710925	-0.693675	-0.115765	-0.347154	0.202989	0.915576
13116		-0.603712	0.702967	-0.375991	-0.721475	-0.682412	-0.117422	-0.339125	0.200379	0.919153
13117		-0.595738	0.714313	-0.367223	-0.731611	-0.671278	-0.118876	-0.331423	0.197846	0.922505
13118		-0.587404	0.725523	-0.358571	-0.741613	-0.659935	-0.120399	-0.323986	0.195198	0.925706
13119		-0.579189	0.736050	-0.350386	-0.750941	-0.648997	-0.122029	-0.317219	0.192441	0.928622
13120		-0.571343	0.745953	-0.342230	-0.759649	-0.638497	-0.123511	-0.310647	0.189407	0.931463
13121		-0.564090	0.755251	-0.333763	-0.767794	-0.628482	-0.124512	-0.303802	0.186026	0.934398
13122		-0.556968	0.764361	-0.324868	-0.775412	-0.618697	-0.126295	-0.297530	0.181564	0.937289
13123		-0.549861	0.773211	-0.315907	-0.782259	-0.609297	-0.129725	-0.292785	0.175790	0.939880
13124		-0.542386	0.781993	-0.307090	-0.788591	-0.599938	-0.134901	-0.289727	0.169000	0.942071
13125		-0.534863	0.790489	-0.298411	-0.794648	-0.590637	-0.140291	-0.287151	0.162096	0.944071
13126		-0.527206	0.798849	-0.289643	-0.800505	-0.581256	-0.146058	-0.285036	0.154858	0.945925
13127		-0.519613	0.806843	-0.281081	-0.806307	-0.571887	-0.151043	-0.282615	0.148154	0.947723
13128		-0.511753	0.814714	-0.272672	-0.812078	-0.562309	-0.156005	-0.280426	0.141595	0.949375
13129		-0.503623	0.822267	-0.265031	-0.817646	-0.552721	-0.161108	-0.278962	0.135564	0.950685
13130		-0.495214	0.829660	-0.257733	-0.823307	-0.542884	-0.165659	-0.277360	0.130157	0.951909
13131		-0.486893	0.836885	-0.250118	-0.829040	-0.532936	-0.169330	-0.275007	0.124913	0.953293
13132		-0.478378	0.844100	-0.242175	-0.834751	-0.522728	-0.173048	-0.272662	0.119373	0.954676
13133		-0.469413	0.851279	-0.234469	-0.839927	-0.512400	-0.178797	-0.272348	0.113007	0.955540
13134		-0.459789	0.858566	-0.226845	-0.844614	-0.501697	-0.186889	-0.274264	0.105667	0.955831
13135		-0.449774	0.865853	-0.219094	-0.849326	-0.490531	-0.194999	-0.276313	0.098377	0.956020
13136		-0.439436	0.873247	-0.210561	-0.854113	-0.478785	-0.203116	-0.278184	0.090586	0.956247
13137		-0.428784	0.880678	-0.201370	-0.858765	-0.466544	-0.211800	-0.280475	0.082113	0.956342
13138		-0.417463	0.888197	-0.191915	-0.863395	-0.453556	-0.220990	-0.283327	0.073443	0.956207
13139		-0.405045	0.895898	-0.182498	-0.868069	-0.439493	-0.230871	-0.287044	0.064908	0.955716
13140		-0.391385	0.903763	-0.173290	-0.872755	-0.424256	-0.241467	-0.291748	0.056733	0.954811
13141		-0.376883	0.911690	-0.163648	-0.877612	-0.407975	-0.251701	-0.296237	0.048758	0.953869
13142		-0.361463	0.919658	-0.153539	-0.882819	-0.390552	-0.260960	-0.299959	0.041220	0.953061
13143		-0.345315	0.927548	-0.142869	-0.888239	-0.372162	-0.269308	-0.302966	0.033906	0.952398
13144		-0.328210	0.935383	-0.131669	-0.893452	-0.352654	-0.278171	-0.306630	0.026341	0.951464
13145		-0.310505	0.942967	-0.119999	-0.898062	-0.332382	-0.288108	-0.311562	0.018308	0.950050
13146		-0.292502	0.950223	-0.107326	-0.901761	-0.311438	-0.299723	-0.318229	0.009113	0.947970
13147		-0.274218	0.957060	-0.094027	-0.904495	-0.289890	-0.312815	-0.326640	-0.000733	0.945148
13148		-0.255675	0.963438	-0.080111	-0.906005	-0.267696	-0.327864	-0.337322	-0.011245	0.941322
13149		-0.236309	0.969481	-0.065311	-0.906508	-0.244162	-0.344423	-0.349858	-0.022186	0.936540
13150		-0.215457	0.975214	-0.050350	-0.906441	-0.218910	-0.361169	-0.363240	-0.032177	0.931140
13151		-0.192844	0.980571	-0.035944	-0.905026	-0.191902	-0.379606	-0.379129	-0.040675	0.924450
13152		-0.168694	0.985420	-0.022136	-0.902932	-0.163502	-0.397468	-0.395292	-0.047063	0.917349
13153		-0.143494	0.989612	-0.008809	-0.899894	-0.134178	-0.414954	-0.411826	-0.051616	0.909800
13154		-0.117112	0.993113	0.003312	-0.895766	-0.104191	-0.432142	-0.428821	-0.053575	0.901799
13155		-0.089219	0.995900	0.014931	-0.890610	-0.073057	-0.448862	-0.445931	-0.053345	0.893476
13156		-0.059664	0.997869	0.026426	-0.884560	-0.040584	-0.464657	-0.462594	-0.051099	0.885096
13157		-0.029087	0.998828	0.038675	-0.877524	-0.006988	-0.479481	-0.478649	-0.047885	0.876700
13158		0.001802	0.998643	0.052053	-0.870145	0.027217	-0.492043	-0.492792	-0.044407	0.869013
13159		0.032349	0.997246	0.066734	-0.862513	0.061590	-0.502273	-0.505000	-0.041311	0.862130
13160		0.062585	0.994772	0.080701	-0.853868	0.095232	-0.511704	-0.516714	-0.036882	0.855363
13161		0.092429	0.991315	0.093545	-0.842583	0.127929	-0.523153	-0.530576	-0.030465	0.847089
13162		0.122634	0.986810	0.105672	-0.828279	0.160423	-0.536860	-0.546731	-0.021688	0.837027
13163		0.154364	0.981132	0.116415	-0.810179	0.193137	-0.553451	-0.565493	-0.008884	0.824705
13164		0.186398	0.974274	0.126672	-0.788578	0.225265	-0.572189	-0.586004	0.006764	0.810280
13165		0.219287	0.966063	0.136512	-0.765290	0.257101	-0.590110	-0.605181	0.024933	0.795697
13166		0.253160	0.956491	0.145033	-0.741810	0.288158	-0.605544	-0.620990	0.045713	0.782484
13167		0.288119	0.945237	0.153342	-0.715386	0.318915	-0.621705	-0.636561	0.069426	0.768095
13168		0.324276	0.931722	0.163521	-0.687971	0.350930	-0.635250	-0.649261	0.093498	0.754796
13169		0.358467	0.916712	0.176464	-0.661661	0.382837	-0.644702	-0.658563	0.114345	0.743788
13170		0.390023	0.900817	0.190816	-0.635398	0.413276	-0.652282	-0.666446	0.133161	0.733565
13171		0.420346	0.884220	0.203628	-0.605807	0.440560	-0.662499	-0.675505	0.155120	0.720854
13172		0.450497	0.866580	0.214691	-0.570840	0.464490	-0.677045	-0.686435	0.182453	0.703930
13173		0.480809	0.847675	0.224211	-0.530525	0.484834	-0.695327	-0.698116	0.215369	0.682825
13174		0.509702	0.828159	0.233146	-0.488619	0.501689	-0.713834	-0.708135	0.249923	0.660366
13175		0.536093	0.808543	0.242618	-0.448249	0.516196	-0.729805	-0.715317	0.282490	0.639157
13176		0.559889	0.788977	0.253061	-0.409117	0.528836	-0.743610	-0.720519	0.312807	0.618874
13177		0.581031	0.769939	0.263813	-0.371409	0.539256	-0.755816	-0.724195	0.341170	0.599287
13178		0.600302	0.751161	0.274581	-0.334977	0.547907	-0.766543	-0.726242	0.368179	0.580531
13179		0.617726	0.733083	0.284611	-0.299730	0.554083	-0.776630	-0.727033	0.394438	0.561998
13180		0.633007	0.716125	0.294054	-0.267364	0.558704	-0.785090	-0.726512	0.418348	0.545129
13181		0.645876	0.700814	0.302827	-0.238467	0.562007	-0.792011	-0.725243	0.439327	0.530108
13182		0.656556	0.687028	0.311329	-0.213373	0.565063	-0.796979	-0.723468	0.456833	0.517588
13183		0.665622	0.674683	0.318983	-0.190744	0.567032	-0.801306	-0.721501	0.472523	0.506120
13184		0.673276	0.663505	0.326283	-0.171039	0.569077	-0.804299	-0.719336	0.485708	0.496632
13185		0.679468	0.653606	0.333351	-0.154163	0.571378	-0.806078	-0.717327	0.496313	0.488994
13186		0.684199	0.645020	0.340325	-0.139851	0.574030	-0.806803	-0.715761	0.504419	0.482958
13187		0.687783	0.637861	0.346537	-0.127328	0.575983	-0.807484	-0.714662	0.511250	0.477369
13188		0.690929	0.631645	0.351627	-0.115418	0.576540	-0.808876	-0.713649	0.518292	0.471252
13189		0.693641	0.626528	0.355423	-0.104213	0.575517	-0.811122	-0.712743	0.525588	0.464494
13190		0.696305	0.621962	0.358222	-0.093642	0.573549	-0.813802	-0.711611	0.533110	0.457606
13191		0.698030	0.618796	0.360341	-0.085073	0.571321	-0.816305	-0.710997	0.539150	0.451442
13192		0.698873	0.616636	0.362404	-0.078349	0.569637	-0.818154	-0.710942	0.543391	0.446417
13193		0.698383	0.615940	0.364526	-0.073370	0.568239	-0.819586	-0.711953	0.545640	0.442040
13194		0.696786	0.616167	0.367189	-0.068807	0.566977	-0.820855	-0.713971	0.546695	0.437458
13195		0.694220	0.617109	0.370453	-0.063945	0.565531	-0.822244	-0.716917	0.547130	0.432063
13196		0.691054	0.618288	0.374387	-0.058451	0.564071	-0.823655	-0.720436	0.547306	0.425943
13197		0.687218	0.619931	0.378704	-0.052684	0.562465	-0.825141	-0.724538	0.547100	0.419197
13198		0.682776	0.621969	0.383370	-0.045885	0.560179	-0.827100	-0.729186	0.547132	0.411016
13199		0.678304	0.624009	0.387963	-0.037286	0.556549	-0.829978	-0.733834	0.548512	0.400776
13200		0.674173	0.625672	0.392461	-0.027010	0.551908	-0.833468	-0.738080	0.551301	0.388980
13201		0.670130	0.627234	0.396868	-0.016311	0.547002	-0.836972	-0.742065	0.554407	0.376793
13202		0.666000	0.628579	0.401663	-0.005754	0.542770	-0.839862	-0.745930	0.557036	0.365102
13203		0.661810	0.629553	0.407027	0.003566	0.540290	-0.841471	-0.749663	0.558345	0.355324
13204		0.658038	0.629634	0.412974	0.012867	0.538967	-0.842229	-0.752875	0.559532	0.346559
13205		0.654909	0.628785	0.419195	0.022969	0.537887	-0.842704	-0.755359	0.561523	0.337824
13206		0.652350	0.627295	0.425372	0.033758	0.536632	-0.843141	-0.757166	0.564383	0.328895
13207		0.650454	0.625399	0.431029	0.045918	0.534067	-0.844194	-0.758157	0.568901	0.318669
13208		0.649405	0.622848	0.436272	0.059317	0.530470	-0.845626	-0.758126	0.575032	0.307544
13209		0.649009	0.619781	0.441201	0.072069	0.527238	-0.846656	-0.757359	0.581284	0.297515
13210		0.649498	0.616057	0.445674	0.084013	0.524401	-0.847317	-0.755708	0.587773	0.288841
13211		0.650668	0.611821	0.449784	0.094761	0.522267	-0.847500	-0.753426	0.594064	0.281846
13212		0.652581	0.607198	0.453265	0.104341	0.520486	-0.847471	-0.750501	0.600338	0.276303
13213		0.655335	0.602187	0.455969	0.113522	0.518283	-0.847641	-0.746759	0.607251	0.271287
13214		0.658857	0.597097	0.457583	0.121977	0.515428	-0.848207	-0.742313	0.614662	0.266762
13215		0.663024	0.592276	0.457830	0.129143	0.511919	-0.849271	-0.737375	0.622213	0.262926
13216		0.668032	0.587746	0.456385	0.135410	0.507057	-0.851209	-0.731708	0.630434	0.259144
13217		0.673796	0.583563	0.453270	0.140769	0.500815	-0.854031	-0.725385	0.639249	0.255299
13218		0.680120	0.580167	0.448156	0.144167	0.493532	-0.857696	-0.718786	0.647945	0.252020
13219		0.686946	0.577564	0.441050	0.145673	0.485154	-0.862209	-0.711958	0.656540	0.249139
13220		0.694297	0.575809	0.431735	0.145140	0.475539	-0.867639	-0.704901	0.665061	0.246592
13221		0.701831	0.575031	0.420443	0.141958	0.465483	-0.873598	-0.698055	0.672804	0.245060
13222		0.709713	0.575354	0.406541	0.135292	0.455018	-0.880145	-0.691378	0.679652	0.245091
13223		0.718352	0.576127	0.389934	0.126921	0.442566	-0.887709	-0.684005	0.687178	0.244795
13224		0.727467	0.577641	0.370300	0.115997	0.428380	-0.896122	-0.676266	0.694854	0.244628
13225		0.736587	0.580057	0.347812	0.101489	0.413638	-0.904767	-0.668685	0.701739	0.245811
13226		0.745301	0.583691	0.322227	0.083014	0.398297	-0.913493	-0.661540	0.707576	0.248397
13227		0.753505	0.588138	0.293810	0.061608	0.381767	-0.922203	-0.654549	0.712986	0.251429
13228		0.760799	0.593587	0.262374	0.036920	0.364040	-0.930651	-0.647937	0.717725	0.255046
13229		0.767050	0.599645	0.228166	0.009756	0.344686	-0.938667	-0.641513	0.722231	0.258541
13230		0.772059	0.606211	0.190874	-0.019757	0.323076	-0.946167	-0.635243	0.726726	0.261411
13231		0.775520	0.613008	0.150963	-0.051543	0.299802	-0.952608	-0.629215	0.730985	0.264099
13232		0.776902	0.620255	0.108197	-0.086132	0.274928	-0.957599	-0.623702	0.734641	0.267016
13233		0.776247	0.627277	0.062953	-0.122926	0.248544	-0.960789	-0.618328	0.738071	0.270040
13234		0.773041	0.634181	0.014887	-0.162583	0.220757	-0.961683	-0.613167	0.741000	0.273761
13235		0.766967	0.640701	-0.035546	-0.204358	0.191371	-0.960008	-0.608275	0.743559	0.277707
13236		0.757330	0.647000	-0.088556	-0.247543	0.158940	-0.955751	-0.604296	0.745740	0.280531
13237		0.744137	0.652339	-0.143926	-0.291064	0.122688	-0.948804	-0.601284	0.747932	0.281169
13238		0.727404	0.655876	-0.201765	-0.336234	0.084351	-0.937994	-0.598189	0.750141	0.281885
13239		0.707130	0.657312	-0.260592	-0.383337	0.046693	-0.922427	-0.594155	0.752171	0.284990
13240		0.682674	0.656526	-0.320827	-0.432140	0.008682	-0.901765	-0.589247	0.754253	0.289638
13241		0.654356	0.653052	-0.381237	-0.482262	-0.027920	-0.875582	-0.582445	0.756798	0.296672
13242		0.621568	0.647177	-0.441379	-0.532207	-0.064567	-0.844149	-0.574813	0.759600	0.304299
13243		0.585067	0.638368	-0.500182	-0.579505	-0.102377	-0.808513	-0.567336	0.762892	0.310040
13244		0.544706	0.626464	-0.557529	-0.624217	-0.141097	-0.768404	-0.560043	0.766573	0.314193
13245		0.501767	0.610798	-0.612499	-0.665313	-0.180005	-0.724539	-0.552800	0.771053	0.316052
13246		0.456537	0.590805	-0.665224	-0.702210	-0.219850	-0.677176	-0.546328	0.776283	0.314499
13247		0.410414	0.566460	-0.714621	-0.734543	-0.259025	-0.627178	-0.540376	0.782323	0.309782
13248		0.362229	0.538343	-0.760905	-0.763199	-0.297337	-0.573689	-0.535087	0.788528	0.303159
13249		0.311786	0.507088	-0.803524	-0.787576	-0.335151	-0.517105	-0.531520	0.794062	0.294875
13250		0.258340	0.474900	-0.841267	-0.807797	-0.371415	-0.457727	-0.529834	0.797823	0.287672
13251		0.205087	0.442120	-0.873195	-0.827808	-0.397631	-0.395758	-0.522182	0.804002	0.284441
13252		0.150745	0.407232	-0.900798	-0.845240	-0.419469	-0.331081	-0.512683	0.811300	0.280976
13253		0.096270	0.369911	-0.924066	-0.859543	-0.437246	-0.264581	-0.501915	0.819745	0.275860
13254		0.041847	0.330362	-0.942926	-0.869882	-0.452197	-0.197036	-0.491482	0.828480	0.268453
13255		-0.012871	0.290440	-0.956807	-0.875494	-0.465542	-0.129538	-0.483057	0.836012	0.260271
13256		-0.067396	0.250201	-0.965845	-0.875126	-0.479749	-0.063212	-0.479179	0.840976	0.251290
13257		-0.120369	0.210356	-0.970186	-0.870909	-0.491443	0.001497	-0.476476	0.845124	0.242355
13258		-0.171515	0.170235	-0.970362	-0.863839	-0.499551	0.065049	-0.473672	0.849393	0.232736
13259		-0.220015	0.129051	-0.966923	-0.853436	-0.505559	0.126717	-0.472484	0.853086	0.221368
13260		-0.267279	0.087823	-0.959609	-0.840568	-0.508180	0.187615	-0.471177	0.856762	0.209647
13261		-0.312707	0.046969	-0.948688	-0.824426	-0.509458	0.246525	-0.471738	0.859213	0.198033
13262		-0.356555	0.006278	-0.934253	-0.804806	-0.509939	0.303725	-0.474505	0.860188	0.186874
13263		-0.398079	-0.033732	-0.916731	-0.781851	-0.510237	0.358284	-0.479836	0.859372	0.176741
13264		-0.437706	-0.073465	-0.896112	-0.755253	-0.510742	0.410775	-0.487859	0.856590	0.168069
13265		-0.475436	-0.112773	-0.872492	-0.726229	-0.509443	0.461582	-0.496540	0.853082	0.160308
13266		-0.512196	-0.151616	-0.845380	-0.694685	-0.505664	0.511583	-0.505043	0.849303	0.153674
13267		-0.547418	-0.189101	-0.815215	-0.661283	-0.499259	0.559863	-0.512873	0.845566	0.148254
13268		-0.580919	-0.225117	-0.782212	-0.626384	-0.490039	0.606222	-0.519785	0.842131	0.143663
13269		-0.612387	-0.258792	-0.747000	-0.591969	-0.476170	0.650258	-0.523981	0.840410	0.138403
13270		-0.642020	-0.289427	-0.709960	-0.558654	-0.457601	0.691742	-0.525087	0.840734	0.132099
13271		-0.669366	-0.315693	-0.672523	-0.527646	-0.435251	0.729483	-0.523010	0.843145	0.124768
13272		-0.694087	-0.338395	-0.635400	-0.498383	-0.411039	0.763322	-0.519478	0.846484	0.116647
13273		-0.715677	-0.358116	-0.599633	-0.470864	-0.386703	0.792936	-0.515843	0.849831	0.108131
13274		-0.734268	-0.374912	-0.565943	-0.445779	-0.362458	0.818478	-0.511988	0.853267	0.099013
13275		-0.750493	-0.388312	-0.534765	-0.423217	-0.339098	0.840178	-0.507589	0.856870	0.090150
13276		-0.763556	-0.399842	-0.507058	-0.403178	-0.318178	0.858027	-0.504410	0.859587	0.081739
13277		-0.774799	-0.407693	-0.483191	-0.386307	-0.299704	0.872321	-0.500453	0.862533	0.074716
13278		-0.784548	-0.413147	-0.462378	-0.372056	-0.282882	0.884055	-0.496043	0.865614	0.068221
13279		-0.792712	-0.417478	-0.444207	-0.358585	-0.269943	0.893615	-0.492975	0.867665	0.064286
13280		-0.799920	-0.420734	-0.427915	-0.344110	-0.262606	0.901458	-0.491647	0.868344	0.065285
13281		-0.805810	-0.424059	-0.413333	-0.328232	-0.261113	0.907791	-0.492884	0.867176	0.071218
13282		-0.810856	-0.427333	-0.399874	-0.311202	-0.263824	0.912990	-0.495647	0.864744	0.080936
13283		-0.815310	-0.430054	-0.387714	-0.294075	-0.269264	0.917070	-0.498787	0.861713	0.093066
13284		-0.818874	-0.432731	-0.377081	-0.277637	-0.276369	0.920075	-0.502358	0.858117	0.106169
13285		-0.821398	-0.435418	-0.368398	-0.263159	-0.283722	0.922090	-0.506017	0.854349	0.118465
13286		-0.822794	-0.438313	-0.361788	-0.250830	-0.291168	0.923204	-0.509994	0.850354	0.129629
13287		-0.823280	-0.441061	-0.357318	-0.241678	-0.297220	0.923717	-0.513617	0.846833	0.138101
13288		-0.823075	-0.443227	-0.355103	-0.235957	-0.301865	0.923689	-0.516597	0.844055	0.143875
13289		-0.822005	-0.444923	-0.355459	-0.233673	-0.305696	0.923009	-0.519331	0.841780	0.147317
13290		-0.820005	-0.446196	-0.358470	-0.234925	-0.308733	0.921680	-0.521922	0.839996	0.148340
13291		-0.816802	-0.447302	-0.364356	-0.239475	-0.311701	0.919507	-0.524868	0.838310	0.147481
13292		-0.812503	-0.448105	-0.372881	-0.246762	-0.315137	0.916404	-0.528154	0.836595	0.145475
13293		-0.807350	-0.448454	-0.383503	-0.256380	-0.318777	0.912497	-0.531465	0.835027	0.142390
13294		-0.801591	-0.447996	-0.395918	-0.267668	-0.323229	0.907677	-0.534608	0.833560	0.139183
13295		-0.795211	-0.446949	-0.409727	-0.280029	-0.328641	0.901986	-0.537795	0.832005	0.136181
13296		-0.788426	-0.445041	-0.424645	-0.293074	-0.335174	0.895414	-0.540826	0.830420	0.133829
13297		-0.781100	-0.442469	-0.440573	-0.306448	-0.343114	0.887898	-0.544034	0.828550	0.132412
13298		-0.773075	-0.439258	-0.457611	-0.319790	-0.353139	0.879219	-0.547805	0.826042	0.132533
13299		-0.764136	-0.435557	-0.475801	-0.333162	-0.365127	0.869301	-0.552358	0.822783	0.133896
13300		-0.754184	-0.431128	-0.495313	-0.346790	-0.379027	0.857948	-0.557623	0.818820	0.136345
13301		-0.743023	-0.425972	-0.516202	-0.360857	-0.394587	0.845035	-0.563648	0.814155	0.139472
13302		-0.730475	-0.419538	-0.538882	-0.375777	-0.411963	0.830107	-0.570261	0.808872	0.143276
13303		-0.716153	-0.411778	-0.563528	-0.392512	-0.430011	0.813035	-0.577113	0.803448	0.146326
13304		-0.700022	-0.401829	-0.590341	-0.411629	-0.448472	0.793369	-0.583551	0.798377	0.148536
13305		-0.681749	-0.389860	-0.619054	-0.433600	-0.466220	0.771123	-0.589245	0.794134	0.148801
13306		-0.661364	-0.375278	-0.649434	-0.458454	-0.483025	0.745994	-0.593648	0.791109	0.147408
13307		-0.639281	-0.357299	-0.680924	-0.486306	-0.498086	0.717925	-0.595673	0.790093	0.144660
13308		-0.615409	-0.336525	-0.712757	-0.516949	-0.510303	0.687281	-0.595009	0.791418	0.140079
13309		-0.590635	-0.311240	-0.744500	-0.547256	-0.523527	0.653016	-0.593010	0.793126	0.138885
13310		-0.564098	-0.282674	-0.775815	-0.577293	-0.536758	0.615324	-0.590361	0.794975	0.139598
13311		-0.536139	-0.251334	-0.805845	-0.605257	-0.550981	0.574530	-0.588404	0.795771	0.143281
13312		-0.506473	-0.217286	-0.834429	-0.630319	-0.567045	0.530243	-0.588373	0.794511	0.150233
13313		-0.475181	-0.181441	-0.860978	-0.652159	-0.584249	0.483055	-0.590671	0.791033	0.159296
13314		-0.442567	-0.143864	-0.885120	-0.670968	-0.601716	0.433290	-0.594925	0.785647	0.169771
13315		-0.409149	-0.105466	-0.906352	-0.686303	-0.619018	0.381844	-0.601320	0.778264	0.180888
13316		-0.375554	-0.065395	-0.924490	-0.698494	-0.635653	0.328712	-0.609151	0.769200	0.193044
13317		-0.341313	-0.024761	-0.939624	-0.708209	-0.650498	0.274395	-0.618017	0.759104	0.204487
13318		-0.306300	0.016353	-0.951795	-0.716891	-0.661785	0.219335	-0.626297	0.749515	0.214428
13319		-0.270932	0.057029	-0.960908	-0.723806	-0.670155	0.164307	-0.634587	0.740027	0.222844
13320		-0.235368	0.097547	-0.966999	-0.729599	-0.675054	0.109488	-0.642096	0.731291	0.230057
13321		-0.200689	0.137211	-0.969998	-0.733765	-0.677089	0.056036	-0.649086	0.722996	0.236565
13322		-0.167010	0.175749	-0.970165	-0.736304	-0.676637	0.004177	-0.655716	0.715034	0.242410
13323		-0.134736	0.211894	-0.967960	-0.736372	-0.675060	-0.045276	-0.663025	0.706679	0.246987
13324		-0.103980	0.246170	-0.963633	-0.733296	-0.673529	-0.092934	-0.671912	0.696965	0.250549
13325		-0.074865	0.277497	-0.957805	-0.727453	-0.672162	-0.137880	-0.682061	0.686436	0.252188
13326		-0.047174	0.305779	-0.950933	-0.720183	-0.670095	-0.179747	-0.692179	0.676366	0.251828
13327		-0.021468	0.329644	-0.943861	-0.711700	-0.668082	-0.217141	-0.702155	0.667084	0.248950
13328		0.001845	0.349763	-0.936837	-0.701617	-0.667094	-0.250437	-0.712552	0.657762	0.244169
13329		0.022367	0.366262	-0.930243	-0.689438	-0.668182	-0.279658	-0.723999	0.647600	0.237570
13330		0.040693	0.380012	-0.924086	-0.677882	-0.668945	-0.304942	-0.734044	0.638830	0.230382
13331		0.057451	0.390426	-0.918840	-0.667934	-0.669006	-0.326031	-0.742000	0.632455	0.222344
13332		0.073894	0.397192	-0.914756	-0.658817	-0.669163	-0.343774	-0.748665	0.628060	0.212229
13333		0.089177	0.400760	-0.911833	-0.649364	-0.670771	-0.358319	-0.755231	0.624065	0.200422
13334		0.102462	0.403140	-0.909384	-0.640389	-0.672822	-0.370423	-0.761186	0.620313	0.189228
13335		0.113114	0.404865	-0.907353	-0.632499	-0.674936	-0.380009	-0.766257	0.616885	0.179732
13336		0.122353	0.406236	-0.905540	-0.626894	-0.675712	-0.387836	-0.769437	0.615130	0.171991
13337		0.131403	0.405938	-0.904405	-0.622277	-0.676405	-0.394014	-0.771689	0.614565	0.163724
13338		0.140809	0.403618	-0.904027	-0.619650	-0.676230	-0.398429	-0.772144	0.616283	0.154883
13339		0.148959	0.398941	-0.904797	-0.620626	-0.674625	-0.399630	-0.769827	0.621069	0.147101
13340		0.154312	0.392778	-0.906594	-0.625761	-0.671237	-0.397322	-0.764599	0.628622	0.142205
13341		0.155267	0.385576	-0.909518	-0.635388	-0.665996	-0.390808	-0.756422	0.638577	0.141583
13342		0.154854	0.375628	-0.913742	-0.646702	-0.660661	-0.381188	-0.746858	0.649947	0.140613
13343		0.154982	0.359260	-0.920279	-0.654174	-0.660725	-0.368103	-0.740295	0.659072	0.132618
13344		0.154175	0.338873	-0.928114	-0.656622	-0.666764	-0.352525	-0.738294	0.663770	0.119713
13345		0.158170	0.312686	-0.936595	-0.648363	-0.682510	-0.337352	-0.744720	0.660612	0.094782
13346		0.163889	0.282929	-0.945035	-0.620640	-0.715058	-0.321710	-0.766776	0.639251	0.058407
13347		0.168512	0.257777	-0.951396	-0.576298	-0.757280	-0.307257	-0.799677	0.600065	0.020946
13348		0.167921	0.244058	-0.955112	-0.552524	-0.779084	-0.296219	-0.816407	0.577464	0.004023
13349		0.162241	0.242963	-0.956372	-0.552577	-0.780618	-0.292053	-0.817519	0.575852	0.007608
13350		0.154614	0.247885	-0.956372	-0.567604	-0.770027	-0.291349	-0.808654	0.587887	0.021644
13351		0.146277	0.253259	-0.956276	-0.588753	-0.754542	-0.289891	-0.794967	0.605414	0.038735
13352		0.140565	0.256523	-0.956262	-0.600566	-0.745776	-0.288339	-0.787123	0.614829	0.049229
13353		0.138752	0.256120	-0.956635	-0.601965	-0.745229	-0.286831	-0.786375	0.615659	0.050774
13354		0.138465	0.253247	-0.957441	-0.599733	-0.747896	-0.284555	-0.788129	0.613610	0.048323
13355		0.140582	0.247373	-0.958668	-0.588663	-0.757660	-0.281828	-0.796060	0.603952	0.039106
13356		0.141716	0.241061	-0.960107	-0.572404	-0.771351	-0.278158	-0.807632	0.588989	0.028672
13357		0.142040	0.234765	-0.961619	-0.554504	-0.785862	-0.273762	-0.819970	0.572106	0.018554
13358		0.141222	0.228722	-0.963194	-0.539513	-0.797987	-0.268594	-0.830049	0.557587	0.010705
13359		0.139199	0.223245	-0.964772	-0.529818	-0.806297	-0.263017	-0.836610	0.547766	0.006044
13360		0.136951	0.218801	-0.966111	-0.528277	-0.808899	-0.258082	-0.837955	0.545719	0.004808
13361		0.134867	0.215189	-0.967215	-0.530487	-0.808773	-0.253909	-0.836896	0.547339	0.005078
13362		0.132207	0.213014	-0.968063	-0.533603	-0.807751	-0.250612	-0.835338	0.549694	0.006874
13363		0.129700	0.211714	-0.968687	-0.535999	-0.806931	-0.248127	-0.834196	0.551398	0.008820
13364		0.126724	0.211151	-0.969204	-0.537003	-0.806912	-0.246008	-0.834008	0.551641	0.011134
13365		0.124673	0.210056	-0.969708	-0.534922	-0.808903	-0.243997	-0.835653	0.549137	0.011515
13366		0.123910	0.208709	-0.970096	-0.530113	-0.812507	-0.242516	-0.838825	0.544310	0.009962
13367		0.123708	0.207453	-0.970392	-0.525756	-0.815664	-0.241399	-0.841592	0.540052	0.008165
13368		0.123426	0.206336	-0.970666	-0.522224	-0.818242	-0.240339	-0.843830	0.536569	0.006761
13369		0.123004	0.204822	-0.971040	-0.518583	-0.820985	-0.238862	-0.846133	0.532945	0.005233
13370		0.123225	0.202480	-0.971503	-0.513783	-0.824530	-0.237016	-0.849024	0.528348	0.002428
13371		0.123543	0.199568	-0.972065	-0.510383	-0.827296	-0.234713	-0.851027	0.525122	-0.000350
13372		0.123736	0.196535	-0.972658	-0.508442	-0.829191	-0.232227	-0.852160	0.523274	-0.002674
13373		0.123842	0.193359	-0.973281	-0.508811	-0.829702	-0.229577	-0.851924	0.523648	-0.004369
13374		0.123917	0.190423	-0.973850	-0.510215	-0.829516	-0.227122	-0.851073	0.525017	-0.005634
13375		0.124642	0.187111	-0.974399	-0.512350	-0.828859	-0.224701	-0.849683	0.527241	-0.007444
13376		0.124829	0.184089	-0.974951	-0.515711	-0.827430	-0.222264	-0.847620	0.530538	-0.008350
13377		0.125416	0.180989	-0.975456	-0.517461	-0.826951	-0.219966	-0.846466	0.532348	-0.010058
13378		0.126161	0.178296	-0.975856	-0.518314	-0.826914	-0.218092	-0.845833	0.533314	-0.011911
13379		0.127299	0.175963	-0.976131	-0.518202	-0.827344	-0.216721	-0.845731	0.533422	-0.014136
13380		0.128969	0.173906	-0.976281	-0.517274	-0.828152	-0.215853	-0.846046	0.532843	-0.016849
13381		0.131419	0.172023	-0.976287	-0.515654	-0.829246	-0.215527	-0.846658	0.531751	-0.020275
13382		0.133735	0.170605	-0.976222	-0.516468	-0.828725	-0.215581	-0.845799	0.533018	-0.022717
13383		0.135625	0.169677	-0.976123	-0.520850	-0.825887	-0.215930	-0.842805	0.537699	-0.023635
13384		0.137215	0.168975	-0.976022	-0.527796	-0.821343	-0.216397	-0.838215	0.544833	-0.023516
13385		0.138842	0.168232	-0.975921	-0.536614	-0.815471	-0.216916	-0.832327	0.553809	-0.022946
13386		0.140258	0.167666	-0.975816	-0.546814	-0.808506	-0.217514	-0.825422	0.564098	-0.021718
13387		0.141571	0.167043	-0.975733	-0.558339	-0.800446	-0.218045	-0.817444	0.575658	-0.020053
13388		0.142477	0.166719	-0.975656	-0.570287	-0.791829	-0.218587	-0.808995	0.587547	-0.017739
13389		0.143216	0.166603	-0.975568	-0.580654	-0.784102	-0.219147	-0.801455	0.597853	-0.015557
13390		0.144168	0.166368	-0.975468	-0.588283	-0.778245	-0.219676	-0.795700	0.605521	-0.014327
13391		0.145149	0.166058	-0.975375	-0.594186	-0.773618	-0.220132	-0.791122	0.611507	-0.013621
13392		0.145909	0.165835	-0.975300	-0.599085	-0.769723	-0.220506	-0.787278	0.616461	-0.012960
13393		0.146502	0.165638	-0.975244	-0.603106	-0.766497	-0.220783	-0.784092	0.620521	-0.012396
13394		0.146621	0.165644	-0.975225	-0.606295	-0.763940	-0.220911	-0.781607	0.623664	-0.011580
13395		0.146261	0.165688	-0.975272	-0.609978	-0.761043	-0.220770	-0.778803	0.627185	-0.010245
13396		0.145408	0.165771	-0.975385	-0.613867	-0.758034	-0.220345	-0.775902	0.630797	-0.008462
13397		0.144345	0.165623	-0.975568	-0.617395	-0.755382	-0.219592	-0.773296	0.634009	-0.006781
13398		0.142851	0.165313	-0.975841	-0.621319	-0.752497	-0.218431	-0.770426	0.637511	-0.004783
13399		0.141165	0.164770	-0.976178	-0.625069	-0.749814	-0.216953	-0.767699	0.640805	-0.002855
13400		0.139223	0.164429	-0.976514	-0.627724	-0.748026	-0.215451	-0.765885	0.642977	-0.000926
13401		0.137555	0.164412	-0.976754	-0.629035	-0.747237	-0.214364	-0.765111	0.643899	0.000634
13402		0.136136	0.164867	-0.976876	-0.628644	-0.747727	-0.213801	-0.765685	0.643213	0.001850
13403		0.135238	0.165683	-0.976862	-0.627631	-0.748563	-0.213852	-0.766674	0.642030	0.002753
13404		0.134743	0.166538	-0.976785	-0.626479	-0.749429	-0.214195	-0.767703	0.640797	0.003353
13405		0.134542	0.167249	-0.976691	-0.626279	-0.749477	-0.214613	-0.767902	0.640556	0.003908
13406		0.133948	0.168327	-0.976588	-0.627676	-0.748182	-0.215051	-0.766864	0.641787	0.005437
13407		0.133239	0.169749	-0.976439	-0.630373	-0.745736	-0.215659	-0.764773	0.644255	0.007644
13408		0.132350	0.171529	-0.976249	-0.634027	-0.742416	-0.216399	-0.761901	0.647608	0.010495
13409		0.131735	0.173356	-0.976009	-0.637001	-0.739589	-0.217342	-0.759523	0.650350	0.012998
13410		0.131086	0.175185	-0.975770	-0.639083	-0.737518	-0.218265	-0.757885	0.652209	0.015280
13411		0.130541	0.176806	-0.975550	-0.639754	-0.736683	-0.219122	-0.757413	0.652716	0.016945
13412		0.129964	0.177907	-0.975427	-0.638394	-0.737716	-0.219610	-0.758658	0.651248	0.017698
13413		0.129226	0.178441	-0.975428	-0.635790	-0.739965	-0.219597	-0.760967	0.648545	0.017828
13414		0.127756	0.179180	-0.975486	-0.633226	-0.742257	-0.219271	-0.763350	0.645716	0.018634
13415		0.125725	0.180283	-0.975547	-0.630778	-0.744456	-0.218870	-0.765710	0.642871	0.020122
13416		0.123553	0.181535	-0.975592	-0.627771	-0.747096	-0.218521	-0.768530	0.639447	0.021657
13417		0.121358	0.182925	-0.975608	-0.624146	-0.750192	-0.218298	-0.771826	0.635414	0.023130
13418		0.119368	0.184045	-0.975643	-0.618861	-0.754624	-0.218069	-0.776377	0.629818	0.023821
13419		0.117839	0.184949	-0.975658	-0.611611	-0.760521	-0.218036	-0.782333	0.622417	0.023498
13420		0.116506	0.185814	-0.975653	-0.603365	-0.767051	-0.218135	-0.788909	0.614089	0.022747
13421		0.115375	0.186932	-0.975574	-0.594993	-0.773441	-0.218567	-0.795407	0.605677	0.021988
13422		0.114362	0.188369	-0.975417	-0.587030	-0.779291	-0.219320	-0.801447	0.597681	0.021457
13423		0.113832	0.190081	-0.975147	-0.580075	-0.784134	-0.220562	-0.806570	0.590765	0.021002
13424		0.113305	0.192442	-0.974745	-0.572244	-0.789362	-0.222360	-0.812218	0.582987	0.020685
13425		0.112490	0.195280	-0.974275	-0.566886	-0.792664	-0.224332	-0.816080	0.577537	0.021534
13426		0.110863	0.198627	-0.973785	-0.564007	-0.794184	-0.226204	-0.818295	0.574299	0.023982
13427		0.109536	0.201884	-0.973265	-0.559593	-0.796719	-0.228242	-0.821497	0.569633	0.025703
13428		0.109287	0.205014	-0.972639	-0.552469	-0.800916	-0.230894	-0.826338	0.562586	0.025734
13429		0.110185	0.208323	-0.971834	-0.544686	-0.805227	-0.234365	-0.831370	0.555167	0.024746
13430		0.111268	0.212027	-0.970909	-0.538278	-0.808397	-0.238225	-0.835390	0.549125	0.024181
13431		0.112293	0.215738	-0.969973	-0.534686	-0.809663	-0.241982	-0.837556	0.545804	0.024433
13432		0.112813	0.219722	-0.969018	-0.532523	-0.809983	-0.245657	-0.838864	0.543737	0.025630
13433		0.113737	0.223829	-0.967969	-0.529508	-0.810727	-0.249686	-0.840646	0.540946	0.026309
13434		0.114157	0.228418	-0.966847	-0.528321	-0.810226	-0.253795	-0.841336	0.539778	0.028185
13435		0.114046	0.233160	-0.965728	-0.529588	-0.808175	-0.257662	-0.840553	0.540823	0.031309
13436		0.113554	0.237537	-0.964719	-0.531264	-0.806004	-0.260991	-0.839562	0.542157	0.034670
13437		0.113033	0.241468	-0.963803	-0.531883	-0.804626	-0.263967	-0.839240	0.542467	0.037483
13438		0.112358	0.245043	-0.962980	-0.531132	-0.804246	-0.266622	-0.839806	0.541427	0.039787
13439		0.111907	0.248237	-0.962214	-0.529146	-0.804715	-0.269145	-0.841119	0.539270	0.041300
13440		0.111146	0.251210	-0.961530	-0.527017	-0.805377	-0.271332	-0.842555	0.536900	0.042878
13441		0.110297	0.254006	-0.960893	-0.524546	-0.806307	-0.273352	-0.844208	0.534182	0.044304
13442		0.109011	0.256733	-0.960315	-0.521441	-0.807715	-0.275128	-0.846295	0.530740	0.045821
13443		0.107551	0.259446	-0.959750	-0.518165	-0.809242	-0.276826	-0.848492	0.527082	0.047401
13444		0.105818	0.262011	-0.959246	-0.515254	-0.810610	-0.278252	-0.850480	0.523699	0.049225
13445		0.103919	0.264126	-0.958873	-0.513629	-0.811332	-0.279150	-0.851696	0.521514	0.051350
13446		0.101812	0.265772	-0.958645	-0.512687	-0.811804	-0.279512	-0.852518	0.519942	0.053607
13447		0.099814	0.267125	-0.958479	-0.511304	-0.812605	-0.279717	-0.853584	0.517994	0.055472
13448		0.097871	0.268559	-0.958278	-0.509678	-0.813513	-0.280043	-0.854780	0.515822	0.057259
13449		0.096615	0.269751	-0.958071	-0.506877	-0.815069	-0.280603	-0.856587	0.512735	0.057982
13450		0.095732	0.270762	-0.957874	-0.503955	-0.816669	-0.281214	-0.858408	0.509647	0.058271
13451		0.095202	0.271511	-0.957715	-0.500858	-0.818372	-0.281795	-0.860278	0.506507	0.058078
13452		0.094209	0.272341	-0.957578	-0.498668	-0.819584	-0.282155	-0.861658	0.504095	0.058595
13453		0.092851	0.273050	-0.957508	-0.496809	-0.820693	-0.282211	-0.862879	0.501902	0.059451
13454		0.091006	0.273740	-0.957489	-0.494409	-0.822196	-0.282052	-0.864452	0.499059	0.060515
13455		0.089116	0.274128	-0.957555	-0.490905	-0.824414	-0.281699	-0.866643	0.495173	0.061102
13456		0.087234	0.274234	-0.957698	-0.486235	-0.827347	-0.281198	-0.869463	0.490196	0.061169
13457		0.085541	0.274085	-0.957894	-0.480667	-0.830783	-0.280639	-0.872721	0.484434	0.060678
13458		0.083951	0.273838	-0.958105	-0.474801	-0.834342	-0.280068	-0.876080	0.478421	0.059975
13459		0.082460	0.273605	-0.958301	-0.470136	-0.837177	-0.279477	-0.878734	0.473577	0.059598
13460		0.081010	0.273389	-0.958486	-0.466748	-0.839283	-0.278838	-0.880672	0.469960	0.059614
13461		0.079765	0.272934	-0.958720	-0.463759	-0.841196	-0.278061	-0.882364	0.466794	0.059478
13462		0.078916	0.272411	-0.958939	-0.460009	-0.843450	-0.277460	-0.884400	0.463017	0.058750
13463		0.078351	0.271887	-0.959134	-0.456048	-0.845749	-0.277000	-0.886499	0.459115	0.057728
13464		0.077535	0.271484	-0.959315	-0.452662	-0.847732	-0.276491	-0.888305	0.455683	0.057162
13465		0.076578	0.270956	-0.959541	-0.450891	-0.848931	-0.275706	-0.889288	0.453762	0.057162
13466		0.075354	0.270126	-0.959872	-0.451031	-0.849276	-0.274410	-0.889322	0.453610	0.057839
13467		0.073574	0.268843	-0.960370	-0.451051	-0.849890	-0.272471	-0.889460	0.453223	0.058732
13468		0.071586	0.267164	-0.960988	-0.448551	-0.851918	-0.270255	-0.890886	0.450399	0.058851
13469		0.070458	0.264912	-0.961695	-0.441498	-0.856238	-0.268209	-0.894491	0.443484	0.056629
13470		0.069906	0.262289	-0.962454	-0.431901	-0.861738	-0.266213	-0.899208	0.434295	0.053042
13471		0.069788	0.259497	-0.963219	-0.422358	-0.867072	-0.264196	-0.903739	0.425261	0.049089
13472		0.069559	0.256829	-0.963950	-0.414195	-0.871628	-0.262119	-0.907526	0.417497	0.045747
13473		0.069155	0.254303	-0.964649	-0.408052	-0.875164	-0.259966	-0.910336	0.411605	0.043247
13474		0.068822	0.251895	-0.965304	-0.402829	-0.878194	-0.257884	-0.912684	0.406601	0.041031
13475		0.068969	0.249549	-0.965903	-0.398103	-0.880893	-0.256012	-0.914744	0.402186	0.038592
13476		0.069639	0.247319	-0.966428	-0.392634	-0.883791	-0.254464	-0.917055	0.397173	0.035559
13477		0.070984	0.245161	-0.966880	-0.386741	-0.886738	-0.253233	-0.919452	0.391908	0.031870
13478		0.072644	0.243385	-0.967206	-0.381298	-0.889322	-0.252425	-0.921594	0.387131	0.028198
13479		0.074889	0.241775	-0.967438	-0.377107	-0.891249	-0.251926	-0.923137	0.383694	0.024430
13480		0.077189	0.240403	-0.967599	-0.375385	-0.892072	-0.251583	-0.923649	0.382642	0.021386
13481		0.079917	0.239075	-0.967707	-0.374888	-0.892329	-0.251413	-0.923619	0.382873	0.018314
13482		0.083151	0.237873	-0.967730	-0.374609	-0.892408	-0.251546	-0.923447	0.383437	0.014905
13483		0.086717	0.236650	-0.967717	-0.376396	-0.891595	-0.251763	-0.922391	0.386078	0.011758
13484		0.090467	0.235271	-0.967710	-0.379971	-0.890036	-0.251908	-0.920564	0.390491	0.008877
13485		0.094187	0.233763	-0.967721	-0.385465	-0.887661	-0.251940	-0.917903	0.396752	0.006502
13486		0.097148	0.232440	-0.967747	-0.392677	-0.884515	-0.251868	-0.914531	0.404481	0.005345
13487		0.099900	0.231050	-0.967800	-0.400266	-0.881160	-0.251683	-0.910938	0.412520	0.004454
13488		0.102808	0.229441	-0.967878	-0.406395	-0.878430	-0.251404	-0.907895	0.419187	0.002934
13489		0.106105	0.227572	-0.967963	-0.410588	-0.876567	-0.251091	-0.905626	0.424076	0.000430
13490		0.109285	0.225710	-0.968045	-0.414204	-0.874958	-0.250766	-0.903600	0.428373	-0.002130
13491		0.112572	0.223549	-0.968170	-0.416940	-0.873808	-0.250239	-0.901936	0.431839	-0.005160
13492		0.115850	0.221179	-0.968328	-0.418476	-0.873276	-0.249534	-0.900809	0.434130	-0.008611
13493		0.118717	0.218677	-0.968549	-0.420662	-0.872505	-0.248554	-0.899416	0.436939	-0.011592
13494		0.120608	0.216458	-0.968813	-0.423605	-0.871400	-0.247429	-0.897782	0.440237	-0.013405
13495		0.122189	0.214260	-0.969104	-0.425960	-0.870603	-0.246189	-0.896453	0.442881	-0.015112
13496		0.123797	0.211941	-0.969410	-0.427614	-0.870169	-0.244851	-0.895444	0.444845	-0.017095
13497		0.125899	0.209304	-0.969712	-0.429326	-0.869716	-0.243461	-0.894331	0.446974	-0.019637
13498		0.128162	0.206536	-0.970009	-0.430763	-0.869405	-0.242029	-0.893319	0.448862	-0.022457
13499		0.130669	0.203664	-0.970282	-0.432196	-0.869083	-0.240627	-0.892262	0.450795	-0.025540
13500		0.133322	0.200822	-0.970513	-0.433858	-0.868611	-0.239336	-0.891063	0.452974	-0.028677
13501		0.135560	0.198120	-0.970758	-0.437446	-0.867160	-0.238063	-0.888968	0.456926	-0.030885
13502		0.137364	0.195644	-0.971007	-0.441884	-0.865241	-0.236845	-0.886493	0.461607	-0.032401
13503		0.139075	0.192884	-0.971316	-0.445888	-0.863597	-0.235337	-0.884218	0.465828	-0.034100
13504		0.140563	0.189813	-0.971706	-0.450079	-0.861927	-0.233475	-0.881856	0.470163	-0.035725
13505		0.141833	0.186503	-0.972163	-0.454627	-0.860115	-0.231335	-0.879317	0.474782	-0.037204
13506		0.142553	0.183346	-0.972658	-0.459472	-0.858137	-0.229100	-0.876678	0.479568	-0.038087
13507		0.143019	0.180293	-0.973160	-0.465015	-0.855738	-0.226879	-0.873674	0.484982	-0.038548
13508		0.143346	0.177375	-0.973648	-0.470677	-0.853206	-0.224729	-0.870583	0.490488	-0.038818
13509		0.143410	0.174679	-0.974126	-0.477292	-0.850058	-0.222697	-0.866964	0.496880	-0.038534
13510		0.143617	0.172434	-0.974495	-0.484460	-0.846395	-0.221165	-0.862944	0.503867	-0.038020
13511		0.143953	0.169985	-0.974876	-0.492057	-0.842424	-0.219549	-0.858579	0.511299	-0.037627
13512		0.144173	0.167617	-0.975253	-0.499866	-0.838228	-0.217962	-0.854019	0.518920	-0.037064
13513		0.144640	0.165225	-0.975592	-0.506011	-0.834933	-0.216424	-0.850313	0.524964	-0.037159
13514		0.145662	0.162562	-0.975887	-0.510429	-0.832638	-0.214887	-0.847493	0.529422	-0.038307
13515		0.146213	0.159951	-0.976236	-0.517283	-0.828815	-0.213271	-0.843232	0.536173	-0.038444
13516		0.146463	0.157634	-0.976576	-0.523287	-0.825437	-0.211718	-0.839475	0.542039	-0.038408
13517		0.146809	0.155280	-0.976901	-0.530379	-0.821276	-0.210248	-0.834952	0.548994	-0.038214
13518		0.146770	0.153340	-0.977213	-0.539334	-0.815742	-0.209007	-0.829203	0.557720	-0.037025
13519		0.146836	0.151681	-0.977462	-0.549192	-0.809373	-0.208097	-0.822695	0.567370	-0.035543
13520		0.147178	0.150012	-0.977668	-0.557770	-0.803695	-0.207285	-0.816842	0.575821	-0.034614
13521		0.147373	0.148518	-0.977867	-0.566461	-0.797787	-0.206538	-0.810804	0.584361	-0.033443
13522		0.147574	0.147152	-0.978043	-0.573865	-0.792657	-0.205848	-0.805544	0.591643	-0.032530
13523		0.148089	0.145606	-0.978197	-0.580875	-0.787706	-0.205190	-0.800408	0.598597	-0.032072
13524		0.148282	0.144199	-0.978376	-0.588162	-0.782469	-0.204467	-0.795033	0.605762	-0.031214
13525		0.148617	0.142693	-0.978546	-0.594856	-0.777586	-0.203733	-0.789974	0.612372	-0.030681
13526		0.148931	0.141356	-0.978692	-0.601403	-0.772694	-0.203121	-0.784942	0.618839	-0.030067
13527		0.149508	0.140076	-0.978788	-0.607790	-0.767787	-0.202718	-0.779896	0.625206	-0.029653
13528		0.150184	0.138904	-0.978852	-0.613903	-0.762976	-0.202461	-0.774963	0.631327	-0.029314
13529		0.151082	0.137791	-0.978871	-0.619388	-0.758553	-0.202376	-0.770411	0.636876	-0.029258
13530		0.151995	0.136760	-0.978874	-0.624336	-0.754491	-0.202355	-0.766226	0.641903	-0.029294
13531		0.153076	0.135717	-0.978851	-0.628553	-0.750966	-0.202416	-0.762554	0.646244	-0.029650
13532		0.153993	0.134895	-0.978820	-0.632722	-0.747420	-0.202548	-0.758913	0.650512	-0.029747
13533		0.154916	0.134266	-0.978761	-0.636444	-0.744179	-0.202821	-0.755606	0.654347	-0.029833
13534		0.155647	0.133915	-0.978693	-0.640125	-0.740916	-0.203183	-0.752339	0.658111	-0.029599
13535		0.156409	0.133735	-0.978597	-0.643514	-0.737836	-0.203685	-0.749284	0.661599	-0.029344
13536		0.157176	0.133502	-0.978505	-0.645826	-0.735695	-0.204112	-0.747131	0.664026	-0.029414
13537		0.158022	0.132963	-0.978443	-0.647120	-0.734498	-0.204325	-0.745832	0.665457	-0.030024
13538		0.158623	0.132287	-0.978437	-0.647494	-0.734193	-0.204236	-0.745379	0.665929	-0.030805
13539		0.159372	0.131454	-0.978427	-0.647574	-0.734156	-0.204117	-0.745150	0.666134	-0.031878
13540		0.159860	0.130852	-0.978429	-0.648407	-0.733444	-0.204028	-0.744320	0.667036	-0.032404
13541		0.159928	0.130618	-0.978449	-0.650702	-0.731417	-0.203999	-0.742300	0.669304	-0.031981
13542		0.159405	0.130739	-0.978518	-0.652861	-0.729539	-0.203827	-0.740515	0.671327	-0.030938
13543		0.158909	0.130587	-0.978619	-0.652532	-0.729963	-0.203365	-0.740912	0.670896	-0.030785
13544		0.158064	0.130315	-0.978792	-0.650612	-0.731910	-0.202512	-0.742778	0.668824	-0.030904
13545		0.156539	0.130391	-0.979027	-0.647271	-0.735170	-0.201407	-0.746013	0.665224	-0.030684
13546		0.155262	0.130045	-0.979276	-0.642070	-0.740077	-0.200079	-0.750760	0.659828	-0.031408
13547		0.154258	0.129545	-0.979501	-0.636932	-0.744842	-0.198818	-0.755329	0.654545	-0.032387
13548		0.153250	0.129174	-0.979708	-0.634118	-0.747522	-0.197752	-0.757898	0.651556	-0.032646
13549		0.151787	0.129408	-0.979905	-0.633983	-0.747844	-0.196966	-0.758305	0.651140	-0.031471
13550		0.150125	0.129862	-0.980101	-0.634008	-0.748017	-0.196224	-0.758615	0.650850	-0.029962
13551		0.148760	0.129922	-0.980301	-0.632339	-0.749667	-0.195313	-0.760275	0.648937	-0.029366
13552		0.147403	0.129658	-0.980541	-0.629641	-0.752243	-0.194123	-0.762775	0.646003	-0.029245
13553		0.145899	0.129474	-0.980791	-0.627221	-0.754571	-0.192914	-0.765054	0.643319	-0.028882
13554		0.144288	0.129469	-0.981029	-0.625502	-0.756279	-0.191806	-0.766765	0.641311	-0.028139
13555		0.142767	0.129472	-0.981251	-0.625045	-0.756908	-0.190812	-0.767422	0.640568	-0.027135
13556		0.141370	0.129472	-0.981454	-0.626147	-0.756213	-0.189950	-0.766782	0.641388	-0.025838
13557		0.140227	0.129134	-0.981662	-0.628218	-0.754727	-0.189020	-0.765296	0.643204	-0.024708
13558		0.139056	0.128778	-0.981875	-0.630012	-0.753474	-0.188047	-0.764034	0.644742	-0.023644
13559		0.137895	0.128306	-0.982101	-0.630793	-0.753093	-0.186956	-0.763601	0.645282	-0.022913
13560		0.136610	0.127890	-0.982335	-0.631306	-0.752944	-0.185819	-0.763408	0.645538	-0.022122
13561		0.135296	0.127515	-0.982565	-0.632366	-0.752327	-0.184710	-0.762764	0.646331	-0.021151
13562		0.133594	0.127464	-0.982805	-0.633693	-0.751481	-0.183602	-0.761961	0.647325	-0.019621
13563		0.131636	0.127528	-0.983061	-0.634361	-0.751211	-0.182395	-0.761746	0.647625	-0.017988
13564		0.129731	0.127448	-0.983324	-0.633771	-0.752026	-0.181083	-0.762564	0.646695	-0.016788
13565		0.128052	0.127265	-0.983568	-0.632116	-0.753720	-0.179821	-0.764220	0.644756	-0.016069
13566		0.126352	0.127152	-0.983803	-0.629666	-0.756061	-0.178586	-0.766522	0.642032	-0.015466
13567		0.124631	0.127205	-0.984015	-0.627188	-0.758378	-0.177474	-0.768831	0.639282	-0.014737
13568		0.122906	0.127430	-0.984203	-0.624688	-0.760666	-0.176498	-0.771141	0.636512	-0.013886
13569		0.121482	0.127769	-0.984336	-0.622006	-0.763021	-0.175807	-0.773532	0.633620	-0.013220
13570		0.120510	0.128180	-0.984402	-0.619541	-0.765101	-0.175468	-0.775658	0.631023	-0.012789
13571		0.119970	0.128680	-0.984403	-0.618017	-0.766327	-0.175492	-0.776957	0.629431	-0.012410
13572		0.119294	0.129416	-0.984388	-0.617678	-0.766569	-0.175633	-0.777331	0.628987	-0.011509
13573		0.118371	0.130527	-0.984353	-0.617734	-0.766458	-0.175918	-0.777427	0.628892	-0.010095
13574		0.117411	0.131757	-0.984304	-0.616664	-0.767241	-0.176259	-0.778422	0.627680	-0.008833
13575		0.116565	0.132967	-0.984242	-0.614508	-0.768879	-0.176650	-0.780251	0.625416	-0.007915
13576		0.115639	0.134202	-0.984184	-0.612017	-0.770780	-0.177013	-0.782345	0.622806	-0.006998
13577		0.114799	0.135428	-0.984114	-0.609594	-0.772602	-0.177431	-0.784357	0.620279	-0.006138
13578		0.114112	0.136387	-0.984061	-0.606878	-0.774666	-0.177740	-0.786560	0.617488	-0.005629
13579		0.113630	0.137112	-0.984016	-0.604592	-0.776393	-0.177998	-0.788389	0.615154	-0.005325
13580		0.112904	0.137750	-0.984011	-0.603226	-0.777443	-0.178046	-0.789538	0.613683	-0.004682
13581		0.111865	0.138452	-0.984031	-0.602197	-0.778260	-0.177958	-0.790471	0.612488	-0.003685
13582		0.110570	0.139035	-0.984095	-0.600603	-0.779568	-0.177621	-0.791865	0.610690	-0.002691
13583		0.109295	0.139356	-0.984192	-0.598488	-0.781314	-0.177092	-0.793642	0.608382	-0.001991
13584		0.108070	0.139362	-0.984327	-0.595754	-0.783568	-0.176347	-0.795863	0.605474	-0.001654
13585		0.106908	0.139144	-0.984484	-0.592869	-0.785951	-0.175465	-0.798171	0.602429	-0.001530
13586		0.105580	0.138924	-0.984659	-0.590162	-0.788203	-0.174486	-0.800351	0.599530	-0.001231
13587		0.104365	0.138600	-0.984834	-0.587832	-0.790160	-0.173497	-0.802223	0.597024	-0.000992
13588		0.103200	0.138267	-0.985004	-0.585731	-0.791929	-0.172532	-0.803908	0.594753	-0.000740
13589		0.102103	0.138064	-0.985146	-0.583852	-0.793492	-0.171716	-0.805414	0.592713	-0.000409
13590		0.100808	0.137991	-0.985290	-0.581646	-0.795288	-0.170891	-0.807171	0.590318	0.000091
13591		0.099471	0.137924	-0.985435	-0.578380	-0.797847	-0.170050	-0.809681	0.586871	0.000410
13592		0.098118	0.137721	-0.985599	-0.573605	-0.801488	-0.169097	-0.813234	0.581936	0.000357
13593		0.096746	0.137573	-0.985756	-0.568043	-0.805631	-0.168185	-0.817292	0.576223	0.000206
13594		0.095687	0.137205	-0.985910	-0.562572	-0.809649	-0.167276	-0.821192	0.570652	-0.000285
13595		0.094654	0.136812	-0.986065	-0.558041	-0.812966	-0.166362	-0.824397	0.566011	-0.000604
13596		0.093731	0.136257	-0.986229	-0.554963	-0.815270	-0.165381	-0.826578	0.562822	-0.000798
13597		0.092643	0.135816	-0.986393	-0.553759	-0.816285	-0.164404	-0.827507	0.561455	-0.000414
13598		0.091575	0.135246	-0.986571	-0.553522	-0.816662	-0.163332	-0.827785	0.561046	0.000075
13599		0.090402	0.134617	-0.986765	-0.554017	-0.816561	-0.162154	-0.827582	0.561344	0.000761
13600		0.088965	0.134066	-0.986971	-0.554416	-0.816540	-0.160890	-0.827471	0.561505	0.001685
13601		0.087388	0.133492	-0.987190	-0.554108	-0.817016	-0.159531	-0.827845	0.560950	0.002571
13602		0.085231	0.133076	-0.987434	-0.553987	-0.817399	-0.157978	-0.828151	0.560490	0.004055
13603		0.082858	0.132672	-0.987691	-0.553110	-0.818311	-0.156321	-0.828978	0.559254	0.005579
13604		0.080699	0.132102	-0.987946	-0.550581	-0.820329	-0.154663	-0.830872	0.556425	0.006533
13605		0.079402	0.131328	-0.988154	-0.546585	-0.823246	-0.153331	-0.833631	0.552285	0.006415
13606		0.078578	0.130856	-0.988282	-0.543383	-0.825516	-0.152509	-0.835799	0.549000	0.006238
13607		0.077996	0.130785	-0.988338	-0.541826	-0.826606	-0.152142	-0.836864	0.547373	0.006391
13608		0.077037	0.131364	-0.988336	-0.542084	-0.826445	-0.152099	-0.836786	0.547478	0.007544
13609		0.075978	0.132482	-0.988269	-0.544165	-0.825014	-0.152432	-0.835531	0.549363	0.009409
13610		0.074788	0.134000	-0.988155	-0.546747	-0.823198	-0.153011	-0.833951	0.551714	0.011698
13611		0.073636	0.135662	-0.988015	-0.548504	-0.821894	-0.153732	-0.832899	0.553250	0.013890
13612		0.072486	0.137277	-0.987877	-0.549344	-0.821203	-0.154424	-0.832446	0.553878	0.015887
13613		0.071296	0.138886	-0.987739	-0.549938	-0.820680	-0.155091	-0.832157	0.554252	0.017867
13614		0.069970	0.140427	-0.987616	-0.550449	-0.820236	-0.155625	-0.831932	0.554521	0.019906
13615		0.068561	0.141811	-0.987517	-0.551259	-0.819625	-0.155974	-0.831512	0.555071	0.021980
13616		0.066950	0.142866	-0.987475	-0.552128	-0.819048	-0.155932	-0.831067	0.555652	0.024045
13617		0.065141	0.143755	-0.987467	-0.552075	-0.819134	-0.155669	-0.831246	0.555297	0.026004
13618		0.063102	0.144664	-0.987467	-0.550974	-0.819939	-0.155330	-0.832134	0.553870	0.027967
13619		0.061158	0.145606	-0.987451	-0.548856	-0.821399	-0.155114	-0.833677	0.551455	0.029681
13620		0.059443	0.146503	-0.987423	-0.545828	-0.823430	-0.155031	-0.835786	0.548179	0.031018
13621		0.057943	0.147410	-0.987377	-0.542157	-0.825837	-0.155109	-0.838277	0.544301	0.032068
13622		0.056350	0.148339	-0.987330	-0.538086	-0.828482	-0.155183	-0.841004	0.540013	0.033134
13623		0.054726	0.149228	-0.987287	-0.533710	-0.831297	-0.155234	-0.843895	0.535421	0.034151
13624		0.052916	0.150230	-0.987234	-0.529340	-0.834076	-0.155296	-0.846758	0.530800	0.035386
13625		0.051127	0.151468	-0.987139	-0.524940	-0.836797	-0.155588	-0.849602	0.526144	0.036729
13626		0.049566	0.152933	-0.986993	-0.520730	-0.839310	-0.156201	-0.852281	0.521699	0.038036
13627		0.048505	0.154688	-0.986772	-0.517674	-0.840997	-0.157282	-0.854202	0.518455	0.039285
13628		0.047876	0.156542	-0.986510	-0.515501	-0.842076	-0.158641	-0.855551	0.516142	0.040382
13629		0.047492	0.158639	-0.986194	-0.514000	-0.842678	-0.160305	-0.856475	0.514517	0.041520
13630		0.047150	0.161145	-0.985804	-0.513167	-0.842802	-0.162313	-0.856993	0.513535	0.042956
13631		0.046932	0.164359	-0.985284	-0.512594	-0.842632	-0.164979	-0.857347	0.512793	0.044703
13632		0.047035	0.168478	-0.984583	-0.512670	-0.841879	-0.168550	-0.857296	0.512694	0.046776
13633		0.047888	0.173782	-0.983619	-0.512703	-0.840849	-0.173519	-0.857230	0.512614	0.048832
13634		0.049680	0.180213	-0.982372	-0.512648	-0.839533	-0.179935	-0.857160	0.512550	0.050678
13635		0.052475	0.187908	-0.980784	-0.512609	-0.837801	-0.187940	-0.857017	0.512621	0.052360
13636		0.056148	0.196622	-0.978870	-0.512885	-0.835491	-0.197241	-0.856619	0.513123	0.053933
13637		0.060624	0.206425	-0.976582	-0.512799	-0.832955	-0.207900	-0.856365	0.513395	0.055357
13638		0.065749	0.217292	-0.973890	-0.512925	-0.829823	-0.219777	-0.855912	0.513983	0.056894
13639		0.071262	0.229535	-0.970688	-0.512875	-0.826231	-0.233028	-0.855501	0.514447	0.058843
13640		0.077478	0.242672	-0.967010	-0.511866	-0.822653	-0.247456	-0.855564	0.514152	0.060478
13641		0.084149	0.256659	-0.962832	-0.509957	-0.819041	-0.262898	-0.856074	0.513126	0.061964
13642		0.090718	0.270987	-0.958299	-0.506746	-0.815815	-0.278667	-0.857309	0.510894	0.063312
13643		0.096340	0.285761	-0.953446	-0.501469	-0.813513	-0.294491	-0.859795	0.506495	0.064926
13644		0.100877	0.300214	-0.948523	-0.493809	-0.812552	-0.309696	-0.863699	0.499631	0.066281
13645		0.104553	0.313908	-0.943679	-0.485183	-0.812200	-0.323927	-0.868140	0.491724	0.067385
13646		0.107097	0.326931	-0.938960	-0.476896	-0.811772	-0.337041	-0.872411	0.483883	0.068974
13647		0.109059	0.339680	-0.934197	-0.470883	-0.810013	-0.349498	-0.875429	0.478013	0.071610
13648		0.111750	0.351544	-0.929478	-0.465848	-0.807662	-0.361479	-0.877780	0.473390	0.073509
13649		0.115774	0.362311	-0.924839	-0.462038	-0.804588	-0.373041	-0.879271	0.470499	0.074251
13650		0.120017	0.371918	-0.920474	-0.460835	-0.800362	-0.383473	-0.879333	0.470210	0.075336
13651		0.124300	0.380306	-0.916470	-0.461687	-0.795391	-0.392681	-0.878291	0.471932	0.076715
13652		0.129155	0.386820	-0.913066	-0.460707	-0.791961	-0.400682	-0.878105	0.472406	0.075925
13653		0.135520	0.390119	-0.910737	-0.458649	-0.790092	-0.406689	-0.878223	0.472823	0.071855
13654		0.142382	0.389920	-0.909774	-0.459495	-0.788059	-0.409667	-0.876694	0.476366	0.066960
13655		0.148573	0.386654	-0.910179	-0.468596	-0.782975	-0.409107	-0.870829	0.487288	0.064856
13656		0.153763	0.380450	-0.911929	-0.483303	-0.776015	-0.405239	-0.861844	0.503049	0.064550
13657		0.157661	0.370424	-0.915385	-0.501168	-0.768709	-0.397388	-0.850866	0.521414	0.064450
13658		0.162023	0.355387	-0.920570	-0.519462	-0.762456	-0.385773	-0.838992	0.540705	0.061074
13659		0.164800	0.337283	-0.926866	-0.540023	-0.755498	-0.370941	-0.825358	0.561661	0.057634
13660		0.165075	0.318222	-0.933534	-0.566036	-0.744555	-0.353894	-0.807684	0.586833	0.057218
13661		0.161227	0.300199	-0.940152	-0.598324	-0.727854	-0.335017	-0.784866	0.616529	0.062267
13662		0.152334	0.286655	-0.945845	-0.634727	-0.705194	-0.315948	-0.757572	0.648483	0.074523
13663		0.140617	0.278468	-0.950096	-0.671562	-0.678294	-0.298198	-0.727483	0.679980	0.091629
13664		0.128500	0.273396	-0.953280	-0.706298	-0.649542	-0.281494	-0.696155	0.709471	0.109633
13665		0.116551	0.268148	-0.956302	-0.736087	-0.623099	-0.264429	-0.666777	0.734741	0.124757
13666		0.102671	0.262824	-0.959366	-0.760521	-0.600904	-0.246012	-0.641144	0.754876	0.138188
13667		0.087591	0.256754	-0.962500	-0.776748	-0.587340	-0.227364	-0.623691	0.767534	0.147987
13668		0.070016	0.254472	-0.964542	-0.793623	-0.571600	-0.208412	-0.604367	0.780075	0.161934
13669		0.049531	0.260170	-0.964292	-0.817555	-0.544029	-0.188775	-0.573716	0.797712	0.185757
13670		0.028763	0.271255	-0.962078	-0.831857	-0.527171	-0.173505	-0.554244	0.805302	0.210483
13671		0.010125	0.283151	-0.959022	-0.829225	-0.533601	-0.166300	-0.558823	0.796929	0.229393
13672		-0.004877	0.292047	-0.956392	-0.813485	-0.557376	-0.166054	-0.581565	0.777200	0.240294
13673		-0.018341	0.299061	-0.954058	-0.798113	-0.579134	-0.166193	-0.602229	0.758397	0.249307
13674		-0.032054	0.305461	-0.951665	-0.785573	-0.596375	-0.164962	-0.617939	0.742314	0.259078
13675		-0.047012	0.311542	-0.949069	-0.778019	-0.607309	-0.160816	-0.626479	0.730833	0.270936
13676		-0.065637	0.317469	-0.945994	-0.777811	-0.610141	-0.150791	-0.625061	0.725908	0.286978
13677		-0.087996	0.323560	-0.942107	-0.783238	-0.606832	-0.135255	-0.615464	0.725992	0.306823
13678		-0.111948	0.329485	-0.937501	-0.789348	-0.602593	-0.117524	-0.603653	0.726858	0.327537
13679		-0.133741	0.333707	-0.933141	-0.795453	-0.597749	-0.099758	-0.591074	0.728928	0.345392
13680		-0.153756	0.336348	-0.929101	-0.802307	-0.591348	-0.081304	-0.576769	0.732924	0.360777
13681		-0.173205	0.337247	-0.925346	-0.808372	-0.585394	-0.062040	-0.562615	0.737278	0.374014
13682		-0.192161	0.337637	-0.921453	-0.813386	-0.580136	-0.042948	-0.549069	0.741244	0.386109
13683		-0.209388	0.338250	-0.917466	-0.813984	-0.580205	-0.028138	-0.541836	0.740911	0.396819
13684		-0.225503	0.341503	-0.912428	-0.809929	-0.586212	-0.019236	-0.541445	0.734664	0.408785
13685		-0.240580	0.348941	-0.905738	-0.802088	-0.596966	-0.016936	-0.546605	0.722407	0.423499
13686		-0.254329	0.361325	-0.897085	-0.789501	-0.613311	-0.023199	-0.558575	0.702349	0.441249
13687		-0.264946	0.379273	-0.886541	-0.771352	-0.635076	-0.041172	-0.578637	0.672927	0.460814
13688		-0.270367	0.403911	-0.873932	-0.746838	-0.660834	-0.074374	-0.607564	0.632578	0.480324
13689		-0.270605	0.434782	-0.858916	-0.721511	-0.682266	-0.118047	-0.637334	0.587773	0.498325
13690		-0.267740	0.466176	-0.843205	-0.689978	-0.703606	-0.169911	-0.672492	0.536301	0.510035
13691		-0.251618	0.493308	-0.832668	-0.642128	-0.728803	-0.237734	-0.724127	0.474861	0.500147
13692		-0.238535	0.520214	-0.820048	-0.610574	-0.736985	-0.289919	-0.755183	0.431544	0.493426
13693		-0.219995	0.535040	-0.815681	-0.570889	-0.748636	-0.337090	-0.791004	0.391505	0.470144
13694		-0.210051	0.548059	-0.809636	-0.576120	-0.738447	-0.350402	-0.789914	0.392845	0.470859
13695		-0.194526	0.557607	-0.806990	-0.562930	-0.737201	-0.373690	-0.803286	0.381587	0.457299
13696		-0.188627	0.570747	-0.799167	-0.591631	-0.715567	-0.371399	-0.783832	0.402756	0.472647
13697		-0.184721	0.585391	-0.789428	-0.634218	-0.684614	-0.359265	-0.750764	0.434305	0.497728
13698		-0.181202	0.597206	-0.781352	-0.669203	-0.657072	-0.347022	-0.720648	0.460002	0.518715
13699		-0.186875	0.607827	-0.771767	-0.708063	-0.627908	-0.323077	-0.680973	0.486085	0.547720
13700		-0.198500	0.614205	-0.763773	-0.731616	-0.611405	-0.301533	-0.652178	0.498934	0.570726
13701		-0.201926	0.612244	-0.764450	-0.718619	-0.622938	-0.309087	-0.665441	0.486935	0.565758
13702		-0.197230	0.602651	-0.773248	-0.686484	-0.647988	-0.329926	-0.699885	0.465751	0.541513
13703		-0.191718	0.587744	-0.786003	-0.658482	-0.670885	-0.341050	-0.727768	0.452184	0.515639
13704		-0.185962	0.567681	-0.801970	-0.641992	-0.688089	-0.338202	-0.743818	0.451965	0.492405
13705		-0.183491	0.544151	-0.818676	-0.643022	-0.696369	-0.318736	-0.743541	0.467942	0.477679
13706		-0.188029	0.521626	-0.832196	-0.663915	-0.691910	-0.283687	-0.723783	0.499166	0.476414
13707		-0.201053	0.503609	-0.840212	-0.694527	-0.678156	-0.240283	-0.690803	0.535241	0.486115
13708		-0.217992	0.489317	-0.844422	-0.720077	-0.664668	-0.199263	-0.658763	0.564611	0.497238
13709		-0.236036	0.475410	-0.847510	-0.734799	-0.658039	-0.164481	-0.635891	0.583926	0.504652
13710		-0.254025	0.460351	-0.850617	-0.737641	-0.661050	-0.137471	-0.625585	0.592528	0.507497
13711		-0.270821	0.445069	-0.853563	-0.731211	-0.671815	-0.118299	-0.626088	0.592097	0.507381
13712		-0.281319	0.431951	-0.856900	-0.723656	-0.681944	-0.106183	-0.630224	0.590229	0.504428
13714		-0.261063	0.408273	-0.874734	-0.696735	-0.706880	-0.121990	-0.668137	0.577610	0.468998
13715		-0.232379	0.393636	-0.889410	-0.676433	-0.722484	-0.143023	-0.698883	0.568391	0.434158
13716		-0.202943	0.385698	-0.900029	-0.664090	-0.729678	-0.162954	-0.719582	0.564630	0.404221
13717		-0.176716	0.384538	-0.906036	-0.660966	-0.728447	-0.180249	-0.729312	0.567006	0.382895
13718		-0.152831	0.388332	-0.908758	-0.657643	-0.726354	-0.199787	-0.737664	0.567105	0.366393
13719		-0.129426	0.394197	-0.909867	-0.646847	-0.729031	-0.223838	-0.751557	0.559574	0.349340
13720		-0.105428	0.400142	-0.910369	-0.632057	-0.733724	-0.249303	-0.767716	0.549122	0.330268
13721		-0.080678	0.405531	-0.910514	-0.621517	-0.734620	-0.272119	-0.779235	0.543946	0.311312
13722		-0.054729	0.410185	-0.910358	-0.617034	-0.730700	-0.292141	-0.785031	0.545733	0.293089
13723		-0.025522	0.412513	-0.910594	-0.616788	-0.723343	-0.310398	-0.786715	0.553722	0.272894
13724		0.005609	0.412652	-0.910872	-0.625219	-0.709446	-0.325250	-0.780429	0.571319	0.254018
13725		0.036679	0.409346	-0.911642	-0.636984	-0.693337	-0.336951	-0.770004	0.593060	0.235316
13726		0.066479	0.401937	-0.913251	-0.641483	-0.683834	-0.347663	-0.764251	0.608948	0.212376
13727		0.092467	0.392646	-0.915029	-0.642101	-0.678850	-0.356187	-0.761023	0.620477	0.189347
13728		0.112778	0.383319	-0.916705	-0.646607	-0.672196	-0.360627	-0.754441	0.633418	0.172048
13729		0.128574	0.373807	-0.918552	-0.654386	-0.663984	-0.361808	-0.745150	0.647606	0.159243
13730		0.140897	0.363507	-0.920875	-0.663953	-0.655275	-0.360251	-0.734381	0.662175	0.149026
13731		0.152325	0.351135	-0.923851	-0.670225	-0.650287	-0.357666	-0.726357	0.673670	0.136285
13732		0.163146	0.336985	-0.927267	-0.673192	-0.649053	-0.354320	-0.721246	0.682034	0.120965
13733		0.173179	0.324998	-0.929723	-0.669779	-0.653233	-0.353106	-0.722084	0.683859	0.104551
13734		0.192681	0.319064	-0.927940	-0.651482	-0.665570	-0.364127	-0.733789	0.674696	0.079622
13735		0.212328	0.328905	-0.920184	-0.624827	-0.678315	-0.386628	-0.751338	0.657047	0.061484
13736		0.218939	0.353456	-0.909469	-0.613681	-0.674770	-0.409976	-0.758591	0.647884	0.069175
13737		0.183938	0.393475	-0.900747	-0.680277	-0.610500	-0.405602	-0.709500	0.687362	0.155377
13738		0.156220	0.419611	-0.894160	-0.722885	-0.568322	-0.392998	-0.673077	0.707769	0.214547
13739		0.154717	0.413021	-0.897483	-0.688850	-0.606088	-0.397672	-0.708201	0.679758	0.190737
13740		0.202646	0.378847	-0.903000	-0.589560	-0.689084	-0.421406	-0.781891	0.617769	0.083713
13741		0.235532	0.341572	-0.909864	-0.567780	-0.711459	-0.414067	-0.788765	0.614129	0.026367
13742		0.262927	0.304982	-0.915344	-0.507674	-0.763033	-0.400060	-0.820449	0.569883	-0.045790
13743		0.249733	0.338268	-0.907308	-0.473263	-0.774820	-0.419137	-0.844781	0.534068	-0.033408
13744		0.251909	0.367899	-0.895093	-0.453385	-0.772272	-0.445015	-0.854976	0.517925	-0.027742
13745		0.257687	0.387750	-0.885013	-0.439313	-0.768780	-0.464738	-0.860582	0.508555	-0.027761
13746		0.247165	0.401718	-0.881778	-0.471092	-0.745406	-0.471638	-0.846748	0.531971	0.005008
13747		0.233373	0.404353	-0.884328	-0.518850	-0.717375	-0.464939	-0.822394	0.567337	0.042382
13748		0.229129	0.390049	-0.891830	-0.562105	-0.694982	-0.448372	-0.794693	0.604038	0.060008
13749		0.234577	0.365191	-0.900894	-0.585899	-0.686393	-0.430798	-0.775691	0.628888	0.052953
13750		0.235231	0.340015	-0.910525	-0.617696	-0.670993	-0.410147	-0.750412	0.658907	0.052188
13751		0.226486	0.320725	-0.919695	-0.652028	-0.651527	-0.387777	-0.723577	0.687494	0.061560
13752		0.206646	0.315565	-0.926130	-0.686768	-0.627412	-0.367019	-0.696884	0.711880	0.087067
13753		0.188581	0.312357	-0.931059	-0.711613	-0.609903	-0.348747	-0.676789	0.728321	0.107262
13754		0.170888	0.308052	-0.935896	-0.725514	-0.603344	-0.331066	-0.666653	0.735581	0.120392
13755		0.151619	0.305401	-0.940075	-0.735354	-0.600682	-0.313744	-0.660504	0.738858	0.133504
13756		0.131442	0.305359	-0.943122	-0.749223	-0.592384	-0.296218	-0.649143	0.745545	0.150918
13757		0.111917	0.309351	-0.944339	-0.763333	-0.581681	-0.281015	-0.636236	0.752296	0.171037
13758		0.094334	0.317289	-0.943625	-0.774209	-0.572500	-0.269897	-0.625861	0.756024	0.191642
13759		0.077906	0.327399	-0.941669	-0.777542	-0.571223	-0.262930	-0.623987	0.752671	0.210065
13760		0.064291	0.335569	-0.939819	-0.768640	-0.583973	-0.261092	-0.636443	0.739168	0.220387
13761		0.050808	0.343186	-0.937892	-0.758826	-0.597292	-0.259664	-0.649308	0.724890	0.230071
13762		0.035405	0.351355	-0.935573	-0.752333	-0.606850	-0.256374	-0.657831	0.712939	0.242850
