// Start Time: Unknown
// Update Rate: 100.0Hz
// Filter Profile: human (46.1)
// Option Flags: AHS Disabled ICC Disabled 
// Firmware Version: 4.0.2
PacketCounter	SampleTimeFine	Mat[1][1]	Mat[2][1]	Mat[3][1]	Mat[1][2]	Mat[2][2]	Mat[3][2]	Mat[1][3]	Mat[2][3]	Mat[3][3]
10104		-0.223972	0.094090	-0.970043	-0.349426	0.921403	0.170051	0.909801	0.377045	-0.173492
10105		-0.224075	0.093989	-0.970029	-0.349950	0.921196	0.170096	0.909574	0.377576	-0.173526
10106		-0.224099	0.094086	-0.970014	-0.349958	0.921174	0.170199	0.909565	0.377606	-0.173508
10107		-0.224096	0.094113	-0.970012	-0.350185	0.921075	0.170266	0.909479	0.377840	-0.173453
10108		-0.224021	0.094240	-0.970017	-0.349837	0.921203	0.170290	0.909631	0.377497	-0.173400
10109		-0.223976	0.094191	-0.970032	-0.350161	0.921081	0.170288	0.909518	0.377808	-0.173318
10110		-0.223954	0.094326	-0.970024	-0.349907	0.921164	0.170359	0.909620	0.377571	-0.173293
10111		-0.223947	0.094201	-0.970038	-0.350369	0.920995	0.170326	0.909445	0.378015	-0.173249
10112		-0.223922	0.094306	-0.970034	-0.350200	0.921048	0.170383	0.909516	0.377858	-0.173218
10113		-0.223919	0.094164	-0.970048	-0.350635	0.920892	0.170330	0.909349	0.378273	-0.173188
10114		-0.223878	0.094213	-0.970053	-0.350686	0.920866	0.170370	0.909340	0.378326	-0.173122
10115		-0.223809	0.093870	-0.970102	-0.351836	0.920451	0.170236	0.908912	0.379418	-0.172979
10116		-0.223658	0.093906	-0.970133	-0.351684	0.920520	0.170183	0.909008	0.379243	-0.172856
10117		-0.223558	0.093759	-0.970171	-0.351848	0.920484	0.170034	0.908969	0.379365	-0.172792
10118		-0.223502	0.093767	-0.970183	-0.351504	0.920631	0.169954	0.909116	0.379008	-0.172803
10119		-0.223447	0.093645	-0.970207	-0.351653	0.920594	0.169845	0.909072	0.379128	-0.172773
10120		-0.223378	0.093749	-0.970213	-0.351177	0.920779	0.169826	0.909273	0.378652	-0.172759
10121		-0.223369	0.093638	-0.970226	-0.351334	0.920734	0.169746	0.909214	0.378790	-0.172765
10122		-0.223327	0.093786	-0.970221	-0.351070	0.920821	0.169820	0.909326	0.378541	-0.172719
10123		-0.223368	0.094049	-0.970186	-0.350616	0.920960	0.170000	0.909492	0.378136	-0.172738
10124		-0.223309	0.094141	-0.970191	-0.350222	0.921112	0.169989	0.909658	0.377742	-0.172722
10125		-0.223263	0.094256	-0.970190	-0.349638	0.921338	0.169970	0.909894	0.377163	-0.172745
10126		-0.223182	0.094365	-0.970199	-0.349029	0.921577	0.169926	0.910148	0.376552	-0.172743
10127		-0.223178	0.094173	-0.970218	-0.349414	0.921452	0.169815	0.910001	0.376906	-0.172742
10128		-0.223167	0.094223	-0.970216	-0.349132	0.921560	0.169804	0.910112	0.376628	-0.172766
10129		-0.223109	0.093978	-0.970253	-0.349811	0.921326	0.169678	0.909865	0.377261	-0.172682
10130		-0.223066	0.094027	-0.970258	-0.349682	0.921374	0.169683	0.909925	0.377132	-0.172647
10131		-0.222981	0.093951	-0.970285	-0.349990	0.921266	0.169636	0.909828	0.377415	-0.172543
10132		-0.222950	0.093973	-0.970290	-0.349944	0.921284	0.169635	0.909853	0.377367	-0.172515
10133		-0.222975	0.094060	-0.970276	-0.349581	0.921417	0.169660	0.909986	0.377020	-0.172571
10134		-0.223035	0.094026	-0.970265	-0.349410	0.921489	0.169618	0.910038	0.376851	-0.172671
10135		-0.223050	0.093918	-0.970272	-0.349464	0.921485	0.169532	0.910013	0.376889	-0.172716
10136		-0.223089	0.093901	-0.970265	-0.349261	0.921569	0.169492	0.910081	0.376688	-0.172795
10137		-0.223146	0.093704	-0.970271	-0.349627	0.921447	0.169397	0.909927	0.377034	-0.172855
10138		-0.223168	0.093721	-0.970264	-0.349659	0.921430	0.169428	0.909909	0.377073	-0.172864
10139		-0.223086	0.093682	-0.970287	-0.349759	0.921401	0.169378	0.909891	0.377153	-0.172785
10140		-0.223025	0.093679	-0.970301	-0.350016	0.921299	0.169399	0.909807	0.377401	-0.172684
10141		-0.222986	0.093577	-0.970320	-0.350658	0.921053	0.169410	0.909569	0.378027	-0.172569
10142		-0.222933	0.093505	-0.970339	-0.350883	0.920976	0.169363	0.909495	0.378232	-0.172507
10143		-0.222993	0.093460	-0.970330	-0.351050	0.920910	0.169375	0.909416	0.378404	-0.172547
10144		-0.223117	0.093325	-0.970314	-0.350908	0.920984	0.169269	0.909441	0.378258	-0.172739
10145		-0.223217	0.093202	-0.970303	-0.350586	0.921132	0.169131	0.909540	0.377927	-0.172937
10146		-0.223150	0.093180	-0.970320	-0.350230	0.921289	0.169016	0.909694	0.377551	-0.172951
10147		-0.223066	0.093277	-0.970330	-0.349650	0.921518	0.168965	0.909938	0.376966	-0.172945
10148		-0.222911	0.093239	-0.970370	-0.349486	0.921604	0.168836	0.910039	0.376766	-0.172850
10149		-0.222847	0.093064	-0.970401	-0.350136	0.921370	0.168768	0.909804	0.377382	-0.172740
10150		-0.222752	0.093048	-0.970425	-0.350164	0.921368	0.168721	0.909817	0.377391	-0.172654
10151		-0.222698	0.093021	-0.970440	-0.350428	0.921267	0.168724	0.909728	0.377644	-0.172567
10152		-0.222677	0.092995	-0.970447	-0.350582	0.921209	0.168721	0.909674	0.377791	-0.172529
10153		-0.222684	0.093037	-0.970441	-0.350398	0.921277	0.168728	0.909743	0.377614	-0.172554
10154		-0.222782	0.092963	-0.970426	-0.350407	0.921279	0.168698	0.909716	0.377627	-0.172670
10155		-0.222903	0.092903	-0.970404	-0.350456	0.921261	0.168698	0.909668	0.377687	-0.172794
10156		-0.223008	0.092806	-0.970389	-0.350332	0.921322	0.168624	0.909690	0.377563	-0.172949
10157		-0.223135	0.092787	-0.970361	-0.350435	0.921273	0.168676	0.909618	0.377687	-0.173052
10158		-0.223191	0.092770	-0.970350	-0.350431	0.921273	0.168681	0.909606	0.377689	-0.173111
10159		-0.223150	0.092684	-0.970368	-0.350509	0.921259	0.168598	0.909586	0.377746	-0.173092
10160		-0.223017	0.092649	-0.970402	-0.350260	0.921378	0.168465	0.909715	0.377464	-0.173032
10161		-0.222895	0.092660	-0.970429	-0.349704	0.921615	0.168321	0.909958	0.376881	-0.173020
10162		-0.222818	0.092538	-0.970458	-0.349567	0.921699	0.168150	0.910030	0.376707	-0.173023
10163		-0.222840	0.092419	-0.970464	-0.349373	0.921798	0.168008	0.910099	0.376493	-0.173125
10164		-0.222939	0.092253	-0.970457	-0.349566	0.921740	0.167926	0.910001	0.376676	-0.173243
10165		-0.223022	0.092158	-0.970447	-0.349977	0.921580	0.167946	0.909823	0.377090	-0.173280
10166		-0.223013	0.092048	-0.970460	-0.350279	0.921474	0.167897	0.909709	0.377375	-0.173258
10167		-0.222987	0.091892	-0.970481	-0.350660	0.921345	0.167811	0.909568	0.377729	-0.173225
10168		-0.222875	0.091810	-0.970514	-0.350890	0.921272	0.167732	0.909507	0.377927	-0.173113
10169		-0.222873	0.091644	-0.970530	-0.351206	0.921170	0.167634	0.909386	0.378217	-0.173118
10170		-0.222932	0.091486	-0.970532	-0.351320	0.921145	0.167529	0.909327	0.378315	-0.173212
10171		-0.222955	0.091368	-0.970538	-0.351508	0.921085	0.167462	0.909249	0.378489	-0.173243
10172		-0.222899	0.091242	-0.970562	-0.351601	0.921073	0.167338	0.909227	0.378550	-0.173225
10173		-0.222802	0.090988	-0.970608	-0.352282	0.920839	0.167188	0.908987	0.379178	-0.173111
10174		-0.222795	0.090874	-0.970621	-0.352436	0.920795	0.167107	0.908929	0.379312	-0.173122
10175		-0.222883	0.090986	-0.970590	-0.351943	0.920975	0.167154	0.909098	0.378848	-0.173248
10176		-0.222925	0.090921	-0.970586	-0.352206	0.920874	0.167159	0.908986	0.379110	-0.173263
10177		-0.222891	0.090733	-0.970612	-0.352644	0.920726	0.167051	0.908824	0.379515	-0.173225
10178		-0.222827	0.090619	-0.970637	-0.352837	0.920670	0.166954	0.908765	0.379678	-0.173176
10179		-0.222818	0.090446	-0.970655	-0.352879	0.920682	0.166794	0.908751	0.379689	-0.173228
10180		-0.222821	0.090281	-0.970670	-0.352536	0.920854	0.166573	0.908883	0.379312	-0.173359
10181		-0.222767	0.089932	-0.970715	-0.352193	0.921061	0.166156	0.909030	0.378893	-0.173508
10182		-0.222660	0.089732	-0.970758	-0.351415	0.921426	0.165775	0.909357	0.378050	-0.173632
10183		-0.222546	0.089753	-0.970782	-0.350473	0.921822	0.165571	0.909748	0.377080	-0.173692
10184		-0.222508	0.089566	-0.970808	-0.350134	0.921996	0.165313	0.909888	0.376697	-0.173792
10185		-0.222429	0.089282	-0.970852	-0.350451	0.921919	0.165073	0.909786	0.376953	-0.173773
10186		-0.222362	0.089091	-0.970885	-0.350645	0.921876	0.164902	0.909727	0.377104	-0.173750
10187		-0.222334	0.088838	-0.970915	-0.351060	0.921749	0.164730	0.909574	0.377474	-0.173749
10188		-0.222226	0.088588	-0.970962	-0.351210	0.921736	0.164479	0.909542	0.377564	-0.173721
10189		-0.222148	0.088139	-0.971021	-0.351874	0.921542	0.164149	0.909305	0.378142	-0.173705
10190		-0.222171	0.087766	-0.971050	-0.351699	0.921676	0.163770	0.909367	0.377902	-0.173902
10191		-0.222105	0.087487	-0.971090	-0.351307	0.921891	0.163405	0.909534	0.377444	-0.174022
10192		-0.221964	0.087188	-0.971149	-0.350634	0.922230	0.162937	0.909828	0.376684	-0.174131
10193		-0.221868	0.086854	-0.971201	-0.349951	0.922575	0.162451	0.910115	0.375915	-0.174295
10194		-0.221814	0.086550	-0.971240	-0.349021	0.923013	0.161963	0.910485	0.374909	-0.174529
10195		-0.221723	0.086312	-0.971282	-0.347991	0.923482	0.161503	0.910901	0.373806	-0.174721
10196		-0.221582	0.086047	-0.971338	-0.346837	0.924008	0.160975	0.911376	0.372565	-0.174899
10197		-0.221428	0.085710	-0.971403	-0.345958	0.924433	0.160425	0.911747	0.371587	-0.175043
10198		-0.221207	0.085451	-0.971476	-0.344779	0.924970	0.159867	0.912247	0.370308	-0.175148
10199		-0.221012	0.085193	-0.971543	-0.343576	0.925513	0.159315	0.912748	0.369009	-0.175279
10200		-0.220825	0.084799	-0.971620	-0.342330	0.926092	0.158628	0.913261	0.367644	-0.175476
10201		-0.220653	0.084226	-0.971709	-0.341056	0.926709	0.157772	0.913780	0.366220	-0.175755
10202		-0.220489	0.083473	-0.971811	-0.339882	0.927311	0.156765	0.914256	0.364866	-0.176091
10203		-0.220166	0.082548	-0.971963	-0.339091	0.927795	0.155606	0.914628	0.363843	-0.176278
10204		-0.219581	0.081255	-0.972205	-0.338568	0.928246	0.154050	0.914962	0.362983	-0.176314
10205		-0.218939	0.079248	-0.972515	-0.339031	0.928418	0.151980	0.914945	0.362987	-0.176399
10206		-0.218324	0.076768	-0.972852	-0.339234	0.928759	0.149418	0.915016	0.362647	-0.176728
10207		-0.217607	0.073480	-0.973267	-0.340059	0.928975	0.146168	0.914881	0.362775	-0.177164
10208		-0.216777	0.069487	-0.973745	-0.341314	0.929118	0.142286	0.914611	0.363197	-0.177695
10209		-0.215811	0.064640	-0.974293	-0.343178	0.929128	0.137660	0.914141	0.364065	-0.178333
10210		-0.214659	0.058946	-0.974909	-0.345914	0.928888	0.132328	0.913381	0.365640	-0.179004
10211		-0.213082	0.052551	-0.975620	-0.349128	0.928529	0.126267	0.912527	0.367521	-0.179505
10212		-0.211133	0.045399	-0.976402	-0.353112	0.927918	0.119500	0.911447	0.370010	-0.179883
10213		-0.209008	0.037630	-0.977190	-0.357171	0.927287	0.112103	0.910354	0.372454	-0.180370
10214		-0.207061	0.029280	-0.977890	-0.362606	0.926064	0.104507	0.908649	0.376228	-0.181134
10215		-0.205181	0.020816	-0.978503	-0.368156	0.924704	0.096869	0.906842	0.380117	-0.182068
10216		-0.203190	0.012365	-0.979061	-0.374880	0.922747	0.089455	0.904532	0.385207	-0.182858
10217		-0.200641	0.004381	-0.979655	-0.380776	0.921015	0.082104	0.902637	0.389503	-0.183125
10218		-0.198325	-0.003322	-0.980131	-0.386549	0.919206	0.075101	0.900692	0.393763	-0.183585
10219		-0.196643	-0.010566	-0.980418	-0.391245	0.917728	0.068582	0.899032	0.397070	-0.184598
10220		-0.195537	-0.016793	-0.980552	-0.395691	0.916205	0.063216	0.897326	0.400357	-0.185797
10221		-0.194403	-0.021861	-0.980678	-0.398799	0.915161	0.058655	0.896196	0.402496	-0.186628
10222		-0.191612	-0.025500	-0.981139	-0.401445	0.914252	0.054639	0.895615	0.404343	-0.185418
10223		-0.187636	-0.027386	-0.981857	-0.401475	0.914437	0.051217	0.896443	0.403801	-0.182576
10224		-0.182473	-0.028213	-0.982806	-0.400048	0.915236	0.048001	0.898145	0.401929	-0.178293
10225		-0.176267	-0.027979	-0.983945	-0.397263	0.916596	0.045103	0.900617	0.398835	-0.172681
10226		-0.171390	-0.028184	-0.984800	-0.394897	0.917744	0.042461	0.902597	0.396172	-0.168421
10227		-0.168747	-0.029583	-0.985215	-0.389461	0.920214	0.039075	0.905453	0.390296	-0.166804
10228		-0.166319	-0.032482	-0.985537	-0.383774	0.922788	0.034351	0.908326	0.383937	-0.165943
10229		-0.164268	-0.036510	-0.985740	-0.378077	0.925328	0.028732	0.911084	0.377405	-0.165806
10230		-0.161985	-0.042254	-0.985888	-0.376233	0.926261	0.022118	0.912255	0.374506	-0.165938
10231		-0.159722	-0.049699	-0.985910	-0.373083	0.927697	0.013676	0.913947	0.370010	-0.166715
10232		-0.158063	-0.058982	-0.985666	-0.369193	0.929346	0.003593	0.915813	0.364469	-0.168671
10233		-0.156403	-0.068274	-0.985331	-0.365910	0.930628	-0.006402	0.917414	0.359541	-0.170535
10234		-0.152977	-0.076110	-0.985295	-0.365446	0.930709	-0.015154	0.918176	0.357754	-0.170191
10235		-0.149386	-0.081147	-0.985444	-0.364882	0.930809	-0.021335	0.918991	0.356384	-0.168659
10236		-0.147912	-0.083165	-0.985498	-0.364411	0.930932	-0.023867	0.919416	0.355596	-0.168002
10237		-0.147894	-0.082402	-0.985565	-0.363662	0.931240	-0.023289	0.919716	0.354968	-0.167691
10238		-0.148055	-0.079549	-0.985775	-0.361237	0.932238	-0.020974	0.920645	0.352993	-0.166759
10239		-0.149553	-0.075354	-0.985878	-0.358596	0.933339	-0.016941	0.921435	0.350998	-0.166606
10240		-0.151548	-0.070038	-0.985965	-0.357230	0.933946	-0.011434	0.921640	0.350484	-0.166558
10241		-0.153637	-0.063170	-0.986106	-0.355519	0.934658	-0.004484	0.921956	0.349890	-0.166056
10242		-0.155319	-0.055100	-0.986327	-0.354020	0.935231	0.003503	0.922251	0.349723	-0.164766
10243		-0.156435	-0.046957	-0.986571	-0.355280	0.934685	0.011847	0.921577	0.352362	-0.162900
10244		-0.157207	-0.039719	-0.986767	-0.361467	0.932169	0.020066	0.919036	0.359838	-0.160901
10245		-0.156738	-0.034670	-0.987031	-0.372418	0.927685	0.026553	0.914734	0.371751	-0.158315
10246		-0.154644	-0.032285	-0.987443	-0.384486	0.922642	0.030049	0.910086	0.384305	-0.155094
10247		-0.152414	-0.033819	-0.987738	-0.397785	0.916989	0.029984	0.904730	0.397477	-0.153214
10248		-0.149840	-0.038598	-0.987956	-0.412770	0.910434	0.027034	0.898426	0.411850	-0.152352
10249		-0.143463	-0.045414	-0.988613	-0.429750	0.902706	0.020895	0.891478	0.427854	-0.149021
10250		-0.133443	-0.053744	-0.989598	-0.445193	0.895362	0.011406	0.885435	0.442084	-0.143407
10251		-0.120361	-0.064975	-0.990602	-0.459765	0.888037	-0.002385	0.879846	0.455157	-0.136758
10252		-0.105326	-0.078975	-0.991297	-0.471426	0.881675	-0.020152	0.875593	0.465201	-0.130094
10253		-0.089350	-0.096702	-0.991295	-0.480924	0.875752	-0.042083	0.872197	0.472978	-0.124754
10254		-0.074385	-0.117285	-0.990309	-0.487571	0.870548	-0.066478	0.869909	0.477901	-0.121940
10255		-0.059074	-0.140422	-0.988328	-0.492275	0.865400	-0.093532	0.868433	0.481003	-0.120248
10256		-0.045643	-0.165795	-0.985103	-0.489092	0.863562	-0.122678	0.871037	0.476207	-0.120504
10257		-0.032059	-0.192512	-0.980771	-0.480087	0.863628	-0.153826	0.876635	0.465924	-0.120110
10258		-0.015356	-0.218718	-0.975667	-0.464109	0.865858	-0.186797	0.885645	0.449948	-0.114805
10259		0.004122	-0.243228	-0.969960	-0.441885	0.869687	-0.219961	0.897062	0.429517	-0.103894
10260		0.026337	-0.265634	-0.963714	-0.417952	0.872818	-0.252002	0.908087	0.409423	-0.088035
10261		0.050089	-0.287391	-0.956503	-0.387506	0.877088	-0.283823	0.920505	0.384867	-0.067433
10262		0.071696	-0.309055	-0.948338	-0.355923	0.880262	-0.313779	0.931761	0.360032	-0.046888
10263		0.090425	-0.329588	-0.939784	-0.324667	0.882342	-0.340682	0.941496	0.335923	-0.027220
10264		0.103327	-0.348063	-0.931759	-0.288421	0.886040	-0.362969	0.951912	0.306243	-0.008837
10265		0.109800	-0.365497	-0.924314	-0.247823	0.890501	-0.381565	0.962563	0.270962	0.007198
10266		0.110961	-0.379314	-0.918590	-0.224912	0.890733	-0.394979	0.968040	0.250430	0.013524
10267		0.120410	-0.386063	-0.914580	-0.233061	0.884541	-0.404067	0.964979	0.261806	0.016532
10268		0.120451	-0.389910	-0.912941	-0.248732	0.878448	-0.407996	0.961053	0.276221	0.008826
10269		0.112809	-0.391446	-0.913260	-0.257048	0.876341	-0.407373	0.959792	0.280707	-0.001762
10270		0.101574	-0.389471	-0.915421	-0.270128	0.874811	-0.402166	0.957452	0.288130	-0.016349
10271		0.089159	-0.383090	-0.919398	-0.287731	0.873812	-0.391998	0.953552	0.299490	-0.032318
10272		0.075379	-0.372898	-0.924805	-0.310224	0.872649	-0.377153	0.947670	0.315326	-0.049903
10273		0.058592	-0.359923	-0.931141	-0.334253	0.871831	-0.358030	0.940660	0.332214	-0.069223
10274		0.040419	-0.345001	-0.937732	-0.353922	0.872708	-0.336333	0.934401	0.345478	-0.086829
10275		0.021507	-0.328574	-0.944233	-0.369489	0.874973	-0.312889	0.928986	0.355613	-0.102587
10276		0.002606	-0.310792	-0.950474	-0.384603	0.877057	-0.287840	0.923079	0.366305	-0.117246
10277		-0.016733	-0.291651	-0.956378	-0.399485	0.878800	-0.261004	0.916587	0.377691	-0.131215
10278		-0.035290	-0.271576	-0.961770	-0.414345	0.879734	-0.233208	0.909435	0.390275	-0.143572
10279		-0.051594	-0.249662	-0.966958	-0.429644	0.879610	-0.204185	0.901523	0.404913	-0.152648
10280		-0.066649	-0.226784	-0.971662	-0.442619	0.879486	-0.174909	0.894229	0.418419	-0.158996
10281		-0.078123	-0.202316	-0.976199	-0.444038	0.883763	-0.147624	0.892595	0.421937	-0.158879
10282		-0.083351	-0.175635	-0.980920	-0.431736	0.893532	-0.123303	0.898141	0.413221	-0.150305
10283		-0.087853	-0.148607	-0.984986	-0.411301	0.905997	-0.100005	0.907256	0.396340	-0.140717
10284		-0.096448	-0.123809	-0.987608	-0.390095	0.917555	-0.076931	0.915710	0.377841	-0.136794
10285		-0.108120	-0.102261	-0.988864	-0.376216	0.924927	-0.054514	0.920202	0.366133	-0.138476
10286		-0.122586	-0.085642	-0.988756	-0.373826	0.926878	-0.033936	0.919362	0.365463	-0.145637
10287		-0.137757	-0.072887	-0.987781	-0.381359	0.924305	-0.015018	0.914105	0.374630	-0.155126
10288		-0.147090	-0.062962	-0.987117	-0.358866	0.933369	-0.006059	0.921726	0.353352	-0.159885
10289		-0.157475	-0.059661	-0.985719	-0.327755	0.944750	-0.004820	0.931546	0.322315	-0.168329
10290		-0.171437	-0.062573	-0.983206	-0.322168	0.946674	-0.004073	0.931030	0.316059	-0.182454
10291		-0.185148	-0.069037	-0.980283	-0.322523	0.946544	-0.005745	0.928277	0.315100	-0.197516
10292		-0.202240	-0.078330	-0.976198	-0.316100	0.948666	-0.010634	0.926919	0.306426	-0.216619
10293		-0.206202	-0.083494	-0.974941	-0.305627	0.952001	-0.016889	0.929555	0.294486	-0.221823
10294		-0.193087	-0.079692	-0.977940	-0.307966	0.951251	-0.016712	0.931598	0.297945	-0.208217
10295		-0.196794	-0.079668	-0.977203	-0.317594	0.948133	-0.013339	0.927581	0.307729	-0.211889
10296		-0.202663	-0.078155	-0.976125	-0.318553	0.947855	-0.009754	0.925987	0.308971	-0.216992
10297		-0.207267	-0.072725	-0.975578	-0.323698	0.946159	-0.001760	0.923179	0.315428	-0.219648
10298		-0.211910	-0.065237	-0.975109	-0.332031	0.943225	0.009053	0.919157	0.325685	-0.221539
10299		-0.216064	-0.056474	-0.974745	-0.338454	0.940759	0.020517	0.915841	0.334339	-0.222378
10300		-0.222121	-0.047861	-0.973844	-0.343530	0.938589	0.032226	0.912496	0.341703	-0.224922
10301		-0.226560	-0.038023	-0.973255	-0.347560	0.936610	0.044315	0.909875	0.348304	-0.225414
10302		-0.229706	-0.027412	-0.972874	-0.349459	0.935267	0.056158	0.908358	0.352880	-0.224416
10303		-0.231151	-0.016693	-0.972775	-0.349304	0.934614	0.066963	0.908050	0.355273	-0.221868
10304		-0.229668	-0.006404	-0.973248	-0.347156	0.934741	0.075771	0.909250	0.355271	-0.216903
10305		-0.226472	0.002163	-0.974015	-0.342181	0.936081	0.081641	0.911933	0.351779	-0.211256
10306		-0.222606	0.007994	-0.974876	-0.335821	0.938139	0.084375	0.915244	0.346166	-0.206151
10307		-0.216782	0.010356	-0.976165	-0.334069	0.938785	0.084147	0.917281	0.344348	-0.200052
10308		-0.205674	0.008664	-0.978582	-0.338075	0.937767	0.079358	0.918370	0.347156	-0.189945
10309		-0.190219	0.000616	-0.981742	-0.343279	0.936834	0.067100	0.919770	0.349775	-0.177992
10310		-0.174237	-0.016551	-0.984565	-0.350275	0.935504	0.046261	0.920298	0.352928	-0.168796
10311		-0.154078	-0.041281	-0.987196	-0.360592	0.932563	0.017284	0.919909	0.358639	-0.158573
10312		-0.129469	-0.071980	-0.988967	-0.379981	0.924827	-0.017567	0.915889	0.373515	-0.147087
10313		-0.103972	-0.108004	-0.988699	-0.406335	0.911952	-0.056890	0.907790	0.395827	-0.138704
10314		-0.082116	-0.147453	-0.985654	-0.434984	0.895125	-0.097670	0.896686	0.420724	-0.137644
10315		-0.061407	-0.186643	-0.980507	-0.458564	0.877821	-0.138378	0.886537	0.441128	-0.139493
10316		-0.040380	-0.224777	-0.973573	-0.470174	0.864026	-0.179984	0.881649	0.450481	-0.140574
10317		-0.018461	-0.261647	-0.964987	-0.473871	0.852155	-0.221988	0.880401	0.453181	-0.139719
10318		0.005535	-0.298618	-0.954357	-0.469077	0.842081	-0.266208	0.883140	0.449140	-0.135413
10319		0.034323	-0.334518	-0.941764	-0.454641	0.833945	-0.312790	0.890013	0.438900	-0.123462
10320		0.071031	-0.366556	-0.927681	-0.433602	0.826215	-0.359664	0.898301	0.427791	-0.100252
10321		0.108779	-0.398436	-0.910723	-0.395422	0.823214	-0.407382	0.912035	0.404435	-0.068002
10322		0.142434	-0.431981	-0.890564	-0.334450	0.825814	-0.454064	0.931588	0.362523	-0.026851
10323		0.175462	-0.466270	-0.867067	-0.265092	0.825824	-0.497736	0.948124	0.317186	0.021297
10324		0.209302	-0.500210	-0.840228	-0.191447	0.821669	-0.536851	0.958927	0.273223	0.076213
10325		0.243875	-0.531654	-0.811091	-0.117303	0.814032	-0.568852	0.962686	0.233872	0.136157
10326		0.272506	-0.560934	-0.781725	-0.059228	0.801153	-0.595522	0.960330	0.208583	0.185096
10327		0.295231	-0.586930	-0.753891	-0.021542	0.784773	-0.619409	0.955183	0.199108	0.219046
10328		0.313792	-0.608941	-0.728509	0.003576	0.768015	-0.640422	0.949485	0.198354	0.243175
10329		0.330351	-0.624987	-0.707290	0.020812	0.754002	-0.656542	0.943629	0.202169	0.262092
10330		0.345308	-0.633901	-0.692050	0.035832	0.745775	-0.665233	0.937805	0.204913	0.280236
10331		0.354573	-0.637950	-0.683592	0.049863	0.742953	-0.667484	0.933698	0.202586	0.295241
10332		0.356619	-0.640000	-0.680605	0.058425	0.742356	-0.667453	0.932421	0.198262	0.302130
10333		0.354050	-0.640093	-0.681857	0.058895	0.742895	-0.666812	0.933370	0.195927	0.300720
10334		0.347350	-0.637702	-0.687520	0.053421	0.745437	-0.664433	0.936213	0.194063	0.292994
10335		0.337651	-0.632123	-0.697433	0.043777	0.750692	-0.659200	0.940253	0.192048	0.281144
10336		0.324451	-0.623002	-0.711758	0.030405	0.758945	-0.650445	0.945414	0.189396	0.265183
10337		0.309867	-0.609707	-0.729548	0.017109	0.770767	-0.636888	0.950626	0.184869	0.249267
10338		0.294768	-0.591871	-0.750201	0.005807	0.786178	-0.617973	0.955551	0.177802	0.235176
10339		0.275551	-0.569616	-0.774344	-0.008030	0.804137	-0.594390	0.961253	0.170003	0.217006
10340		0.252862	-0.542891	-0.800831	-0.021511	0.824371	-0.565641	0.967263	0.160255	0.196774
10341		0.228734	-0.511818	-0.828084	-0.035744	0.845646	-0.532546	0.972832	0.151410	0.175134
10342		0.203349	-0.477505	-0.854774	-0.056256	0.865874	-0.497089	0.977489	0.149169	0.149213
10343		0.174506	-0.441858	-0.879948	-0.093258	0.882227	-0.461497	0.980230	0.162596	0.112746
10344		0.142465	-0.407229	-0.902147	-0.150570	0.891919	-0.426390	0.978280	0.196582	0.065750
10345		0.111262	-0.374248	-0.920630	-0.216233	0.895070	-0.389991	0.969981	0.242462	0.018662
10346		0.083783	-0.342848	-0.935647	-0.275005	0.894529	-0.352407	0.957785	0.286833	-0.019338
10347		0.059663	-0.311202	-0.948469	-0.317765	0.894813	-0.313586	0.946291	0.320099	-0.045501
10348		0.035242	-0.281412	-0.958940	-0.346091	0.896724	-0.275874	0.937539	0.341603	-0.065792
10349		0.014383	-0.252108	-0.967592	-0.363694	0.900090	-0.239926	0.931407	0.355358	-0.078745
10350		-0.002470	-0.222845	-0.974851	-0.373191	0.904630	-0.205847	0.927751	0.363297	-0.085399
10351		-0.015644	-0.194250	-0.980827	-0.371000	0.912050	-0.174711	0.928501	0.361154	-0.086335
10352		-0.025092	-0.168596	-0.985366	-0.355331	0.922814	-0.148845	0.934404	0.346397	-0.083062
10353		-0.035217	-0.147078	-0.988498	-0.340283	0.931773	-0.126515	0.939663	0.331914	-0.082862
10354		-0.047937	-0.130151	-0.990335	-0.332938	0.936857	-0.107007	0.941729	0.324590	-0.088243
10355		-0.061104	-0.116241	-0.991340	-0.319269	0.943292	-0.090928	0.945692	0.310948	-0.094751
10356		-0.073004	-0.105631	-0.991722	-0.307163	0.948421	-0.078407	0.948853	0.298896	-0.101684
10357		-0.080734	-0.098666	-0.991840	-0.307948	0.948874	-0.069325	0.947972	0.299838	-0.106990
10358		-0.092165	-0.096870	-0.991021	-0.320664	0.945125	-0.062562	0.942698	0.312019	-0.118170
10359		-0.111486	-0.099769	-0.988745	-0.336931	0.939812	-0.056841	0.934905	0.326802	-0.138392
10360		-0.124213	-0.105036	-0.986681	-0.346165	0.936494	-0.056115	0.929914	0.334585	-0.152684
10361		-0.130540	-0.115013	-0.984749	-0.356634	0.932211	-0.061601	0.925079	0.343153	-0.162709
10362		-0.134719	-0.130582	-0.982242	-0.375895	0.923917	-0.071273	0.916817	0.359618	-0.173554
10363		-0.131357	-0.146428	-0.980461	-0.391894	0.916138	-0.084318	0.910585	0.373161	-0.177725
10364		-0.125848	-0.159984	-0.979065	-0.400872	0.910949	-0.097326	0.907449	0.380232	-0.178774
10365		-0.121573	-0.171723	-0.977615	-0.414157	0.903863	-0.107265	0.902050	0.391846	-0.181006
10366		-0.118466	-0.182548	-0.976034	-0.424066	0.898106	-0.116502	0.897849	0.400101	-0.183808
10367		-0.116383	-0.191881	-0.974493	-0.437775	0.890620	-0.123083	0.891520	0.412284	-0.187654
10368		-0.114976	-0.199567	-0.973115	-0.452098	0.882790	-0.127627	0.884527	0.425270	-0.191724
10369		-0.116111	-0.206486	-0.971536	-0.463064	0.876596	-0.130966	0.878687	0.434676	-0.197398
10370		-0.117978	-0.211600	-0.970210	-0.466888	0.874125	-0.133870	0.876411	0.437186	-0.201921
10371		-0.121141	-0.213746	-0.969349	-0.464713	0.875126	-0.134894	0.877136	0.434128	-0.205344
10372		-0.126495	-0.211535	-0.969150	-0.457339	0.879403	-0.132253	0.880250	0.426500	-0.207983
10373		-0.132632	-0.203626	-0.970023	-0.447910	0.885353	-0.124609	0.884186	0.417956	-0.208632
10374		-0.138968	-0.190571	-0.971787	-0.437188	0.892310	-0.112467	0.888569	0.409225	-0.207318
10375		-0.146569	-0.173858	-0.973802	-0.424874	0.900068	-0.096745	0.893308	0.399564	-0.205790
10376		-0.154315	-0.154036	-0.975940	-0.408926	0.909156	-0.078836	0.899426	0.386921	-0.203286
10377		-0.161139	-0.131705	-0.978104	-0.389322	0.919169	-0.059630	0.906897	0.371189	-0.199390
10378		-0.166967	-0.107996	-0.980030	-0.367465	0.929186	-0.039788	0.914927	0.353484	-0.194828
10379		-0.171418	-0.083537	-0.981650	-0.345091	0.938365	-0.019593	0.922783	0.335400	-0.189681
10380		-0.174143	-0.059903	-0.982897	-0.324435	0.945908	-0.000168	0.929740	0.318857	-0.184157
10381		-0.175248	-0.038757	-0.983761	-0.307637	0.951346	0.017323	0.935226	0.305677	-0.178644
10382		-0.174208	-0.021267	-0.984479	-0.297131	0.954301	0.031963	0.938810	0.298088	-0.172566
10383		-0.171087	-0.007763	-0.985225	-0.294457	0.954669	0.043611	0.940226	0.297568	-0.165617
10384		-0.166384	0.001080	-0.986061	-0.299758	0.952617	0.051623	0.939394	0.304169	-0.158176
10385		-0.159060	0.006621	-0.987247	-0.315746	0.947117	0.057223	0.935417	0.320821	-0.148558
10386		-0.150185	0.008865	-0.988618	-0.343464	0.937210	0.060581	0.927080	0.348653	-0.137710
10387		-0.141933	0.004837	-0.989864	-0.381355	0.922532	0.059189	0.913468	0.385890	-0.129093
10388		-0.128950	-0.006273	-0.991631	-0.421424	0.905535	0.049073	0.897649	0.424226	-0.119412
10389		-0.108860	-0.024298	-0.993760	-0.452896	0.891129	0.027824	0.884893	0.453099	-0.108013
10390		-0.086381	-0.050494	-0.994982	-0.471194	0.882021	-0.003854	0.877790	0.468496	-0.099982
10391		-0.064430	-0.084963	-0.994299	-0.478592	0.876938	-0.043923	0.875671	0.473033	-0.097164
10392		-0.042542	-0.125171	-0.991223	-0.478737	0.873360	-0.089740	0.876927	0.470717	-0.097079
10393		-0.023264	-0.165498	-0.985936	-0.474795	0.869714	-0.134786	0.879789	0.464981	-0.098811
10394		-0.002144	-0.196352	-0.980531	-0.470315	0.865517	-0.172292	0.882496	0.460789	-0.094203
10395		0.029617	-0.220393	-0.974961	-0.472577	0.856404	-0.207949	0.880791	0.466904	-0.078788
10396		0.056795	-0.246809	-0.967398	-0.474685	0.845761	-0.243644	0.878322	0.473047	-0.069121
10397		0.077873	-0.276781	-0.957773	-0.471666	0.836147	-0.279982	0.878332	0.473552	-0.065435
10398		0.101310	-0.305437	-0.946807	-0.463815	0.827445	-0.316560	0.880120	0.471214	-0.057838
10399		0.127788	-0.332466	-0.934418	-0.446732	0.821863	-0.353513	0.885495	0.462609	-0.043499
10400		0.154045	-0.358694	-0.920657	-0.421899	0.818685	-0.389558	0.893460	0.448434	-0.025218
10401		0.182525	-0.382635	-0.905690	-0.389250	0.817777	-0.423940	0.902867	0.429919	0.000324
10402		0.213465	-0.404473	-0.889289	-0.341523	0.821943	-0.455821	0.915312	0.401014	0.037319
10403		0.243444	-0.425853	-0.871427	-0.285531	0.827176	-0.483995	0.926934	0.366646	0.079777
10404		0.273588	-0.446242	-0.852066	-0.219022	0.833689	-0.506943	0.936578	0.325315	0.130351
10405		0.302122	-0.466318	-0.831426	-0.146605	0.839079	-0.523883	0.941928	0.280168	0.185140
10406		0.328374	-0.485843	-0.810017	-0.084628	0.838989	-0.537528	0.940749	0.245060	0.234386
10407		0.348773	-0.505536	-0.789171	-0.041267	0.832945	-0.551815	0.936298	0.225025	0.269646
10408		0.361750	-0.523908	-0.771140	-0.014779	0.823833	-0.566641	0.932158	0.216379	0.290278
10409		0.372728	-0.539515	-0.754982	0.000682	0.813769	-0.581188	0.927940	0.216110	0.303683
10410		0.382578	-0.553235	-0.739976	0.010568	0.803475	-0.595245	0.923863	0.219908	0.313238
10411		0.388126	-0.565789	-0.727490	0.013476	0.792771	-0.609370	0.921508	0.226709	0.315320
10412		0.392701	-0.577348	-0.715859	0.015515	0.782439	-0.622534	0.919535	0.233363	0.316222
10413		0.395810	-0.588660	-0.704851	0.020595	0.773030	-0.634035	0.918102	0.236441	0.318096
10414		0.396378	-0.600559	-0.694416	0.027661	0.763840	-0.644812	0.917671	0.236381	0.319381
10415		0.396356	-0.612521	-0.683901	0.036341	0.754795	-0.654954	0.917377	0.234741	0.321427
10416		0.398059	-0.623954	-0.672481	0.046091	0.745738	-0.664643	0.916201	0.233572	0.325607
10417		0.400796	-0.634841	-0.660560	0.056479	0.736753	-0.673799	0.914425	0.232748	0.331143
10418		0.402590	-0.644765	-0.649768	0.064689	0.728099	-0.682413	0.913092	0.232700	0.334834
10419		0.403677	-0.653023	-0.640786	0.070187	0.720428	-0.689969	0.912205	0.233550	0.336654
10420		0.404336	-0.659602	-0.633590	0.074586	0.714216	-0.695940	0.911564	0.234137	0.337980
10421		0.403920	-0.664397	-0.628829	0.076978	0.709647	-0.700340	0.911550	0.234475	0.337784
10422		0.403039	-0.666931	-0.626708	0.077531	0.707210	-0.702739	0.911893	0.234642	0.336742
10423		0.401640	-0.667113	-0.627412	0.076918	0.707251	-0.702765	0.912562	0.233999	0.335373
10424		0.400711	-0.664575	-0.630691	0.080337	0.711209	-0.698375	0.912676	0.229179	0.338379
10425		0.398943	-0.659518	-0.637087	0.084061	0.718148	-0.690794	0.913115	0.222033	0.341940
10426		0.396868	-0.652068	-0.645990	0.085935	0.727093	-0.681140	0.913844	0.214810	0.344596
10427		0.393047	-0.642540	-0.657766	0.088824	0.738523	-0.668352	0.915218	0.204268	0.347347
10428		0.387309	-0.631198	-0.671997	0.093590	0.752039	-0.652440	0.917187	0.189803	0.350346
10429		0.379751	-0.618407	-0.688013	0.098953	0.766614	-0.634438	0.919781	0.172847	0.352316
10430		0.371036	-0.604446	-0.704966	0.104755	0.781554	-0.614979	0.922691	0.154331	0.353304
10431		0.361379	-0.589080	-0.722766	0.110553	0.796753	-0.594106	0.925842	0.134794	0.353055
10432		0.349730	-0.572302	-0.741728	0.111353	0.811505	-0.573637	0.930209	0.118024	0.347535
10433		0.334754	-0.554214	-0.762093	0.104944	0.825650	-0.554337	0.936444	0.105590	0.334551
10434		0.316702	-0.534828	-0.783364	0.089185	0.839007	-0.536761	0.944323	0.100130	0.313414
10435		0.297169	-0.514010	-0.804664	0.062174	0.851363	-0.520880	0.952799	0.104760	0.284957
10436		0.277717	-0.491985	-0.825121	0.026584	0.862515	-0.505334	0.960295	0.118405	0.252614
10437		0.258460	-0.468855	-0.844614	-0.018717	0.871727	-0.489634	0.965840	0.142359	0.216532
10438		0.236355	-0.445250	-0.863649	-0.074369	0.877935	-0.472968	0.968817	0.176017	0.174391
10439		0.210052	-0.421100	-0.882357	-0.137870	0.880715	-0.453137	0.967921	0.216833	0.126939
10440		0.181402	-0.397041	-0.899695	-0.205833	0.879280	-0.429533	0.961627	0.263106	0.077779
10441		0.151699	-0.374061	-0.914913	-0.272455	0.873942	-0.402485	0.950135	0.310329	0.030662
10442		0.124941	-0.351777	-0.927708	-0.328059	0.867795	-0.373241	0.936358	0.350976	-0.006980
10443		0.101831	-0.329106	-0.938787	-0.366375	0.864954	-0.342963	0.924878	0.378872	-0.032497
10444		0.083779	-0.304712	-0.948753	-0.385144	0.868209	-0.312854	0.919046	0.391617	-0.044621
10445		0.071893	-0.278457	-0.957754	-0.387726	0.876915	-0.284058	0.918967	0.391768	-0.044921
10446		0.066808	-0.250280	-0.965866	-0.379019	0.889100	-0.256604	0.922974	0.383225	-0.035462
10447		0.060683	-0.222504	-0.973041	-0.373576	0.898925	-0.228854	0.925612	0.377393	-0.028572
10448		0.049433	-0.197214	-0.979113	-0.376248	0.904417	-0.201164	0.925199	0.378333	-0.029493
10449		0.032656	-0.173101	-0.984363	-0.379650	0.908919	-0.172429	0.924554	0.379344	-0.036036
10450		0.016026	-0.148752	-0.988745	-0.369792	0.917875	-0.144083	0.928976	0.367939	-0.040297
10451		-0.000740	-0.124749	-0.992188	-0.352904	0.928383	-0.116463	0.935659	0.350061	-0.044711
10452		-0.020285	-0.101968	-0.994581	-0.348259	0.933205	-0.088572	0.937179	0.344575	-0.054441
10453		-0.038477	-0.078922	-0.996138	-0.344259	0.936895	-0.060931	0.938086	0.340585	-0.063219
10454		-0.054908	-0.059279	-0.996730	-0.347279	0.937047	-0.036598	0.936153	0.344134	-0.072038
10455		-0.068825	-0.045834	-0.996575	-0.359825	0.932845	-0.018052	0.930478	0.357351	-0.080695
10456		-0.080705	-0.043032	-0.995809	-0.381698	0.924243	-0.009005	0.920757	0.379372	-0.091016
10457		-0.100179	-0.048784	-0.993773	-0.407103	0.913374	-0.003799	0.907872	0.404188	-0.111361
10458		-0.114386	-0.057371	-0.991778	-0.414125	0.910207	-0.004890	0.903004	0.410161	-0.127874
10459		-0.114474	-0.069196	-0.991013	-0.415469	0.909475	-0.015511	0.902376	0.409959	-0.132860
10460		-0.115149	-0.087511	-0.989486	-0.424945	0.904703	-0.030561	0.897866	0.416958	-0.141363
10461		-0.110978	-0.105058	-0.988254	-0.428308	0.902366	-0.047830	0.896792	0.417969	-0.145140
10462		-0.102915	-0.123475	-0.986997	-0.436072	0.897429	-0.066801	0.894008	0.423526	-0.146203
10463		-0.093211	-0.141998	-0.985469	-0.444782	0.891463	-0.086383	0.890775	0.430267	-0.146253
10464		-0.088021	-0.162909	-0.982707	-0.461493	0.880944	-0.104704	0.882767	0.444296	-0.152723
10465		-0.079309	-0.182571	-0.979989	-0.475121	0.871161	-0.123846	0.876339	0.455791	-0.155835
10466		-0.070752	-0.201404	-0.976950	-0.491110	0.859507	-0.141626	0.868220	0.469770	-0.159723
10467		-0.058624	-0.216752	-0.974465	-0.496664	0.853091	-0.159876	0.865961	0.474609	-0.157665
10468		-0.046484	-0.226798	-0.972832	-0.497094	0.849988	-0.174407	0.866451	0.475482	-0.152250
10469		-0.037804	-0.230142	-0.972423	-0.491479	0.851567	-0.182432	0.870068	0.471029	-0.145302
10470		-0.035051	-0.226686	-0.973337	-0.486927	0.854388	-0.181448	0.872739	0.467584	-0.140326
10471		-0.038784	-0.217538	-0.975281	-0.484925	0.857479	-0.171978	0.873695	0.466269	-0.138746
10472		-0.048398	-0.205127	-0.977538	-0.488663	0.858424	-0.155938	0.871129	0.470140	-0.141784
10473		-0.062876	-0.191501	-0.979476	-0.495301	0.858016	-0.135959	0.866443	0.476587	-0.148799
10474		-0.080117	-0.178069	-0.980751	-0.503344	0.856482	-0.114388	0.860364	0.484490	-0.158249
10475		-0.097192	-0.164700	-0.981543	-0.509131	0.855633	-0.093159	0.855184	0.490680	-0.167015
10476		-0.111515	-0.150963	-0.982229	-0.509417	0.857338	-0.073932	0.853264	0.492120	-0.172509
10477		-0.122264	-0.135484	-0.983207	-0.501478	0.863317	-0.056604	0.856488	0.486136	-0.173494
10478		-0.130304	-0.116998	-0.984547	-0.486861	0.872597	-0.039259	0.863705	0.474222	-0.170665
10479		-0.136269	-0.094798	-0.986126	-0.467747	0.883629	-0.020309	0.873295	0.458490	-0.164753
10480		-0.140949	-0.070082	-0.987533	-0.446696	0.894686	0.000263	0.883513	0.441164	-0.157411
10481		-0.145019	-0.044888	-0.988410	-0.426994	0.903997	0.021594	0.892550	0.425177	-0.150264
10482		-0.147277	-0.021283	-0.988866	-0.411201	0.910593	0.041644	0.899568	0.412756	-0.142861
10483		-0.147732	-0.000600	-0.989027	-0.399722	0.914726	0.059152	0.904653	0.404074	-0.135374
10484		-0.145497	0.016216	-0.989226	-0.391321	0.917386	0.072594	0.908680	0.397667	-0.127131
10485		-0.140784	0.028342	-0.989635	-0.386150	0.918851	0.081248	0.911629	0.393586	-0.118416
10486		-0.134012	0.036088	-0.990322	-0.386119	0.918458	0.085719	0.912663	0.393870	-0.109150
10487		-0.122563	0.041456	-0.991595	-0.388304	0.917476	0.086352	0.913344	0.395624	-0.096351
10488		-0.109848	0.042027	-0.993059	-0.396260	0.914421	0.082532	0.911543	0.402576	-0.083794
10489		-0.095892	0.035136	-0.994771	-0.418202	0.905473	0.072295	0.903278	0.422948	-0.072134
10490		-0.077240	0.021150	-0.996788	-0.444146	0.894362	0.053393	0.892619	0.446843	-0.059687
10491		-0.055516	-0.000463	-0.998458	-0.459143	0.888007	0.025117	0.886626	0.459829	-0.049511
10492		-0.033378	-0.029033	-0.999021	-0.460606	0.887544	-0.010404	0.886977	0.459808	-0.042998
10493		-0.013133	-0.064678	-0.997820	-0.454787	0.889101	-0.051646	0.890503	0.453117	-0.041091
10494		0.009158	-0.102892	-0.994650	-0.449873	0.887919	-0.095993	0.893046	0.448346	-0.038157
10495		0.035289	-0.140410	-0.989464	-0.447476	0.883067	-0.141271	0.893599	0.447747	-0.031667
10496		0.057564	-0.175127	-0.982862	-0.451342	0.873575	-0.182089	0.890492	0.454089	-0.028756
10497		0.081787	-0.202897	-0.975779	-0.461110	0.860267	-0.217527	0.883566	0.467732	-0.023200
10498		0.113815	-0.224367	-0.967835	-0.466987	0.847760	-0.251447	0.876909	0.480585	-0.008289
10499		0.142426	-0.246743	-0.958558	-0.465908	0.837724	-0.284865	0.873295	0.487172	0.004354
10500		0.167674	-0.270514	-0.948002	-0.458450	0.829915	-0.317905	0.872759	0.487916	0.015138
10501		0.196961	-0.293065	-0.935585	-0.443836	0.824239	-0.351624	0.874194	0.484503	0.032270
10502		0.231108	-0.313408	-0.921067	-0.420015	0.821796	-0.385017	0.877597	0.475842	0.058288
10503		0.267637	-0.332449	-0.904350	-0.386448	0.822752	-0.416819	0.882626	0.461040	0.091724
10504		0.304643	-0.350035	-0.885815	-0.343798	0.826911	-0.444995	0.888254	0.440106	0.131572
10505		0.343266	-0.365747	-0.865100	-0.289133	0.835188	-0.467827	0.893628	0.410718	0.180943
10506		0.383330	-0.379041	-0.842250	-0.228653	0.844578	-0.484155	0.894861	0.378174	0.237083
10507		0.420758	-0.391653	-0.818273	-0.168896	0.852412	-0.494841	0.891312	0.346412	0.292511
10508		0.455489	-0.403390	-0.793603	-0.112980	0.858046	-0.500991	0.883043	0.317857	0.345256
10509		0.486326	-0.415198	-0.768829	-0.054088	0.863898	-0.500753	0.872102	0.285114	0.397679
10510		0.511525	-0.427586	-0.745327	-0.001815	0.866858	-0.498552	0.859266	0.256375	0.442644
10511		0.532982	-0.439222	-0.723197	0.037820	0.866227	-0.498217	0.845281	0.238189	0.478295
10512		0.553576	-0.449004	-0.701390	0.078152	0.866501	-0.493020	0.829123	0.218109	0.514765
10513		0.571521	-0.457434	-0.681262	0.113417	0.866279	-0.486516	0.812711	0.200787	0.546978
10514		0.586742	-0.465864	-0.662347	0.137772	0.863446	-0.485262	0.797968	0.193471	0.570804
10515		0.596967	-0.474851	-0.646643	0.155741	0.859279	-0.487221	0.787004	0.190146	0.586915
10516		0.600625	-0.484688	-0.635867	0.165168	0.853363	-0.494460	0.782284	0.191960	0.592607
10517		0.602820	-0.494518	-0.626148	0.172388	0.846955	-0.502941	0.779032	0.195242	0.595810
10518		0.605338	-0.503904	-0.616154	0.178132	0.840223	-0.512148	0.775780	0.200266	0.598380
10519		0.606519	-0.513171	-0.607281	0.179747	0.832537	-0.523997	0.774484	0.208658	0.597190
10520		0.607361	-0.522096	-0.598772	0.178862	0.824234	-0.537258	0.774029	0.219212	0.593991
10521		0.608843	-0.529545	-0.590671	0.176502	0.816346	-0.549934	0.773407	0.230568	0.590492
10522		0.611468	-0.534498	-0.583454	0.175113	0.810491	-0.558964	0.771649	0.239618	0.589187
10523		0.615939	-0.536306	-0.577057	0.175339	0.807451	-0.563276	0.768033	0.245763	0.591376
10524		0.620025	-0.535993	-0.572957	0.176949	0.806986	-0.563438	0.764367	0.247962	0.595195
10525		0.620661	-0.535236	-0.572977	0.179841	0.808460	-0.560402	0.763176	0.244775	0.598037
10526		0.617782	-0.534888	-0.576403	0.182804	0.810620	-0.556308	0.764806	0.238308	0.598566
10527		0.613089	-0.534297	-0.581935	0.185943	0.813512	-0.551020	0.767820	0.229617	0.598105
10528		0.605724	-0.533333	-0.590470	0.186270	0.816526	-0.546433	0.773565	0.221001	0.593933
10529		0.595233	-0.531724	-0.602468	0.181663	0.819389	-0.543692	0.782749	0.214177	0.584322
10530		0.581965	-0.529039	-0.617604	0.169818	0.821778	-0.543915	0.795285	0.211659	0.568086
10531		0.566160	-0.525552	-0.635026	0.148591	0.822836	-0.548508	0.810792	0.216184	0.543949
10532		0.549675	-0.520662	-0.653276	0.127485	0.825133	-0.550366	0.825594	0.219239	0.519931
10533		0.532756	-0.513579	-0.672613	0.107441	0.829414	-0.548206	0.839421	0.219794	0.497054
10534		0.517791	-0.503603	-0.691575	0.090680	0.836134	-0.540977	0.850688	0.217401	0.478610
10535		0.504737	-0.491023	-0.710026	0.079161	0.845342	-0.528329	0.859636	0.210460	0.465545
10536		0.491964	-0.476847	-0.728416	0.071790	0.856037	-0.511905	0.867651	0.199546	0.455372
10537		0.479583	-0.461642	-0.746249	0.066974	0.867205	-0.493426	0.874937	0.186660	0.446814
10538		0.466804	-0.445834	-0.763758	0.066448	0.878868	-0.472416	0.881861	0.169775	0.439883
10539		0.453310	-0.429045	-0.781301	0.068103	0.890642	-0.449576	0.888748	0.150588	0.432956
10540		0.435570	-0.411060	-0.800817	0.062933	0.901374	-0.428445	0.897952	0.136220	0.418481
10541		0.411419	-0.392295	-0.822702	0.039664	0.909485	-0.413841	0.910583	0.137631	0.389739
10542		0.380528	-0.374348	-0.845613	-0.006587	0.913284	-0.407270	0.924746	0.160548	0.345064
10543		0.349941	-0.357002	-0.866078	-0.068202	0.912372	-0.403641	0.934286	0.200319	0.294928
10544		0.325411	-0.339798	-0.882409	-0.135740	0.906748	-0.399228	0.935779	0.249691	0.248941
10545		0.304845	-0.322716	-0.896060	-0.205446	0.896410	-0.392736	0.929979	0.303816	0.206965
10546		0.287443	-0.306243	-0.907519	-0.263097	0.885813	-0.382250	0.920954	0.348641	0.174050
10547		0.273821	-0.290058	-0.917000	-0.295641	0.881894	-0.367233	0.915215	0.371659	0.155728
10548		0.258855	-0.275347	-0.925839	-0.312787	0.882967	-0.350048	0.913870	0.380202	0.142435
10549		0.237475	-0.262878	-0.935148	-0.323191	0.886460	-0.331264	0.916053	0.380898	0.125552
10550		0.211252	-0.251409	-0.944545	-0.333387	0.889871	-0.311420	0.918817	0.380688	0.104171
10551		0.186702	-0.237526	-0.953270	-0.343770	0.893191	-0.289884	0.920307	0.381827	0.085106
10552		0.164843	-0.221798	-0.961058	-0.356883	0.894953	-0.267756	0.919490	0.387123	0.068371
10553		0.142235	-0.206575	-0.968037	-0.370053	0.895967	-0.245568	0.918057	0.393154	0.050995
10554		0.117794	-0.192498	-0.974202	-0.381547	0.896955	-0.223369	0.916813	0.398015	0.032209
10555		0.092972	-0.178263	-0.979581	-0.392030	0.897817	-0.200592	0.915243	0.402674	0.013587
10556		0.070083	-0.162988	-0.984136	-0.395581	0.901133	-0.177412	0.915753	0.401739	-0.001320
10557		0.051419	-0.144707	-0.988138	-0.389544	0.908166	-0.153266	0.919571	0.392804	-0.009673
10558		0.036441	-0.124414	-0.991561	-0.376114	0.917557	-0.128951	0.925857	0.377639	-0.013357
10559		0.020826	-0.104024	-0.994357	-0.355026	0.928984	-0.104621	0.934624	0.355202	-0.017584
10560		0.002498	-0.085457	-0.996339	-0.336280	0.938245	-0.081317	0.941759	0.335252	-0.026394
10561		-0.015236	-0.068565	-0.997530	-0.326068	0.943449	-0.059867	0.945224	0.324350	-0.036731
10562		-0.030330	-0.057156	-0.997904	-0.339756	0.939508	-0.043485	0.940025	0.337725	-0.047914
10563		-0.048594	-0.052794	-0.997422	-0.377143	0.925649	-0.030621	0.924879	0.374683	-0.064892
10564		-0.077959	-0.052733	-0.995561	-0.374081	0.927184	-0.019818	0.924113	0.370876	-0.092008
10565		-0.092741	-0.055387	-0.994149	-0.361904	0.932038	-0.018166	0.927591	0.358101	-0.106483
10566		-0.090204	-0.063709	-0.993884	-0.373379	0.927327	-0.025555	0.923283	0.368790	-0.107436
10567		-0.090328	-0.080220	-0.992676	-0.404057	0.913981	-0.037094	0.910263	0.397747	-0.114971
10568		-0.095491	-0.104097	-0.989972	-0.418280	0.906652	-0.054989	0.903285	0.408835	-0.130119
10569		-0.090839	-0.126948	-0.987741	-0.419872	0.904260	-0.077604	0.903026	0.407675	-0.135444
10570		-0.082133	-0.145115	-0.986000	-0.422364	0.901173	-0.097447	0.902697	0.408447	-0.135308
10571		-0.081048	-0.162468	-0.983380	-0.434793	0.893564	-0.111795	0.896876	0.418505	-0.143061
10572		-0.082093	-0.178273	-0.980551	-0.457810	0.880669	-0.121786	0.885252	0.438908	-0.153912
10573		-0.084305	-0.193481	-0.977475	-0.489968	0.862231	-0.128411	0.867654	0.468106	-0.167490
10574		-0.086343	-0.208878	-0.974123	-0.519598	0.843701	-0.134857	0.850037	0.494508	-0.181380
10575		-0.087048	-0.225865	-0.970262	-0.544615	0.826319	-0.143496	0.834157	0.515928	-0.194938
10576		-0.082241	-0.239372	-0.967439	-0.552223	0.819027	-0.155707	0.829630	0.521437	-0.199545
10577		-0.074020	-0.246863	-0.966219	-0.544715	0.821585	-0.168180	0.835348	0.513865	-0.195284
10578		-0.066415	-0.250486	-0.965839	-0.527419	0.830509	-0.179121	0.847006	0.497505	-0.187269
10579		-0.061027	-0.251508	-0.965929	-0.506544	0.841659	-0.187147	0.860052	0.477865	-0.178764
10580		-0.060415	-0.250682	-0.966182	-0.486635	0.852523	-0.190764	0.871514	0.458654	-0.173496
10581		-0.065010	-0.247595	-0.966680	-0.470564	0.861864	-0.189103	0.879967	0.442592	-0.172540
10582		-0.071893	-0.241281	-0.967789	-0.460555	0.868696	-0.182363	0.884715	0.432609	-0.173577
10583		-0.080038	-0.232326	-0.969339	-0.455916	0.873311	-0.171665	0.886417	0.428197	-0.175819
10584		-0.088388	-0.221808	-0.971076	-0.453440	0.876982	-0.159043	0.886893	0.426267	-0.178092
10585		-0.096568	-0.209547	-0.973018	-0.450115	0.881106	-0.145081	0.887734	0.423960	-0.179407
10586		-0.103808	-0.195274	-0.975239	-0.445517	0.885793	-0.129941	0.889235	0.420997	-0.178951
10587		-0.109409	-0.178021	-0.977925	-0.440223	0.890762	-0.112903	0.891198	0.418153	-0.175826
10588		-0.113813	-0.157757	-0.980897	-0.434900	0.895603	-0.093578	0.893257	0.415941	-0.170540
10589		-0.117807	-0.134307	-0.983912	-0.429462	0.900253	-0.071467	0.895368	0.414134	-0.163736
10590		-0.121998	-0.108897	-0.986538	-0.424281	0.904292	-0.047350	0.897275	0.412793	-0.156525
10591		-0.127408	-0.082131	-0.988444	-0.420991	0.906820	-0.021084	0.898072	0.413440	-0.150113
10592		-0.133498	-0.055515	-0.989493	-0.419670	0.907659	0.005696	0.897806	0.416021	-0.144468
10593		-0.138545	-0.029367	-0.989921	-0.418148	0.907830	0.031590	0.897751	0.418310	-0.138055
10594		-0.140590	-0.003730	-0.990061	-0.412789	0.909153	0.055191	0.899911	0.416445	-0.129358
10595		-0.138285	0.021126	-0.990167	-0.401302	0.912827	0.075521	0.905447	0.407800	-0.117752
10596		-0.132406	0.042968	-0.990264	-0.386631	0.917683	0.091514	0.912680	0.394984	-0.104894
10597		-0.126169	0.059743	-0.990208	-0.377989	0.919988	0.103668	0.917173	0.387367	-0.093492
10598		-0.121630	0.070172	-0.990092	-0.387338	0.915056	0.112437	0.913879	0.397176	-0.084118
10599		-0.115540	0.075301	-0.990444	-0.421031	0.899404	0.117495	0.899657	0.430583	-0.072213
10600		-0.104192	0.072698	-0.991897	-0.455794	0.882935	0.112590	0.883966	0.463832	-0.058860
10601		-0.084507	0.061279	-0.994537	-0.458026	0.884020	0.093388	0.884913	0.463416	-0.046638
10602		-0.060302	0.041075	-0.997335	-0.428852	0.901172	0.063044	0.901360	0.431510	-0.036728
10603		-0.040463	0.009876	-0.999132	-0.393831	0.918842	0.025031	0.918292	0.394502	-0.033289
10604		-0.028772	-0.030735	-0.999113	-0.369336	0.929123	-0.017946	0.928850	0.368492	-0.038085
10605		-0.019087	-0.075503	-0.996963	-0.345438	0.936237	-0.064290	0.938247	0.343162	-0.043952
10606		-0.007469	-0.116649	-0.993145	-0.319859	0.941272	-0.108151	0.947436	0.316858	-0.044342
10607		0.015064	-0.146077	-0.989159	-0.315419	0.938065	-0.143335	0.948833	0.314159	-0.031945
10608		0.056355	-0.161856	-0.985204	-0.323218	0.930675	-0.171386	0.944645	0.328095	0.000134
10609		0.090950	-0.177460	-0.979916	-0.321017	0.926244	-0.197536	0.942696	0.332535	0.027275
10610		0.113241	-0.196642	-0.973914	-0.317484	0.921668	-0.223008	0.941478	0.334456	0.041940
10611		0.137984	-0.214104	-0.967016	-0.318526	0.914893	-0.248015	0.937817	0.342242	0.058043
10612		0.163839	-0.229701	-0.959372	-0.316726	0.908778	-0.271677	0.934260	0.348369	0.076141
10613		0.189025	-0.243666	-0.951260	-0.308681	0.904873	-0.293122	0.932194	0.349043	0.095828
10614		0.214766	-0.256469	-0.942390	-0.290494	0.904462	-0.312349	0.932464	0.340841	0.119745
10615		0.240434	-0.268911	-0.932673	-0.260767	0.907642	-0.328917	0.934983	0.322293	0.148105
10616		0.265194	-0.280940	-0.922358	-0.224858	0.912213	-0.342501	0.937609	0.298229	0.178741
10617		0.290517	-0.291351	-0.911435	-0.183961	0.917742	-0.352004	0.939020	0.269932	0.213023
10618		0.317329	-0.299064	-0.899924	-0.142753	0.923093	-0.357100	0.937510	0.241785	0.250232
10619		0.347540	-0.304211	-0.886945	-0.100622	0.928346	-0.357839	0.932251	0.213610	0.292027
10620		0.377883	-0.307731	-0.873216	-0.057245	0.933577	-0.353775	0.924082	0.183673	0.335166
10621		0.404952	-0.309991	-0.860186	-0.020121	0.937525	-0.347335	0.914117	0.157962	0.373415
10622		0.430049	-0.310963	-0.847561	0.012549	0.940776	-0.338796	0.902718	0.135063	0.408482
10623		0.449908	-0.310852	-0.837230	0.042968	0.943917	-0.327374	0.892041	0.111314	0.438033
10624		0.463123	-0.310248	-0.830218	0.063898	0.945981	-0.317864	0.883987	0.094161	0.457930
10625		0.473074	-0.310557	-0.824473	0.081443	0.947222	-0.310062	0.877250	0.079535	0.473398
10626		0.483456	-0.313783	-0.817197	0.095519	0.946881	-0.307070	0.870142	0.070397	0.487748
10627		0.494414	-0.321196	-0.807705	0.105523	0.944529	-0.311014	0.862797	0.068538	0.500882
10628		0.504477	-0.331570	-0.797223	0.114886	0.940893	-0.318625	0.855748	0.069149	0.512751
10629		0.512645	-0.342986	-0.787119	0.122276	0.936566	-0.328470	0.849849	0.072143	0.522064
10630		0.521345	-0.355508	-0.775766	0.135807	0.932067	-0.335867	0.842470	0.069748	0.534209
10631		0.527674	-0.369124	-0.765054	0.150891	0.927057	-0.343215	0.835938	0.065666	0.544882
10632		0.531722	-0.383655	-0.755037	0.164799	0.921339	-0.352101	0.830730	0.062791	0.553122
10633		0.535632	-0.398125	-0.744711	0.175716	0.915131	-0.362848	0.825967	0.063495	0.560130
10634		0.541234	-0.412201	-0.732909	0.184536	0.908584	-0.374728	0.820373	0.067567	0.567823
10635		0.547838	-0.425995	-0.720001	0.192916	0.901777	-0.386758	0.814038	0.072981	0.576209
10636		0.554112	-0.439116	-0.707204	0.202156	0.895104	-0.397393	0.807523	0.077235	0.584758
10637		0.559931	-0.450997	-0.695039	0.212086	0.888942	-0.405958	0.800935	0.079901	0.593396
10638		0.565726	-0.460851	-0.683792	0.221172	0.883665	-0.412575	0.794379	0.082169	0.601840
10639		0.570517	-0.468784	-0.674352	0.229253	0.879357	-0.417343	0.788640	0.083504	0.609158
10640		0.573759	-0.474992	-0.667221	0.237024	0.876090	-0.419863	0.783977	0.082753	0.615249
10641		0.576256	-0.479263	-0.661994	0.242940	0.873844	-0.421160	0.780326	0.081871	0.619990
10642		0.578443	-0.481756	-0.658267	0.247117	0.872544	-0.421425	0.777391	0.081101	0.623767
10643		0.579372	-0.482273	-0.657069	0.249132	0.872361	-0.420619	0.776055	0.079998	0.625571
10644		0.577732	-0.480932	-0.659492	0.249151	0.873323	-0.418605	0.777270	0.077529	0.624372
10645		0.574351	-0.478074	-0.664504	0.250155	0.875419	-0.413599	0.779451	0.071321	0.622390
10646		0.570901	-0.474368	-0.670110	0.248898	0.877781	-0.409328	0.782382	0.066897	0.619196
10647		0.568387	-0.469825	-0.675426	0.243135	0.880177	-0.407644	0.786016	0.067480	0.614512
10648		0.566861	-0.464384	-0.680453	0.237407	0.883023	-0.404856	0.788864	0.067953	0.610799
10649		0.564447	-0.458535	-0.686400	0.231196	0.886063	-0.401796	0.792432	0.068099	0.606147
10650		0.561201	-0.452537	-0.693011	0.223005	0.889002	-0.399930	0.797071	0.069896	0.599827
10651		0.556909	-0.446221	-0.700528	0.212764	0.891928	-0.398994	0.802860	0.073156	0.591662
10652		0.552451	-0.439247	-0.708421	0.199424	0.894857	-0.399326	0.809338	0.079332	0.581961
10653		0.547878	-0.431200	-0.716865	0.186010	0.898263	-0.398151	0.815616	0.084794	0.572346
10654		0.542293	-0.421654	-0.726723	0.174692	0.902634	-0.393362	0.821828	0.086364	0.563152
10655		0.533961	-0.410765	-0.739025	0.164387	0.907815	-0.385809	0.829375	0.084521	0.552262
10656		0.520823	-0.398885	-0.754741	0.150483	0.913173	-0.378774	0.840297	0.083698	0.535627
10657		0.503661	-0.385627	-0.773057	0.124134	0.917863	-0.376986	0.854937	0.093910	0.510161
10658		0.482534	-0.371053	-0.793398	0.079232	0.920610	-0.382360	0.872286	0.121639	0.473625
10659		0.460097	-0.354865	-0.813868	0.027205	0.921858	-0.386571	0.887452	0.155719	0.433799
10660		0.439699	-0.337403	-0.832360	-0.021885	0.922455	-0.385485	0.897878	0.187713	0.398219
10661		0.419549	-0.319542	-0.849630	-0.067857	0.922333	-0.380392	0.905193	0.217246	0.365281
10662		0.397973	-0.301559	-0.866418	-0.115837	0.920353	-0.373539	0.910054	0.249022	0.331344
10663		0.376277	-0.283198	-0.882165	-0.162092	0.917334	-0.363627	0.912218	0.279816	0.299267
10664		0.353642	-0.265012	-0.897054	-0.203256	0.914338	-0.350247	0.913030	0.306194	0.269483
10665		0.326315	-0.247237	-0.912355	-0.244732	0.910181	-0.334180	0.913030	0.332331	0.236499
10666		0.295000	-0.229432	-0.927543	-0.289799	0.903534	-0.315662	0.910490	0.361922	0.200053
10667		0.263222	-0.210775	-0.941429	-0.329930	0.897334	-0.293150	0.906565	0.387769	0.166657
10668		0.232316	-0.192027	-0.953496	-0.356096	0.895462	-0.267101	0.905111	0.401588	0.139650
10669		0.199380	-0.174763	-0.964212	-0.374252	0.895799	-0.239751	0.905640	0.408660	0.113199
10670		0.164762	-0.159440	-0.973361	-0.391755	0.895091	-0.212932	0.905197	0.416402	0.085015
10671		0.132267	-0.144411	-0.980638	-0.404640	0.895274	-0.186417	0.904860	0.421462	0.059981
10672		0.105461	-0.128216	-0.986123	-0.408671	0.898454	-0.160522	0.906568	0.419929	0.042353
10673		0.081352	-0.111814	-0.990394	-0.405972	0.903802	-0.135385	0.910257	0.413086	0.028133
10674		0.053855	-0.097134	-0.993813	-0.394208	0.912350	-0.110534	0.917442	0.397722	0.010843
10675		0.019708	-0.084248	-0.996250	-0.376102	0.922629	-0.085462	0.926369	0.376376	-0.013503
10676		-0.014833	-0.071036	-0.997363	-0.360026	0.930949	-0.060951	0.932824	0.358173	-0.039384
10677		-0.040191	-0.055823	-0.997631	-0.349714	0.936074	-0.038290	0.935994	0.347347	-0.057144
10678		-0.058173	-0.042173	-0.997415	-0.352633	0.935569	-0.018991	0.933952	0.350616	-0.069297
10679		-0.078317	-0.036666	-0.996254	-0.363130	0.931721	-0.005745	0.928441	0.361319	-0.086284
10680		-0.101486	-0.036224	-0.994177	-0.357502	0.933909	0.002466	0.928382	0.355671	-0.107728
10681		-0.115408	-0.036575	-0.992645	-0.340278	0.940312	0.004915	0.933216	0.338342	-0.120965
10682		-0.116507	-0.039703	-0.992396	-0.306664	0.951816	-0.002077	0.944660	0.304090	-0.123069
10683		-0.118981	-0.045933	-0.991833	-0.296899	0.954870	-0.008605	0.947467	0.293451	-0.127249
10684		-0.117046	-0.052091	-0.991759	-0.296130	0.955026	-0.015213	0.947949	0.291909	-0.127208
10685		-0.115943	-0.061270	-0.991364	-0.292226	0.956025	-0.024910	0.949295	0.286814	-0.128749
10686		-0.116433	-0.071983	-0.990587	-0.297934	0.953970	-0.034303	0.947459	0.291135	-0.132520
10687		-0.117341	-0.083691	-0.989559	-0.327824	0.943851	-0.040953	0.937423	0.319596	-0.138188
10688		-0.116236	-0.098854	-0.988290	-0.379092	0.924121	-0.047849	0.918030	0.369091	-0.144891
10689		-0.119002	-0.121749	-0.985401	-0.430806	0.900499	-0.059233	0.894564	0.417468	-0.159612
10690		-0.113760	-0.150648	-0.982020	-0.455479	0.886349	-0.083208	0.882948	0.437824	-0.169448
10691		-0.096540	-0.177470	-0.979380	-0.450347	0.885282	-0.116027	0.887619	0.429860	-0.165389
10692		-0.076274	-0.198133	-0.977203	-0.429982	0.890782	-0.147049	0.899610	0.408963	-0.153137
10693		-0.053683	-0.212653	-0.975652	-0.399516	0.900025	-0.174187	0.915153	0.380438	-0.133274
10694		-0.034652	-0.223522	-0.974083	-0.378029	0.905183	-0.194264	0.925145	0.361500	-0.115864
10695		-0.023691	-0.229389	-0.973046	-0.378246	0.903022	-0.203672	0.925402	0.363225	-0.108159
10696		-0.022757	-0.231047	-0.972677	-0.395455	0.895658	-0.203500	0.918204	0.380018	-0.111751
10697		-0.031305	-0.229622	-0.972776	-0.425574	0.883686	-0.194897	0.904382	0.407887	-0.125385
10698		-0.047629	-0.225515	-0.973075	-0.455157	0.872063	-0.179826	0.889137	0.434337	-0.144180
10699		-0.065922	-0.218637	-0.973577	-0.476481	0.864167	-0.161804	0.876710	0.453225	-0.161144
10700		-0.083954	-0.210968	-0.973881	-0.491476	0.858953	-0.143704	0.866835	0.466575	-0.175799
10701		-0.098790	-0.202986	-0.974185	-0.493339	0.860187	-0.129205	0.864209	0.467840	-0.185119
10702		-0.106904	-0.192369	-0.975482	-0.479076	0.869670	-0.119000	0.871239	0.454608	-0.185131
10703		-0.108873	-0.178440	-0.977909	-0.453725	0.884223	-0.110831	0.884466	0.431635	-0.177230
10704		-0.109801	-0.162142	-0.980639	-0.428753	0.897821	-0.100442	0.896724	0.409424	-0.168101
10705		-0.111916	-0.142544	-0.983441	-0.410418	0.907937	-0.084895	0.905004	0.394121	-0.160115
10706		-0.114750	-0.120274	-0.986086	-0.401356	0.913632	-0.064731	0.908706	0.388344	-0.153112
10707		-0.120647	-0.096716	-0.987973	-0.402233	0.914645	-0.040419	0.907553	0.392519	-0.149251
10708		-0.129707	-0.073051	-0.988858	-0.409509	0.912204	-0.013674	0.903039	0.403173	-0.148234
10709		-0.138660	-0.048136	-0.989169	-0.416562	0.908997	0.014158	0.898471	0.414013	-0.146094
10710		-0.145109	-0.022390	-0.989162	-0.421742	0.905772	0.041366	0.895029	0.423174	-0.140879
10711		-0.147695	0.003147	-0.989028	-0.421793	0.904297	0.065865	0.894582	0.426893	-0.132232
10712		-0.146435	0.027809	-0.988829	-0.417489	0.904482	0.087262	0.896805	0.425604	-0.120838
10713		-0.141343	0.051310	-0.988630	-0.410308	0.905804	0.105672	0.900927	0.420579	-0.106976
10714		-0.132290	0.073487	-0.988483	-0.401850	0.907642	0.121257	0.906099	0.413263	-0.090541
10715		-0.122362	0.092578	-0.988158	-0.396872	0.908009	0.134213	0.909681	0.408595	-0.074364
10716		-0.113371	0.107605	-0.987709	-0.402408	0.903957	0.144670	0.908413	0.413864	-0.059181
10717		-0.104581	0.119002	-0.987371	-0.424170	0.892647	0.152513	0.899523	0.434763	-0.042877
10718		-0.094892	0.124519	-0.987669	-0.456678	0.876142	0.154335	0.884557	0.465692	-0.026274
10719		-0.080413	0.123477	-0.989084	-0.479190	0.865317	0.146984	0.874020	0.485778	-0.010414
10720		-0.062730	0.115174	-0.991363	-0.481669	0.866485	0.131145	0.874105	0.485735	0.001121
10721		-0.042174	0.100319	-0.994061	-0.473322	0.874206	0.108304	0.879880	0.475078	0.010615
10722		-0.017168	0.081008	-0.996566	-0.459305	0.884685	0.079826	0.888113	0.459098	0.022019
10723		0.010911	0.056589	-0.998338	-0.438674	0.897464	0.046077	0.898580	0.437443	0.034617
10724		0.044089	0.029553	-0.998590	-0.415213	0.909684	0.008590	0.908655	0.414249	0.052377
10725		0.080947	0.003057	-0.996714	-0.400267	0.915917	-0.029698	0.912816	0.401356	0.075365
10726		0.116782	-0.019728	-0.992962	-0.397006	0.915520	-0.064882	0.910356	0.401789	0.099084
10727		0.152158	-0.037805	-0.987633	-0.401089	0.910925	-0.096662	0.903314	0.410836	0.123441
10728		0.186024	-0.050900	-0.981226	-0.396082	0.910034	-0.122298	0.899174	0.411397	0.149127
10729		0.217482	-0.061401	-0.974131	-0.387045	0.910776	-0.143818	0.896045	0.408311	0.174312
10730		0.248811	-0.069657	-0.966044	-0.377288	0.911655	-0.162909	0.892046	0.405010	0.200549
10731		0.276096	-0.077198	-0.958025	-0.363418	0.914383	-0.178416	0.889774	0.397423	0.224402
10732		0.299816	-0.083300	-0.950353	-0.344924	0.919324	-0.189396	0.889459	0.384584	0.246896
10733		0.323386	-0.087459	-0.942217	-0.320321	0.926817	-0.195970	0.890402	0.365186	0.271705
10734		0.347329	-0.089957	-0.933419	-0.288795	0.936748	-0.197740	0.892166	0.338248	0.299380
10735		0.371284	-0.091810	-0.923969	-0.249822	0.948528	-0.194638	0.894280	0.303094	0.329237
10736		0.396409	-0.093084	-0.913343	-0.201609	0.961736	-0.185519	0.895664	0.257679	0.362474
10737		0.424244	-0.093943	-0.900662	-0.142237	0.975345	-0.168731	0.894307	0.199691	0.400422
10738		0.450135	-0.095051	-0.887887	-0.079552	0.986096	-0.145896	0.889410	0.136306	0.436315
10739		0.468069	-0.095451	-0.878522	-0.020008	0.992750	-0.118522	0.883465	0.073053	0.462766
10740		0.477168	-0.091994	-0.873984	0.027015	0.995571	-0.090043	0.878397	0.019355	0.477540
10741		0.482735	-0.086811	-0.871453	0.048508	0.996198	-0.072367	0.874422	-0.007338	0.485110
10742		0.489013	-0.086544	-0.867972	0.053754	0.996165	-0.069041	0.870618	-0.012895	0.491790
10743		0.490347	-0.090277	-0.866839	0.056373	0.995823	-0.071821	0.869702	-0.013650	0.493388
10744		0.487792	-0.094450	-0.867835	0.057429	0.995448	-0.076058	0.871069	-0.012739	0.490996
10745		0.487434	-0.097860	-0.867659	0.068356	0.994927	-0.073813	0.870480	-0.023331	0.491650
10746		0.489365	-0.102084	-0.866083	0.087107	0.993880	-0.067929	0.867718	-0.042200	0.495263
10747		0.489529	-0.108000	-0.865273	0.100377	0.992683	-0.067114	0.866190	-0.053999	0.496788
10748		0.487128	-0.116024	-0.865589	0.105517	0.991694	-0.073545	0.866933	-0.055509	0.495325
10749		0.483300	-0.126336	-0.866291	0.109784	0.990467	-0.083197	0.868544	-0.054896	0.492563
10750		0.480558	-0.139194	-0.865846	0.119603	0.988500	-0.092531	0.868769	-0.059091	0.491680
10751		0.480647	-0.154245	-0.863242	0.135958	0.985613	-0.100410	0.866310	-0.069103	0.494703
10752		0.480184	-0.170080	-0.860521	0.153321	0.982194	-0.108573	0.863665	-0.079801	0.497710
10753		0.474591	-0.185804	-0.860372	0.166032	0.978817	-0.119799	0.864406	-0.085994	0.495387
10754		0.464548	-0.201856	-0.862235	0.174046	0.975495	-0.134600	0.868276	-0.087540	0.488297
10755		0.451478	-0.219363	-0.864897	0.177403	0.972026	-0.153930	0.874469	-0.083940	0.477764
10756		0.436447	-0.237035	-0.867945	0.175257	0.968592	-0.176393	0.882496	-0.075127	0.464281
10757		0.423450	-0.253799	-0.869642	0.172228	0.965000	-0.197766	0.889397	-0.066033	0.452341
10758		0.414384	-0.268529	-0.869585	0.169886	0.961509	-0.215959	0.894106	-0.058241	0.444053
10759		0.408354	-0.280324	-0.868715	0.167119	0.958552	-0.230757	0.897395	-0.050948	0.438276
10760		0.404033	-0.288762	-0.867971	0.163481	0.956385	-0.242078	0.900017	-0.044089	0.433618
10761		0.399205	-0.294434	-0.868300	0.158693	0.954930	-0.250850	0.903024	-0.037653	0.427937
10762		0.392793	-0.298062	-0.869984	0.154695	0.953954	-0.256986	0.906523	-0.033640	0.420815
10763		0.386512	-0.300194	-0.872062	0.152059	0.953348	-0.260780	0.909663	-0.031810	0.414128
10764		0.382304	-0.300895	-0.873674	0.148541	0.953212	-0.263290	0.912019	-0.029120	0.409112
10765		0.377716	-0.299619	-0.876104	0.143712	0.953701	-0.264197	0.914700	-0.026115	0.403288
10766		0.370165	-0.295267	-0.880792	0.138249	0.955094	-0.262074	0.918621	-0.024758	0.394363
10767		0.357217	-0.287289	-0.888741	0.128764	0.957583	-0.257787	0.925103	-0.022352	0.379058
10768		0.339406	-0.276968	-0.898939	0.113922	0.960737	-0.252995	0.933716	-0.016540	0.357633
10769		0.315892	-0.264963	-0.911047	0.088657	0.964257	-0.249697	0.944644	-0.001893	0.328091
10770		0.286830	-0.251398	-0.924406	0.051243	0.967597	-0.247244	0.956610	0.023548	0.290419
10771		0.256210	-0.236663	-0.937202	0.002657	0.969733	-0.244152	0.966617	0.060064	0.249084
10772		0.229359	-0.221703	-0.947756	-0.047581	0.969996	-0.238420	0.972178	0.099779	0.211928
10773		0.206655	-0.206448	-0.956385	-0.094129	0.968756	-0.229457	0.973875	0.137442	0.180766
10774		0.186379	-0.190454	-0.963841	-0.132961	0.967116	-0.216812	0.973439	0.168563	0.154927
10775		0.167537	-0.173602	-0.970461	-0.160967	0.966347	-0.200655	0.972636	0.189829	0.133955
10776		0.150023	-0.156661	-0.976192	-0.180776	0.966375	-0.182867	0.972015	0.203906	0.116658
10777		0.131221	-0.140212	-0.981388	-0.196793	0.966562	-0.164407	0.971624	0.214704	0.099240
10778		0.107037	-0.125338	-0.986323	-0.211283	0.966498	-0.145747	0.971547	0.223993	0.076969
10779		0.080735	-0.111402	-0.990490	-0.221409	0.966903	-0.126796	0.971833	0.229541	0.053397
10780		0.058408	-0.098088	-0.993462	-0.222300	0.968896	-0.108732	0.973227	0.227198	0.034786
10781		0.040873	-0.085849	-0.995469	-0.208411	0.973655	-0.092525	0.977187	0.211249	0.021905
10782		0.025023	-0.075867	-0.996804	-0.187364	0.979091	-0.079222	0.981972	0.188747	0.010285
10783		0.013787	-0.067155	-0.997647	-0.156711	0.985267	-0.068488	0.987548	0.157286	0.003060
10784		0.004559	-0.059826	-0.998198	-0.121238	0.990812	-0.059937	0.992613	0.121292	-0.002736
10785		-0.007761	-0.054949	-0.998459	-0.101563	0.993369	-0.053880	0.994799	0.100988	-0.013290
10786		-0.023983	-0.052959	-0.998309	-0.102148	0.993499	-0.050249	0.994480	0.100770	-0.029236
10787		-0.041721	-0.054866	-0.997622	-0.111544	0.992505	-0.049920	0.992883	0.109196	-0.047528
10788		-0.056286	-0.058529	-0.996698	-0.122518	0.991140	-0.051284	0.990869	0.119227	-0.062958
10789		-0.071595	-0.061511	-0.995535	-0.121235	0.991233	-0.052527	0.990038	0.116933	-0.078424
10790		-0.088384	-0.064715	-0.993982	-0.112963	0.992101	-0.054548	0.989660	0.107462	-0.094997
10791		-0.096812	-0.072083	-0.992689	-0.083256	0.994465	-0.064092	0.991814	0.076442	-0.102277
10792		-0.099520	-0.081808	-0.991667	-0.066691	0.994922	-0.075384	0.992798	0.058633	-0.104471
10793		-0.106548	-0.088142	-0.990393	-0.085526	0.993184	-0.079190	0.990622	0.076267	-0.113360
10794		-0.106315	-0.091415	-0.990121	-0.085085	0.992949	-0.082540	0.990685	0.075469	-0.113344
10795		-0.093694	-0.093712	-0.991181	-0.045908	0.994908	-0.089724	0.994542	0.037096	-0.097519
10796		-0.094007	-0.095406	-0.990990	-0.036416	0.995061	-0.092343	0.994905	0.027407	-0.097017
10797		-0.103732	-0.096151	-0.989947	-0.035440	0.995041	-0.092932	0.993974	0.025444	-0.106625
10798		-0.112893	-0.096651	-0.988895	-0.043654	0.994779	-0.092242	0.992648	0.032756	-0.116523
10799		-0.119588	-0.097733	-0.988001	-0.074841	0.993199	-0.089188	0.989999	0.063277	-0.126089
10800		-0.129086	-0.101804	-0.986394	-0.118155	0.989209	-0.086632	0.984569	0.105364	-0.139721
10801		-0.152253	-0.113424	-0.981812	-0.136011	0.986346	-0.092856	0.978938	0.119399	-0.165601
10802		-0.146787	-0.123424	-0.981438	-0.124919	0.986554	-0.105384	0.981249	0.107131	-0.160231
10803		-0.134196	-0.131774	-0.982154	-0.105530	0.987383	-0.118056	0.985320	0.087804	-0.146409
10804		-0.122248	-0.137726	-0.982897	-0.072088	0.988942	-0.129607	0.989878	0.055010	-0.130825
10805		-0.108188	-0.139241	-0.984331	-0.044471	0.989829	-0.135131	0.993135	0.029155	-0.113280
10806		-0.099884	-0.135778	-0.985691	-0.028972	0.990622	-0.133522	0.994577	0.015221	-0.102881
10807		-0.096658	-0.126913	-0.987193	-0.025624	0.991826	-0.124999	0.994988	0.013214	-0.099120
10808		-0.095033	-0.113954	-0.988930	-0.035951	0.993171	-0.110987	0.994825	0.025006	-0.098481
10809		-0.096429	-0.099428	-0.990361	-0.057020	0.993916	-0.094233	0.993705	0.047384	-0.101511
10810		-0.104611	-0.083968	-0.990962	-0.087546	0.993339	-0.074928	0.990652	0.078916	-0.111265
10811		-0.116682	-0.065985	-0.990975	-0.121701	0.991221	-0.051672	0.985685	0.114574	-0.123688
10812		-0.124583	-0.045406	-0.991170	-0.144475	0.989136	-0.027153	0.981634	0.139816	-0.129789
10813		-0.123134	-0.022348	-0.992138	-0.144188	0.989541	-0.004394	0.981859	0.142514	-0.125068
10814		-0.115590	0.000246	-0.993297	-0.133450	0.990930	0.015775	0.984292	0.134379	-0.114509
10815		-0.108735	0.021583	-0.993836	-0.120520	0.992103	0.034731	0.986738	0.123553	-0.105275
10816		-0.103390	0.042153	-0.993747	-0.107710	0.992752	0.053317	0.988792	0.112549	-0.098101
10817		-0.099735	0.061774	-0.993095	-0.100144	0.992380	0.071787	0.989962	0.106612	-0.092789
10818		-0.096361	0.079243	-0.992187	-0.099788	0.991034	0.088843	0.990332	0.107569	-0.087590
10819		-0.093184	0.093927	-0.991209	-0.104496	0.989120	0.103553	0.990150	0.113226	-0.082355
10820		-0.091359	0.105610	-0.990202	-0.113380	0.986791	0.115707	0.989342	0.122840	-0.078178
10821		-0.089900	0.114833	-0.989309	-0.127845	0.983782	0.125809	0.987711	0.137788	-0.073761
10822		-0.087921	0.122014	-0.988627	-0.149285	0.979648	0.134182	0.984878	0.159384	-0.067916
10823		-0.085119	0.127289	-0.988207	-0.177199	0.974061	0.140730	0.980487	0.187088	-0.060356
10824		-0.081475	0.129935	-0.988169	-0.208462	0.967315	0.144381	0.974631	0.217759	-0.051726
10825		-0.077784	0.129477	-0.988527	-0.240143	0.959904	0.144624	0.967616	0.248638	-0.043572
10826		-0.075510	0.125371	-0.989232	-0.270746	0.952217	0.141346	0.959685	0.278504	-0.037959
10827		-0.073548	0.117310	-0.990368	-0.298125	0.945063	0.134083	0.951689	0.305115	-0.034535
10828		-0.070713	0.106128	-0.991835	-0.320222	0.939280	0.123335	0.944700	0.326329	-0.032435
10829		-0.066522	0.093015	-0.993440	-0.334158	0.936074	0.110020	0.940167	0.339284	-0.031188
10830		-0.059953	0.078962	-0.995073	-0.338481	0.936197	0.094683	0.939061	0.342490	-0.029401
10831		-0.049397	0.064875	-0.996670	-0.334011	0.939361	0.077699	0.941274	0.336736	-0.024733
10832		-0.035806	0.051168	-0.998048	-0.321708	0.944937	0.059987	0.946162	0.323227	-0.017373
10833		-0.021508	0.038490	-0.999027	-0.302882	0.952049	0.043201	0.952785	0.303516	-0.008819
10834		-0.009519	0.026758	-0.999597	-0.280731	0.959368	0.028354	0.959739	0.280888	-0.001620
10835		-0.002509	0.016781	-0.999856	-0.263919	0.964398	0.016848	0.964541	0.263924	0.002009
10836		0.001419	0.010087	-0.999948	-0.253441	0.967305	0.009398	0.967350	0.253414	0.003929
10837		0.004229	0.005122	-0.999978	-0.240525	0.970635	0.003954	0.970634	0.240503	0.005337
10838		0.002720	0.000464	-0.999996	-0.224976	0.974364	-0.000159	0.974361	0.224975	0.002755
10839		-0.005689	-0.003819	-0.999977	-0.215005	0.976610	-0.002507	0.976596	0.214985	-0.006377
10840		-0.022126	-0.008548	-0.999719	-0.214892	0.976631	-0.003595	0.976387	0.214752	-0.023446
10841		-0.063916	-0.012412	-0.997878	-0.217674	0.976020	0.001802	0.973927	0.217327	-0.065085
10842		-0.107162	-0.015829	-0.994116	-0.227128	0.973824	0.008978	0.967951	0.226753	-0.107952
10843		-0.082270	-0.011891	-0.996539	-0.248434	0.968607	0.008952	0.965149	0.248311	-0.082641
10844		-0.032747	-0.004798	-0.999452	-0.263714	0.964593	0.004010	0.964045	0.263701	-0.032853
10845		-0.028144	-0.010421	-0.999550	-0.259986	0.965608	-0.002747	0.965202	0.259792	-0.029885
10846		-0.031480	-0.018183	-0.999339	-0.251005	0.967937	-0.009705	0.967474	0.250533	-0.035035
10847		-0.025296	-0.022260	-0.999432	-0.250618	0.967966	-0.015216	0.967755	0.250091	-0.030064
10848		-0.020465	-0.025218	-0.999472	-0.252362	0.967442	-0.019242	0.967416	0.251835	-0.026163
10849		-0.019271	-0.027074	-0.999448	-0.250293	0.967934	-0.021394	0.967978	0.249743	-0.025429
10851		-0.018552	-0.025326	-0.999507	-0.245410	0.969213	-0.020003	0.969242	0.244918	-0.024196
10852		-0.019004	-0.022896	-0.999557	-0.247301	0.968781	-0.017489	0.968752	0.246859	-0.024073
10853		-0.019062	-0.020570	-0.999607	-0.250696	0.967948	-0.015138	0.967878	0.250309	-0.023608
10854		-0.019318	-0.018670	-0.999639	-0.254104	0.967087	-0.013152	0.966984	0.253758	-0.023426
10855		-0.019795	-0.017381	-0.999653	-0.257958	0.966085	-0.011689	0.965953	0.257637	-0.023607
10856		-0.019843	-0.016263	-0.999671	-0.261668	0.965101	-0.010507	0.964954	0.261373	-0.023406
10857		-0.019744	-0.015136	-0.999690	-0.264517	0.964335	-0.009376	0.964179	0.264250	-0.023044
10858		-0.019743	-0.013755	-0.999710	-0.267296	0.963581	-0.007979	0.963412	0.267061	-0.022701
10859		-0.020304	-0.012079	-0.999721	-0.272431	0.962156	-0.006092	0.961961	0.272231	-0.022827
10860		-0.021843	-0.010087	-0.999711	-0.281100	0.959672	-0.003541	0.959430	0.280941	-0.023798
10861		-0.024058	-0.007951	-0.999679	-0.292423	0.956289	-0.000568	0.955986	0.292316	-0.025331
10862		-0.025956	-0.005676	-0.999647	-0.304036	0.952657	0.002485	0.952307	0.303993	-0.026453
10863		-0.027103	-0.003714	-0.999626	-0.314435	0.949266	0.004998	0.948892	0.314453	-0.026896
10864		-0.028086	-0.002361	-0.999603	-0.322935	0.946397	0.006838	0.946004	0.322998	-0.027343
10865		-0.029442	-0.002029	-0.999564	-0.329888	0.943988	0.007801	0.943561	0.329974	-0.028462
10866		-0.031362	-0.002620	-0.999505	-0.334776	0.942263	0.008034	0.941776	0.334862	-0.030429
10867		-0.034096	-0.004114	-0.999410	-0.337203	0.941401	0.007629	0.940814	0.337264	-0.033486
10868		-0.037867	-0.005911	-0.999265	-0.337894	0.941156	0.007238	0.940422	0.337920	-0.037636
10869		-0.042528	-0.007566	-0.999067	-0.338173	0.941056	0.007269	0.940123	0.338166	-0.042580
10870		-0.048065	-0.008782	-0.998806	-0.338490	0.940936	0.008016	0.939742	0.338471	-0.048198
10871		-0.053931	-0.009360	-0.998501	-0.338297	0.940992	0.009451	0.939493	0.338300	-0.053915
10872		-0.059273	-0.009105	-0.998200	-0.337727	0.941174	0.011469	0.939376	0.337799	-0.058861
10873		-0.063860	-0.008491	-0.997923	-0.336936	0.941430	0.013551	0.939360	0.337101	-0.062980
10874		-0.068456	-0.007977	-0.997622	-0.335794	0.941808	0.015511	0.939445	0.336057	-0.067151
10875		-0.072923	-0.007598	-0.997309	-0.334097	0.942381	0.017249	0.939713	0.334456	-0.071259
10876		-0.077001	-0.006864	-0.997007	-0.331653	0.943208	0.019121	0.940254	0.332132	-0.074904
10877		-0.081299	-0.005725	-0.996673	-0.329060	0.944066	0.021419	0.940803	0.329707	-0.078635
10878		-0.086088	-0.003995	-0.996280	-0.327188	0.944642	0.024484	0.941030	0.328079	-0.082629
10879		-0.092016	-0.002048	-0.995755	-0.327061	0.944580	0.028281	0.940513	0.328275	-0.087586
10880		-0.099110	0.000163	-0.995076	-0.327990	0.944111	0.032823	0.939468	0.329628	-0.093517
10881		-0.106680	0.002483	-0.994290	-0.329352	0.943454	0.037693	0.938161	0.331493	-0.099830
10882		-0.114943	0.005233	-0.993358	-0.330875	0.942683	0.043252	0.936648	0.333649	-0.106623
10883		-0.123526	0.008616	-0.992304	-0.333626	0.941394	0.049705	0.934578	0.337198	-0.113412
10884		-0.132019	0.012485	-0.991169	-0.338476	0.939252	0.056915	0.931668	0.343000	-0.119773
10885		-0.140158	0.015516	-0.990008	-0.344217	0.936746	0.063413	0.928370	0.349666	-0.125952
10886		-0.147988	0.017206	-0.988840	-0.351473	0.933663	0.068846	0.924428	0.357739	-0.132123
10887		-0.154816	0.018766	-0.987765	-0.360699	0.929727	0.074197	0.919744	0.367772	-0.137167
10888		-0.161168	0.021767	-0.986687	-0.367506	0.926533	0.080469	0.915950	0.375582	-0.141328
10889		-0.167680	0.026515	-0.985485	-0.366887	0.926156	0.087345	0.915029	0.376207	-0.145570
10890		-0.173355	0.033661	-0.984284	-0.358360	0.928750	0.094877	0.917348	0.369175	-0.148940
10891		-0.177315	0.042844	-0.983221	-0.346334	0.932430	0.103089	0.921201	0.358803	-0.150496
10892		-0.179075	0.053129	-0.982400	-0.336824	0.934888	0.111957	0.924382	0.350945	-0.149520
10893		-0.179939	0.062684	-0.981678	-0.331046	0.935897	0.120441	0.926299	0.346652	-0.147653
10894		-0.181534	0.070773	-0.980835	-0.326554	0.936470	0.128011	0.927582	0.343534	-0.146890
10895		-0.183436	0.077760	-0.979951	-0.322064	0.937094	0.134646	0.928777	0.340306	-0.146853
10896		-0.185419	0.083821	-0.979078	-0.316502	0.938165	0.140258	0.930294	0.335887	-0.147424
10897		-0.188203	0.088432	-0.978141	-0.310870	0.939367	0.144741	0.931633	0.331316	-0.149301
10898		-0.191267	0.092148	-0.977203	-0.305780	0.940445	0.148532	0.932693	0.327218	-0.151699
10899		-0.194117	0.095395	-0.976329	-0.301456	0.941301	0.151909	0.933511	0.323808	-0.153965
10900		-0.196871	0.098236	-0.975495	-0.297525	0.942062	0.154915	0.934195	0.320732	-0.156237
10901		-0.199843	0.100701	-0.974639	-0.293745	0.942795	0.157641	0.934760	0.317799	-0.158831
10902		-0.202800	0.103173	-0.973770	-0.290009	0.943493	0.160363	0.935290	0.314924	-0.161419
10903		-0.205148	0.105760	-0.973000	-0.286280	0.944182	0.162987	0.935926	0.311987	-0.163420
10904		-0.206934	0.108476	-0.972323	-0.282829	0.944768	0.165595	0.936582	0.309269	-0.164824
10905		-0.208737	0.111003	-0.971652	-0.280134	0.945119	0.168152	0.936992	0.307292	-0.166185
10906		-0.211001	0.113217	-0.970907	-0.278390	0.945174	0.170718	0.937004	0.306312	-0.167915
10907		-0.213433	0.115106	-0.970153	-0.277822	0.944884	0.173229	0.936622	0.306503	-0.169690
10908		-0.215762	0.116894	-0.969424	-0.278374	0.944244	0.175815	0.935925	0.307797	-0.171191
10909		-0.218156	0.118501	-0.968693	-0.279460	0.943448	0.178349	0.935045	0.309619	-0.172703
10910		-0.220649	0.119956	-0.967949	-0.280513	0.942675	0.180768	0.934145	0.311408	-0.174351
10911		-0.222983	0.121407	-0.967233	-0.281087	0.942063	0.183048	0.933418	0.312693	-0.175938
10912		-0.224972	0.123006	-0.966570	-0.281052	0.941644	0.185249	0.932951	0.313332	-0.177273
10913		-0.226545	0.124791	-0.965973	-0.280696	0.941317	0.187436	0.932677	0.313607	-0.178222
10914		-0.228208	0.126601	-0.965346	-0.279985	0.941093	0.189609	0.932486	0.313553	-0.179319
10915		-0.230224	0.128355	-0.964636	-0.279192	0.940879	0.191827	0.932228	0.313482	-0.180777
10916		-0.232295	0.130148	-0.963899	-0.278680	0.940553	0.194157	0.931867	0.313721	-0.182216
10917		-0.234393	0.132098	-0.963125	-0.278996	0.939908	0.196812	0.931247	0.314839	-0.183453
10918		-0.236679	0.134170	-0.962279	-0.280136	0.938934	0.199816	0.930326	0.316862	-0.184640
10919		-0.239169	0.136183	-0.961380	-0.282157	0.937642	0.203015	0.929078	0.319816	-0.185830
10920		-0.241710	0.138119	-0.960468	-0.285007	0.936054	0.206333	0.927549	0.323613	-0.186889
10921		-0.244181	0.140020	-0.959568	-0.288338	0.934283	0.209704	0.925871	0.327885	-0.187762
10922		-0.246365	0.141900	-0.958733	-0.291971	0.932401	0.213031	0.924152	0.332406	-0.188280
10923		-0.248245	0.143582	-0.957997	-0.295739	0.930506	0.216096	0.922449	0.336962	-0.188531
10924		-0.249643	0.145224	-0.957386	-0.299238	0.928729	0.218905	0.920942	0.341135	-0.188394
10925		-0.250449	0.146656	-0.956957	-0.301753	0.927394	0.221098	0.919902	0.344139	-0.188011
10926		-0.250901	0.147892	-0.956649	-0.303249	0.926507	0.222765	0.919287	0.345994	-0.187613
10927		-0.251184	0.148751	-0.956441	-0.304308	0.925882	0.223916	0.918860	0.347297	-0.187301
10928		-0.251368	0.149367	-0.956297	-0.304932	0.925485	0.224707	0.918603	0.348090	-0.187090
10929		-0.251613	0.149729	-0.956176	-0.304918	0.925384	0.225144	0.918540	0.348204	-0.187183
10930		-0.251860	0.150010	-0.956067	-0.304567	0.925428	0.225436	0.918589	0.347965	-0.187390
10931		-0.252275	0.150283	-0.955914	-0.304268	0.925440	0.225791	0.918574	0.347815	-0.187739
10932		-0.253083	0.150526	-0.955663	-0.304462	0.925237	0.226363	0.918288	0.348251	-0.188332
10934		-0.256003	0.150629	-0.954868	-0.307288	0.923869	0.228123	0.916535	0.351820	-0.190227
10935		-0.257830	0.150596	-0.954382	-0.309549	0.922836	0.229245	0.915261	0.354534	-0.191318
10936		-0.259652	0.150504	-0.953902	-0.312159	0.921671	0.230389	0.913859	0.357590	-0.192332
10937		-0.261337	0.150384	-0.953461	-0.314800	0.920501	0.231470	0.912472	0.360641	-0.193220
10938		-0.262879	0.150186	-0.953068	-0.317365	0.919382	0.232415	0.911139	0.363567	-0.194023
10939		-0.264133	0.150046	-0.952744	-0.319443	0.918461	0.233207	0.910050	0.365944	-0.194664
10940		-0.264826	0.150048	-0.952551	-0.320920	0.917797	0.233794	0.909328	0.367607	-0.194903
10941		-0.264951	0.150388	-0.952462	-0.321650	0.917405	0.234327	0.909034	0.368444	-0.194696
10942		-0.264634	0.150817	-0.952483	-0.321773	0.917281	0.234643	0.909083	0.368578	-0.194215
10943		-0.264153	0.151291	-0.952541	-0.321279	0.917413	0.234806	0.909397	0.368056	-0.193730
10944		-0.263658	0.151654	-0.952620	-0.320137	0.917834	0.234721	0.909943	0.366855	-0.193444
10945		-0.263188	0.151897	-0.952711	-0.318430	0.918506	0.234411	0.910678	0.365066	-0.193372
10946		-0.262634	0.152122	-0.952829	-0.316257	0.919374	0.233952	0.911595	0.362782	-0.193349
10947		-0.261995	0.152320	-0.952973	-0.313543	0.920462	0.233324	0.912715	0.359928	-0.193398
10948		-0.261441	0.152459	-0.953103	-0.310410	0.921710	0.232585	0.913944	0.356660	-0.193648
10949		-0.261253	0.152617	-0.953129	-0.307102	0.922973	0.231966	0.915115	0.353310	-0.194261
10950		-0.261455	0.152777	-0.953048	-0.303997	0.924109	0.231535	0.916093	0.350260	-0.195169
10951		-0.262015	0.153018	-0.952856	-0.301450	0.924969	0.231432	0.916775	0.347877	-0.196228
10952		-0.262799	0.153400	-0.952578	-0.299385	0.925585	0.231648	0.917227	0.346065	-0.197317
10953		-0.263554	0.153968	-0.952278	-0.297628	0.926039	0.232097	0.917582	0.344595	-0.198236
10954		-0.264167	0.154717	-0.951987	-0.296052	0.926391	0.232708	0.917916	0.343311	-0.198918
10955		-0.264573	0.155660	-0.951720	-0.294583	0.926671	0.233455	0.918271	0.342127	-0.199318
10956		-0.264925	0.156694	-0.951452	-0.293112	0.926932	0.234271	0.918640	0.340946	-0.199638
10957		-0.265158	0.157726	-0.951217	-0.291506	0.927251	0.235011	0.919084	0.339601	-0.199890
10958		-0.265173	0.158699	-0.951051	-0.289834	0.927625	0.235602	0.919608	0.338122	-0.199985
10959		-0.264881	0.159637	-0.950975	-0.287953	0.928109	0.236004	0.920283	0.336349	-0.199871
10960		-0.264346	0.160509	-0.950977	-0.285762	0.928738	0.236190	0.921120	0.334189	-0.199641
10961		-0.263694	0.161248	-0.951033	-0.283239	0.929525	0.236135	0.922085	0.331637	-0.199439
10962		-0.263090	0.161823	-0.951103	-0.280621	0.930373	0.235920	0.923058	0.328967	-0.199361
10963		-0.262592	0.162177	-0.951180	-0.278106	0.931221	0.235551	0.923960	0.326382	-0.199428
10964		-0.262285	0.162330	-0.951239	-0.276012	0.931947	0.235142	0.924675	0.324228	-0.199631
10965		-0.262174	0.162276	-0.951279	-0.274427	0.932524	0.234709	0.925178	0.322592	-0.199950
10966		-0.262227	0.162071	-0.951299	-0.273231	0.932987	0.234267	0.925517	0.321355	-0.200371
10967		-0.262221	0.161857	-0.951337	-0.272291	0.933366	0.233852	0.925796	0.320361	-0.200676
10968		-0.262127	0.161688	-0.951392	-0.271494	0.933690	0.233482	0.926056	0.319499	-0.200848
10969		-0.262072	0.161609	-0.951420	-0.270764	0.933966	0.233227	0.926286	0.318733	-0.201009
10970		-0.262236	0.161668	-0.951365	-0.270206	0.934129	0.233219	0.926402	0.318223	-0.201279
10971		-0.262757	0.161814	-0.951197	-0.269789	0.934193	0.233448	0.926376	0.317962	-0.201810
10973		-0.264361	0.162611	-0.950616	-0.269121	0.934090	0.234625	0.926114	0.317856	-0.203175
10974		-0.265019	0.163450	-0.950289	-0.268590	0.934009	0.235555	0.926080	0.317665	-0.203629
10975		-0.265480	0.164411	-0.949995	-0.267670	0.934047	0.236452	0.926215	0.317058	-0.203963
10976		-0.265769	0.165490	-0.949726	-0.266383	0.934193	0.237328	0.926502	0.316065	-0.204196
10977		-0.265956	0.166570	-0.949485	-0.265045	0.934362	0.238158	0.926833	0.314996	-0.204350
10978		-0.266069	0.167578	-0.949276	-0.263839	0.934508	0.238921	0.927144	0.314026	-0.204430
10979		-0.266044	0.168521	-0.949116	-0.262720	0.934651	0.239595	0.927469	0.313094	-0.204384
10980		-0.265922	0.169484	-0.948979	-0.261441	0.934849	0.240221	0.927865	0.311982	-0.204287
10981		-0.265683	0.170300	-0.948900	-0.259991	0.935149	0.240627	0.928341	0.310636	-0.204177
10982		-0.265491	0.171057	-0.948817	-0.258533	0.935460	0.240990	0.928803	0.309281	-0.204132
10983		-0.265338	0.171738	-0.948737	-0.257326	0.935701	0.241346	0.929182	0.308173	-0.204084
10984		-0.265310	0.172329	-0.948638	-0.256449	0.935843	0.241727	0.929432	0.307410	-0.204095
10985		-0.265449	0.172820	-0.948510	-0.255825	0.935912	0.242119	0.929565	0.306923	-0.204225
10986		-0.265590	0.173253	-0.948391	-0.255462	0.935910	0.242513	0.929624	0.306687	-0.204308
10987		-0.265705	0.173646	-0.948287	-0.255261	0.935866	0.242894	0.929647	0.306599	-0.204339
10988		-0.265797	0.173979	-0.948200	-0.255376	0.935734	0.243278	0.929589	0.306810	-0.204285
10989		-0.265830	0.174286	-0.948134	-0.255639	0.935566	0.243650	0.929507	0.307150	-0.204147
10990		-0.265922	0.174564	-0.948057	-0.255902	0.935399	0.244012	0.929408	0.307498	-0.204072
10991		-0.265973	0.174803	-0.947999	-0.256066	0.935279	0.244300	0.929348	0.307728	-0.203998
10992		-0.266027	0.174994	-0.947949	-0.256012	0.935244	0.244494	0.929348	0.307728	-0.204000
10993		-0.266087	0.175160	-0.947901	-0.255845	0.935251	0.244641	0.929377	0.307612	-0.204044
10994		-0.266160	0.175251	-0.947864	-0.255622	0.935295	0.244706	0.929417	0.307425	-0.204140
10995		-0.266147	0.175327	-0.947853	-0.255469	0.935327	0.244743	0.929463	0.307284	-0.204144
10996		-0.266026	0.175264	-0.947899	-0.255304	0.935408	0.244605	0.929543	0.307073	-0.204097
10997		-0.265858	0.175212	-0.947956	-0.255045	0.935521	0.244442	0.929662	0.306758	-0.204029
10998		-0.265657	0.175064	-0.948039	-0.254691	0.935693	0.244153	0.929816	0.306318	-0.203987
10999		-0.265424	0.174928	-0.948130	-0.254245	0.935895	0.243846	0.930005	0.305780	-0.203935
11000		-0.265248	0.174831	-0.948197	-0.253805	0.936079	0.243596	0.930175	0.305271	-0.203920
11001		-0.265202	0.174712	-0.948232	-0.253532	0.936203	0.243404	0.930263	0.304959	-0.203988
11002		-0.265271	0.174648	-0.948224	-0.253499	0.936225	0.243355	0.930253	0.304929	-0.204080
11003		-0.265350	0.174589	-0.948213	-0.253755	0.936149	0.243379	0.930160	0.305194	-0.204105
11004		-0.265506	0.174533	-0.948180	-0.254234	0.935993	0.243480	0.929985	0.305705	-0.204139
11005		-0.265650	0.174492	-0.948147	-0.254946	0.935757	0.243642	0.929749	0.306449	-0.204097
11006		-0.265773	0.174437	-0.948123	-0.255772	0.935488	0.243809	0.929487	0.307301	-0.204012
11007		-0.265845	0.174389	-0.948111	-0.256776	0.935162	0.244006	0.929189	0.308320	-0.203829
11008		-0.265931	0.174314	-0.948101	-0.257839	0.934820	0.244193	0.928870	0.309396	-0.203653
11009		-0.266001	0.174238	-0.948095	-0.258911	0.934476	0.244376	0.928552	0.310477	-0.203460
