// Start Time: Unknown
// Update Rate: 100.0Hz
// Filter Profile: human (46.1)
// Option Flags: AHS Disabled ICC Disabled 
// Firmware Version: 4.0.2
PacketCounter	SampleTimeFine	Mat[1][1]	Mat[2][1]	Mat[3][1]	Mat[1][2]	Mat[2][2]	Mat[3][2]	Mat[1][3]	Mat[2][3]	Mat[3][3]
10104		-0.002830	0.059301	-0.998236	0.076931	0.995295	0.058909	0.997032	-0.076629	-0.007379
10105		-0.002828	0.059361	-0.998233	0.076982	0.995287	0.058967	0.997028	-0.076679	-0.007385
10106		-0.002823	0.059504	-0.998224	0.077381	0.995248	0.059107	0.996998	-0.077077	-0.007414
10107		-0.002769	0.059606	-0.998218	0.077220	0.995254	0.059215	0.997010	-0.076918	-0.007359
10108		-0.002777	0.059722	-0.998211	0.077103	0.995256	0.059331	0.997019	-0.076800	-0.007368
10109		-0.002821	0.059793	-0.998207	0.076931	0.995265	0.059399	0.997032	-0.076626	-0.007408
10110		-0.002930	0.059982	-0.998195	0.077580	0.995205	0.059574	0.996982	-0.077265	-0.007569
10111		-0.003016	0.060088	-0.998189	0.077702	0.995189	0.059673	0.996972	-0.077381	-0.007671
10112		-0.003091	0.060154	-0.998184	0.077789	0.995179	0.059732	0.996965	-0.077463	-0.007755
10113		-0.003153	0.060220	-0.998180	0.078036	0.995156	0.059791	0.996946	-0.077706	-0.007837
10114		-0.003196	0.060367	-0.998171	0.078674	0.995097	0.059929	0.996895	-0.078338	-0.007930
10115		-0.003186	0.060445	-0.998166	0.078875	0.995077	0.060006	0.996879	-0.078539	-0.007938
10116		-0.003141	0.060341	-0.998173	0.077759	0.995170	0.059915	0.996967	-0.077428	-0.007818
10117		-0.003160	0.060455	-0.998166	0.077742	0.995165	0.060027	0.996968	-0.077410	-0.007845
10118		-0.003238	0.060509	-0.998162	0.077356	0.995192	0.060078	0.996998	-0.077019	-0.007903
10119		-0.003318	0.060568	-0.998159	0.077386	0.995186	0.060130	0.996996	-0.077044	-0.007989
10120		-0.003357	0.060531	-0.998161	0.077473	0.995182	0.060090	0.996989	-0.077129	-0.008030
10121		-0.003429	0.060535	-0.998160	0.077591	0.995173	0.060088	0.996979	-0.077242	-0.008110
10122		-0.003478	0.060544	-0.998159	0.077967	0.995143	0.060089	0.996950	-0.077614	-0.008181
10123		-0.003500	0.060535	-0.998160	0.078251	0.995122	0.060076	0.996928	-0.077897	-0.008219
10124		-0.003505	0.060581	-0.998157	0.078475	0.995102	0.060120	0.996910	-0.078119	-0.008242
10125		-0.003491	0.060578	-0.998157	0.078735	0.995081	0.060116	0.996889	-0.078381	-0.008244
10126		-0.003459	0.060522	-0.998161	0.078444	0.995107	0.060065	0.996913	-0.078092	-0.008190
10127		-0.003455	0.060524	-0.998161	0.078491	0.995104	0.060067	0.996909	-0.078139	-0.008188
10128		-0.003465	0.060486	-0.998163	0.078197	0.995129	0.060030	0.996932	-0.077846	-0.008178
10129		-0.003468	0.060536	-0.998160	0.078172	0.995128	0.060081	0.996934	-0.077820	-0.008183
10130		-0.003479	0.060555	-0.998159	0.078163	0.995128	0.060099	0.996935	-0.077810	-0.008195
10131		-0.003455	0.060626	-0.998155	0.078194	0.995121	0.060171	0.996932	-0.077842	-0.008179
10132		-0.003432	0.060712	-0.998149	0.078489	0.995092	0.060256	0.996909	-0.078137	-0.008181
10133		-0.003420	0.060744	-0.998148	0.078653	0.995077	0.060287	0.996896	-0.078301	-0.008181
10134		-0.003362	0.060754	-0.998147	0.078525	0.995087	0.060303	0.996907	-0.078176	-0.008116
10135		-0.003340	0.060758	-0.998147	0.078641	0.995077	0.060308	0.996897	-0.078294	-0.008101
10136		-0.003324	0.060612	-0.998156	0.077992	0.995137	0.060169	0.996948	-0.077649	-0.008035
10137		-0.003348	0.060644	-0.998154	0.078001	0.995134	0.060199	0.996948	-0.077655	-0.008062
10138		-0.003364	0.060636	-0.998154	0.077841	0.995147	0.060191	0.996960	-0.077495	-0.008067
10139		-0.003284	0.060669	-0.998153	0.077883	0.995141	0.060230	0.996957	-0.077541	-0.007993
10140		-0.003279	0.060719	-0.998149	0.078252	0.995110	0.060277	0.996928	-0.077909	-0.008014
10141		-0.003276	0.060767	-0.998147	0.078495	0.995088	0.060323	0.996909	-0.078152	-0.008030
10142		-0.003246	0.060752	-0.998148	0.078303	0.995104	0.060312	0.996924	-0.077962	-0.007987
10143		-0.003237	0.060757	-0.998147	0.078440	0.995093	0.060316	0.996914	-0.078099	-0.007987
10144		-0.003258	0.060787	-0.998145	0.078927	0.995052	0.060341	0.996875	-0.078584	-0.008040
10145		-0.003252	0.060839	-0.998142	0.078773	0.995061	0.060395	0.996887	-0.078431	-0.008028
10146		-0.003212	0.060938	-0.998136	0.078725	0.995059	0.060497	0.996891	-0.078384	-0.007993
10147		-0.003259	0.060965	-0.998135	0.078573	0.995070	0.060521	0.996903	-0.078229	-0.008033
10148		-0.003252	0.060962	-0.998135	0.078324	0.995089	0.060521	0.996923	-0.077981	-0.008011
10149		-0.003274	0.060954	-0.998135	0.078444	0.995080	0.060510	0.996913	-0.078100	-0.008040
10150		-0.003308	0.060860	-0.998141	0.078273	0.995100	0.060415	0.996926	-0.077927	-0.008055
10151		-0.003303	0.060873	-0.998140	0.078449	0.995085	0.060427	0.996913	-0.078103	-0.008063
10152		-0.003283	0.060947	-0.998136	0.079066	0.995032	0.060497	0.996864	-0.078720	-0.008086
10153		-0.003224	0.060928	-0.998137	0.079075	0.995032	0.060483	0.996863	-0.078733	-0.008026
10154		-0.003186	0.060907	-0.998138	0.078591	0.995071	0.060469	0.996902	-0.078252	-0.007957
10155		-0.003182	0.060898	-0.998139	0.078506	0.995079	0.060461	0.996909	-0.078167	-0.007947
10156		-0.003140	0.060883	-0.998140	0.078179	0.995105	0.060452	0.996934	-0.077844	-0.007884
10157		-0.003084	0.060928	-0.998137	0.078013	0.995115	0.060503	0.996948	-0.077681	-0.007822
10158		-0.003044	0.061001	-0.998133	0.078194	0.995096	0.060577	0.996934	-0.077863	-0.007799
10159		-0.003045	0.061017	-0.998132	0.078264	0.995090	0.060592	0.996928	-0.077933	-0.007805
10160		-0.003017	0.061100	-0.998127	0.078595	0.995059	0.060675	0.996902	-0.078264	-0.007805
10161		-0.003009	0.061128	-0.998125	0.078830	0.995038	0.060701	0.996884	-0.078499	-0.007813
10162		-0.003014	0.061199	-0.998121	0.079370	0.994991	0.060768	0.996841	-0.079038	-0.007857
10163		-0.002938	0.061212	-0.998120	0.079532	0.994977	0.060785	0.996828	-0.079204	-0.007792
10164		-0.002902	0.061259	-0.998118	0.079731	0.994958	0.060833	0.996812	-0.079404	-0.007772
10165		-0.002890	0.061268	-0.998117	0.079634	0.994966	0.060844	0.996820	-0.079308	-0.007754
10166		-0.002786	0.061082	-0.998129	0.078747	0.995047	0.060674	0.996891	-0.078430	-0.007582
10167		-0.002708	0.061050	-0.998131	0.078549	0.995064	0.060649	0.996907	-0.078238	-0.007490
10168		-0.002629	0.060943	-0.998138	0.077994	0.995113	0.060553	0.996950	-0.077690	-0.007369
10169		-0.002555	0.060890	-0.998141	0.077916	0.995122	0.060506	0.996957	-0.077616	-0.007287
10170		-0.002536	0.060788	-0.998148	0.077603	0.995153	0.060408	0.996981	-0.077306	-0.007241
10171		-0.002496	0.060783	-0.998148	0.077657	0.995148	0.060407	0.996977	-0.077362	-0.007204
10172		-0.002528	0.060822	-0.998145	0.077921	0.995126	0.060440	0.996956	-0.077624	-0.007255
10173		-0.002519	0.060822	-0.998145	0.077910	0.995127	0.060441	0.996957	-0.077614	-0.007245
10174		-0.002522	0.060778	-0.998148	0.077779	0.995139	0.060399	0.996967	-0.077482	-0.007237
10175		-0.002539	0.060752	-0.998150	0.077565	0.995158	0.060373	0.996984	-0.077268	-0.007239
10176		-0.002546	0.060746	-0.998150	0.077018	0.995200	0.060370	0.997026	-0.076722	-0.007212
10177		-0.002539	0.060787	-0.998148	0.076732	0.995220	0.060414	0.997048	-0.076437	-0.007191
10178		-0.002528	0.060796	-0.998147	0.076152	0.995263	0.060428	0.997093	-0.075858	-0.007145
10179		-0.002581	0.060860	-0.998143	0.075958	0.995275	0.060489	0.997108	-0.075661	-0.007191
10180		-0.002590	0.060787	-0.998147	0.075080	0.995345	0.060422	0.997174	-0.074785	-0.007142
10181		-0.002615	0.060825	-0.998145	0.075071	0.995344	0.060458	0.997175	-0.074773	-0.007169
10182		-0.002657	0.060899	-0.998140	0.075033	0.995342	0.060529	0.997178	-0.074732	-0.007214
10183		-0.002706	0.060993	-0.998135	0.075174	0.995326	0.060618	0.997167	-0.074870	-0.007279
10184		-0.002761	0.061080	-0.998129	0.075130	0.995325	0.060701	0.997170	-0.074822	-0.007337
10185		-0.002732	0.061245	-0.998119	0.075100	0.995317	0.060867	0.997172	-0.074793	-0.007319
10186		-0.002663	0.061282	-0.998117	0.074274	0.995376	0.060916	0.997234	-0.073972	-0.007203
10187		-0.002577	0.061538	-0.998101	0.074101	0.995372	0.061178	0.997247	-0.073803	-0.007125
10188		-0.002574	0.061675	-0.998093	0.073743	0.995390	0.061318	0.997274	-0.073444	-0.007110
10189		-0.002600	0.061939	-0.998077	0.073631	0.995383	0.061580	0.997282	-0.073329	-0.007149
10190		-0.002619	0.062245	-0.998057	0.073587	0.995367	0.061884	0.997285	-0.073282	-0.007188
10191		-0.002656	0.062530	-0.998040	0.073540	0.995353	0.062166	0.997289	-0.073230	-0.007242
10192		-0.002732	0.062798	-0.998023	0.073550	0.995336	0.062427	0.997288	-0.073234	-0.007338
10193		-0.002783	0.063033	-0.998008	0.073723	0.995309	0.062657	0.997275	-0.073402	-0.007417
10194		-0.002819	0.063130	-0.998001	0.073224	0.995339	0.062755	0.997312	-0.072900	-0.007428
10195		-0.002914	0.063346	-0.997987	0.073417	0.995312	0.062962	0.997297	-0.073086	-0.007551
10196		-0.003007	0.063534	-0.997975	0.073573	0.995289	0.063141	0.997285	-0.073234	-0.007667
10197		-0.003154	0.063775	-0.997959	0.073568	0.995275	0.063371	0.997285	-0.073218	-0.007830
10198		-0.003411	0.064046	-0.997941	0.073712	0.995248	0.063621	0.997274	-0.073344	-0.008116
10199		-0.003720	0.064369	-0.997919	0.073534	0.995242	0.063922	0.997286	-0.073143	-0.008436
10200		-0.004105	0.064835	-0.997888	0.073878	0.995189	0.064355	0.997259	-0.073458	-0.008876
10201		-0.004521	0.065410	-0.997848	0.073649	0.995170	0.064901	0.997274	-0.073197	-0.009317
10202		-0.004988	0.066136	-0.997798	0.072932	0.995177	0.065597	0.997324	-0.072444	-0.009787
10203		-0.005572	0.067267	-0.997719	0.072426	0.995142	0.066688	0.997358	-0.071890	-0.010417
10204		-0.006384	0.068924	-0.997602	0.072363	0.995038	0.068283	0.997358	-0.071753	-0.011340
10205		-0.007477	0.070922	-0.997454	0.072144	0.994921	0.070201	0.997366	-0.071435	-0.012555
10206		-0.008944	0.073483	-0.997256	0.072609	0.994711	0.072644	0.997320	-0.071760	-0.014232
10207		-0.010520	0.076516	-0.997013	0.073368	0.994440	0.075545	0.997249	-0.072354	-0.016075
10208		-0.012328	0.080208	-0.996702	0.074146	0.994107	0.079082	0.997171	-0.072927	-0.018202
10209		-0.013947	0.084663	-0.996312	0.075678	0.993640	0.083377	0.997035	-0.074236	-0.020265
10210		-0.015557	0.090119	-0.995809	0.077253	0.993061	0.088664	0.996890	-0.075550	-0.022411
10211		-0.017338	0.096480	-0.995184	0.079410	0.992322	0.094819	0.996691	-0.077383	-0.024866
10212		-0.019090	0.103581	-0.994438	0.080836	0.991523	0.101725	0.996545	-0.078444	-0.027302
10213		-0.020765	0.111076	-0.993595	0.082108	0.990642	0.109030	0.996407	-0.079318	-0.029691
10214		-0.022570	0.118930	-0.992646	0.084407	0.989581	0.116644	0.996176	-0.081153	-0.032374
10215		-0.024538	0.126460	-0.991668	0.085470	0.988600	0.123954	0.996039	-0.081717	-0.035067
10216		-0.026659	0.133813	-0.990648	0.087126	0.987540	0.131049	0.995841	-0.082817	-0.037985
10217		-0.028665	0.140787	-0.989625	0.088480	0.986503	0.137780	0.995665	-0.083613	-0.040735
10218		-0.030093	0.147213	-0.988647	0.089626	0.985508	0.144018	0.995521	-0.084275	-0.042851
10219		-0.030371	0.152408	-0.987851	0.089174	0.984779	0.149192	0.995553	-0.083560	-0.043499
10220		-0.029915	0.157057	-0.987136	0.090510	0.983947	0.153806	0.995446	-0.084744	-0.043650
10221		-0.029638	0.160741	-0.986552	0.092634	0.983179	0.157408	0.995259	-0.086723	-0.044030
10222		-0.029928	0.163761	-0.986046	0.099385	0.982087	0.160087	0.994599	-0.093207	-0.045668
10223		-0.031553	0.165830	-0.985649	0.105644	0.981170	0.161695	0.993903	-0.099026	-0.048478
10224		-0.033123	0.167462	-0.985322	0.111758	0.980301	0.162851	0.993183	-0.104724	-0.051186
10225		-0.034999	0.168492	-0.985081	0.112756	0.980057	0.163626	0.993006	-0.105347	-0.053299
10226		-0.037187	0.170071	-0.984730	0.115140	0.979578	0.164833	0.992653	-0.107252	-0.056010
10227		-0.040578	0.171670	-0.984318	0.115076	0.979377	0.166064	0.992527	-0.106533	-0.059497
10228		-0.044437	0.174371	-0.983677	0.118065	0.978666	0.168150	0.992011	-0.108665	-0.064076
10229		-0.048573	0.177655	-0.982893	0.121977	0.977744	0.170697	0.991344	-0.111599	-0.069162
10230		-0.052983	0.182461	-0.981784	0.132222	0.975791	0.174212	0.989803	-0.120583	-0.075825
10231		-0.057304	0.187913	-0.980513	0.141456	0.973746	0.178349	0.988285	-0.128480	-0.082381
10232		-0.061424	0.194307	-0.979016	0.152415	0.971190	0.183192	0.986406	-0.137965	-0.089270
10233		-0.065785	0.199710	-0.977644	0.157102	0.969620	0.187500	0.985389	-0.141256	-0.095161
10234		-0.070362	0.204848	-0.976261	0.162828	0.967919	0.191362	0.984142	-0.145498	-0.101460
10235		-0.075699	0.207669	-0.975266	0.164378	0.967290	0.193212	0.983489	-0.145686	-0.107359
10236		-0.080648	0.208778	-0.974632	0.169845	0.966395	0.192959	0.982165	-0.149975	-0.113398
10237		-0.084426	0.206977	-0.974696	0.171422	0.966621	0.190414	0.981574	-0.151008	-0.117088
10238		-0.086550	0.203627	-0.975216	0.175004	0.966775	0.186333	0.980756	-0.154539	-0.119310
10239		-0.087992	0.198011	-0.976242	0.176425	0.967648	0.180366	0.980373	-0.156362	-0.120080
10240		-0.088444	0.191217	-0.977555	0.181294	0.968099	0.172965	0.979444	-0.161927	-0.120289
10241		-0.089097	0.182702	-0.979123	0.183724	0.969179	0.164128	0.978932	-0.165265	-0.119918
10242		-0.089222	0.173494	-0.980785	0.186646	0.970180	0.154639	0.978367	-0.169263	-0.118943
10243		-0.089438	0.163517	-0.982478	0.183369	0.972273	0.145126	0.978967	-0.167176	-0.116942
10244		-0.089350	0.154436	-0.983954	0.177873	0.974498	0.136800	0.979989	-0.162796	-0.114542
10245		-0.088787	0.146270	-0.985252	0.167528	0.977260	0.129986	0.981861	-0.153516	-0.111272
10246		-0.087503	0.139430	-0.986358	0.153630	0.980199	0.124930	0.984246	-0.140603	-0.107191
10247		-0.086782	0.133745	-0.987209	0.139314	0.982839	0.120906	0.986438	-0.127040	-0.103925
10248		-0.086475	0.129616	-0.987786	0.124029	0.985187	0.118417	0.988503	-0.112274	-0.101271
10249		-0.087492	0.127702	-0.987946	0.107882	0.987131	0.118043	0.990306	-0.096254	-0.100143
10250		-0.088862	0.128561	-0.987712	0.096319	0.988097	0.119946	0.991376	-0.084477	-0.100187
10251		-0.088555	0.133307	-0.987111	0.089941	0.988026	0.125362	0.992002	-0.077680	-0.099484
10252		-0.089058	0.141890	-0.985868	0.090130	0.986888	0.133895	0.991940	-0.076932	-0.100679
10253		-0.090074	0.154748	-0.983839	0.096593	0.984555	0.146017	0.991240	-0.081880	-0.103630
10254		-0.093431	0.172020	-0.980653	0.104485	0.981216	0.162164	0.990128	-0.087313	-0.109649
10255		-0.100999	0.194271	-0.975735	0.111980	0.976737	0.182879	0.988564	-0.090792	-0.120404
10256		-0.110110	0.221907	-0.968831	0.112832	0.971247	0.209637	0.987494	-0.086232	-0.131982
10257		-0.118170	0.254426	-0.959846	0.102197	0.964601	0.243104	0.987720	-0.069366	-0.139988
10258		-0.126794	0.291136	-0.948242	0.085667	0.955600	0.281940	0.988223	-0.045485	-0.146105
10259		-0.134550	0.329850	-0.934396	0.072626	0.943717	0.322683	0.988242	-0.024444	-0.150933
10260		-0.138594	0.367448	-0.919660	0.061564	0.930022	0.362311	0.988434	-0.006404	-0.151517
10261		-0.141576	0.402844	-0.904253	0.051941	0.915218	0.399596	0.988564	0.009605	-0.150497
10262		-0.145843	0.434608	-0.888733	0.043990	0.900298	0.433045	0.988329	0.024061	-0.150420
10263		-0.150239	0.462635	-0.873726	0.037343	0.885782	0.462597	0.987944	0.036872	-0.150355
10264		-0.154430	0.486755	-0.859780	0.029972	0.872127	0.488361	0.987549	0.049648	-0.149271
10265		-0.156196	0.506985	-0.847684	0.024641	0.859951	0.509782	0.987419	0.058738	-0.146813
10266		-0.155681	0.522761	-0.838143	0.024079	0.850245	0.525837	0.987514	0.061682	-0.144955
10267		-0.152501	0.533216	-0.832120	0.030100	0.844084	0.535366	0.987845	0.056597	-0.144773
10268		-0.147107	0.537592	-0.830274	0.042602	0.842071	0.537682	0.988203	0.043726	-0.146777
10269		-0.141301	0.536242	-0.832153	0.058339	0.843636	0.533736	0.988246	0.026870	-0.150490
10270		-0.136704	0.529653	-0.837126	0.072295	0.848140	0.524816	0.987970	0.011225	-0.154235
10271		-0.134712	0.518448	-0.844431	0.084509	0.855106	0.511520	0.987275	-0.002454	-0.159006
10272		-0.136098	0.503754	-0.853059	0.093622	0.863757	0.495135	0.986262	-0.012478	-0.164718
10273		-0.138280	0.486561	-0.862634	0.100225	0.873405	0.476570	0.985309	-0.020557	-0.169540
10274		-0.140713	0.467838	-0.872541	0.103340	0.883436	0.457014	0.984642	-0.025861	-0.172657
10275		-0.142430	0.448358	-0.882433	0.103072	0.893394	0.437291	0.984424	-0.028671	-0.173459
10276		-0.142670	0.429072	-0.891932	0.099586	0.902800	0.418371	0.984748	-0.029135	-0.171532
10277		-0.142152	0.410160	-0.900867	0.094643	0.911572	0.400099	0.985310	-0.028386	-0.168400
10278		-0.141480	0.392474	-0.908816	0.088128	0.919399	0.383325	0.986011	-0.025859	-0.164665
10279		-0.139041	0.377021	-0.915709	0.081293	0.925915	0.368880	0.986944	-0.023152	-0.159389
10280		-0.135787	0.365768	-0.920747	0.079547	0.930379	0.357863	0.987539	-0.024650	-0.155429
10281		-0.132160	0.358896	-0.923974	0.079527	0.932985	0.351021	0.988033	-0.027089	-0.151845
10282		-0.130614	0.354898	-0.925736	0.081715	0.934412	0.346694	0.988060	-0.030363	-0.151048
10283		-0.130133	0.352354	-0.926775	0.091210	0.935014	0.342679	0.987292	-0.039937	-0.153814
10284		-0.122049	0.349522	-0.928945	0.114117	0.934676	0.336686	0.985942	-0.064916	-0.153963
10285		-0.114786	0.345434	-0.931397	0.148102	0.933066	0.327801	0.982288	-0.100315	-0.158262
10286		-0.126775	0.348637	-0.928644	0.166254	0.930423	0.326608	0.977900	-0.112985	-0.175917
10287		-0.137523	0.350075	-0.926572	0.169445	0.929985	0.326216	0.975897	-0.112141	-0.187213
10288		-0.140488	0.348931	-0.926558	0.165072	0.930996	0.325573	0.976225	-0.107209	-0.188392
10289		-0.149416	0.347740	-0.925609	0.217512	0.924746	0.312304	0.964553	-0.154668	-0.213810
10290		-0.148249	0.347920	-0.925729	0.222104	0.923873	0.311654	0.963687	-0.159406	-0.214238
10291		-0.145578	0.349636	-0.925506	0.218314	0.923765	0.314638	0.964959	-0.156247	-0.210811
10292		-0.143597	0.349960	-0.925693	0.222495	0.922857	0.314373	0.964301	-0.160819	-0.210383
10293		-0.143894	0.351463	-0.925077	0.219976	0.922778	0.316373	0.964834	-0.157971	-0.210096
10294		-0.146123	0.352113	-0.924480	0.218735	0.922881	0.316931	0.964781	-0.155905	-0.211874
10295		-0.149093	0.350951	-0.924448	0.215950	0.923887	0.315910	0.964954	-0.152534	-0.213533
10296		-0.150542	0.347461	-0.925531	0.208399	0.926317	0.313859	0.966389	-0.145631	-0.211860
10297		-0.150480	0.341787	-0.927651	0.205749	0.928617	0.308767	0.966966	-0.144400	-0.210061
10298		-0.150489	0.335456	-0.929958	0.204610	0.930872	0.302675	0.967206	-0.144729	-0.208723
10299		-0.148944	0.327788	-0.932936	0.209404	0.932518	0.294210	0.966419	-0.151539	-0.207533
10300		-0.147689	0.318766	-0.936257	0.215164	0.934320	0.284166	0.965346	-0.159480	-0.206576
10301		-0.146576	0.308319	-0.939923	0.221947	0.936210	0.272490	0.963979	-0.168673	-0.205656
10302		-0.145421	0.296990	-0.943742	0.229497	0.937991	0.259817	0.962384	-0.178803	-0.204562
10303		-0.143414	0.285557	-0.947570	0.233615	0.940178	0.247971	0.961695	-0.185804	-0.201545
10304		-0.141860	0.275067	-0.950902	0.236189	0.942277	0.237336	0.961296	-0.190924	-0.198639
10305		-0.140177	0.265637	-0.953828	0.232969	0.945142	0.228980	0.962328	-0.190114	-0.194373
10306		-0.138829	0.257593	-0.956228	0.223558	0.948806	0.223136	0.964753	-0.182795	-0.189309
10307		-0.139154	0.251509	-0.957799	0.209513	0.952792	0.219755	0.967853	-0.170092	-0.185279
10308		-0.141459	0.248566	-0.958230	0.190341	0.956732	0.220078	0.971473	-0.151258	-0.182650
10309		-0.143731	0.250116	-0.957488	0.168319	0.959615	0.225405	0.975197	-0.128765	-0.180026
10310		-0.147317	0.255391	-0.955549	0.152903	0.960356	0.233102	0.977199	-0.111766	-0.180527
10311		-0.153172	0.264781	-0.952066	0.148869	0.958622	0.242654	0.976922	-0.104565	-0.186252
10312		-0.156347	0.280059	-0.947166	0.139342	0.955622	0.259559	0.977824	-0.091398	-0.188432
10313		-0.162880	0.302868	-0.939011	0.141908	0.949016	0.281480	0.976387	-0.087406	-0.197555
10314		-0.170222	0.332244	-0.927706	0.136214	0.940341	0.311776	0.975946	-0.073296	-0.205323
10315		-0.177014	0.367242	-0.913126	0.132757	0.928207	0.347572	0.975214	-0.059699	-0.213060
10316		-0.187605	0.406772	-0.894059	0.126349	0.912652	0.388719	0.974084	-0.040038	-0.222613
10317		-0.199713	0.447523	-0.871687	0.116909	0.894137	0.432263	0.972855	-0.015580	-0.230890
10318		-0.210071	0.487367	-0.847552	0.102129	0.873092	0.476740	0.972337	0.013589	-0.233186
10319		-0.218295	0.524260	-0.823103	0.090211	0.850674	0.517896	0.971704	0.038801	-0.232992
10320		-0.224063	0.557663	-0.799255	0.079202	0.827813	0.555385	0.971351	0.061138	-0.229650
10321		-0.226481	0.588545	-0.776094	0.073536	0.804856	0.588897	0.971236	0.076303	-0.225564
10322		-0.225529	0.616700	-0.754200	0.073129	0.782677	0.618118	0.971488	0.084250	-0.221615
10323		-0.220997	0.641778	-0.734358	0.077611	0.762160	0.642719	0.972182	0.085045	-0.218244
10324		-0.214736	0.662136	-0.717958	0.086933	0.745147	0.661210	0.972796	0.079571	-0.217571
10325		-0.208764	0.676003	-0.706709	0.100303	0.733621	0.672116	0.972809	0.069429	-0.220959
10326		-0.203087	0.683717	-0.700918	0.116132	0.727602	0.676098	0.972249	0.055907	-0.227168
10327		-0.197256	0.686583	-0.699782	0.133566	0.725972	0.674629	0.971211	0.039607	-0.234906
10328		-0.188504	0.684510	-0.704210	0.151332	0.728747	0.667852	0.970343	0.019324	-0.240960
10329		-0.180116	0.679915	-0.710826	0.164536	0.733288	0.659709	0.969787	0.001868	-0.243947
10330		-0.175135	0.674932	-0.716795	0.175910	0.737783	0.651715	0.968702	-0.011953	-0.247939
10331		-0.169677	0.669025	-0.723613	0.181488	0.742914	0.644314	0.968644	-0.022002	-0.247476
10332		-0.165074	0.660688	-0.732286	0.183174	0.750091	0.635461	0.969122	-0.029238	-0.244841
10333		-0.162323	0.650925	-0.741584	0.179911	0.758478	0.626373	0.970197	-0.031744	-0.240227
10334		-0.160958	0.639560	-0.751702	0.174966	0.768060	0.616012	0.971329	-0.032370	-0.235527
10335		-0.160974	0.627154	-0.762080	0.169294	0.778251	0.604702	0.972331	-0.031674	-0.231451
10336		-0.161517	0.613807	-0.772757	0.161528	0.788921	0.592885	0.973561	-0.029061	-0.226571
10337		-0.160950	0.598996	-0.784410	0.151724	0.800341	0.580030	0.975231	-0.025658	-0.219697
10338		-0.161181	0.581791	-0.797207	0.142243	0.813030	0.564579	0.976620	-0.022398	-0.213801
10339		-0.162123	0.561025	-0.811768	0.134120	0.827545	0.545143	0.977613	-0.020494	-0.209408
10340		-0.162893	0.536913	-0.827762	0.125780	0.843423	0.522320	0.978594	-0.019034	-0.204920
10341		-0.162211	0.509228	-0.845207	0.119349	0.860388	0.495469	0.979512	-0.020504	-0.200340
10342		-0.159506	0.478686	-0.863376	0.115206	0.877623	0.465301	0.980452	-0.025248	-0.195134
10343		-0.154263	0.445326	-0.881979	0.113216	0.894752	0.431973	0.981522	-0.033217	-0.188445
10344		-0.146524	0.409847	-0.900309	0.109192	0.911271	0.397066	0.983162	-0.040127	-0.178275
10345		-0.135971	0.372222	-0.918130	0.100060	0.927157	0.361064	0.985647	-0.042774	-0.163311
10346		-0.123486	0.334763	-0.934176	0.086983	0.941409	0.325857	0.988527	-0.041019	-0.145369
10347		-0.109636	0.298753	-0.948012	0.073634	0.953582	0.291993	0.991241	-0.037793	-0.126546
10348		-0.096623	0.267868	-0.958598	0.061523	0.962870	0.262860	0.993418	-0.033577	-0.109515
10349		-0.083898	0.243507	-0.966264	0.050997	0.969461	0.239885	0.995169	-0.029151	-0.093754
10350		-0.074944	0.225075	-0.971455	0.052723	0.973726	0.221534	0.995793	-0.034615	-0.084841
10351		-0.070191	0.211262	-0.974906	0.072139	0.975832	0.206269	0.994922	-0.055851	-0.083735
10352		-0.066593	0.203505	-0.976807	0.109437	0.974563	0.195577	0.991761	-0.093875	-0.087170
10353		-0.060961	0.202086	-0.977469	0.156746	0.969078	0.190575	0.985756	-0.141597	-0.090752
10354		-0.060593	0.206262	-0.976619	0.198289	0.961404	0.190746	0.978269	-0.182095	-0.099154
10355		-0.066320	0.212822	-0.974838	0.233041	0.953272	0.192260	0.970203	-0.214426	-0.112817
10356		-0.064931	0.216472	-0.974127	0.261242	0.945829	0.192771	0.963087	-0.241967	-0.117965
10357		-0.064533	0.221863	-0.972940	0.265106	0.943750	0.197623	0.962057	-0.245179	-0.119720
10358		-0.084757	0.236980	-0.967810	0.255922	0.943898	0.208712	0.962975	-0.229994	-0.140650
10359		-0.096743	0.255191	-0.962039	0.264579	0.938390	0.222312	0.959499	-0.233028	-0.158301
10360		-0.077318	0.263226	-0.961631	0.271153	0.933714	0.233783	0.959426	-0.242673	-0.143567
10361		-0.083637	0.279502	-0.956495	0.282925	0.927019	0.246149	0.955488	-0.250030	-0.156612
10362		-0.079878	0.293544	-0.952602	0.288162	0.921653	0.259844	0.954244	-0.253748	-0.158208
10363		-0.076791	0.308839	-0.948009	0.276775	0.920051	0.277312	0.957862	-0.241090	-0.156131
10364		-0.080570	0.324525	-0.942439	0.285396	0.913437	0.290140	0.955017	-0.245592	-0.166214
10365		-0.084784	0.339889	-0.936636	0.283307	0.909446	0.304377	0.955274	-0.239549	-0.173399
10366		-0.087527	0.352403	-0.931746	0.274718	0.907604	0.317466	0.957533	-0.228181	-0.176251
10367		-0.091421	0.362550	-0.927470	0.268049	0.905953	0.327718	0.959058	-0.218647	-0.180004
10368		-0.095518	0.370881	-0.923755	0.259955	0.905089	0.336507	0.960885	-0.207992	-0.182865
10369		-0.097131	0.377005	-0.921104	0.257425	0.903504	0.342656	0.961404	-0.203833	-0.184808
10370		-0.096487	0.381677	-0.919246	0.262113	0.900699	0.346464	0.960202	-0.207517	-0.186948
10371		-0.094147	0.384970	-0.918114	0.264740	0.898687	0.349677	0.959713	-0.210141	-0.186526
10372		-0.091987	0.385960	-0.917918	0.269639	0.897041	0.350160	0.958558	-0.215296	-0.186586
10373		-0.092282	0.383246	-0.919025	0.276322	0.896569	0.346136	0.956624	-0.222004	-0.188637
10374		-0.093451	0.375845	-0.921959	0.283314	0.897767	0.337266	0.954463	-0.229686	-0.190379
10375		-0.095491	0.364388	-0.926338	0.290574	0.900264	0.324177	0.952076	-0.238214	-0.191849
10376		-0.097792	0.349710	-0.931740	0.299707	0.903113	0.307510	0.949006	-0.249177	-0.193128
10377		-0.099362	0.332253	-0.937942	0.307780	0.906644	0.288561	0.946255	-0.260008	-0.192347
10378		-0.099662	0.312906	-0.944541	0.314251	0.910580	0.268498	0.944094	-0.270064	-0.189081
10379		-0.098853	0.292356	-0.951187	0.318279	0.914945	0.248139	0.942829	-0.278214	-0.183496
10380		-0.097200	0.271255	-0.957587	0.319687	0.919667	0.228064	0.942524	-0.283961	-0.176108
10381		-0.094794	0.249828	-0.963639	0.315725	0.925569	0.208901	0.944104	-0.284442	-0.166615
10382		-0.093679	0.229190	-0.968863	0.307647	0.932181	0.190766	0.946878	-0.280197	-0.157835
10383		-0.094125	0.208938	-0.973389	0.290597	0.940916	0.173868	0.952205	-0.266499	-0.149280
10384		-0.095089	0.188566	-0.977446	0.264749	0.951323	0.157771	0.959618	-0.243776	-0.140383
10385		-0.094986	0.169583	-0.980928	0.228756	0.962732	0.144286	0.968839	-0.210688	-0.130239
10386		-0.094563	0.154748	-0.983418	0.187948	0.972855	0.135013	0.977616	-0.172064	-0.121081
10387		-0.093244	0.147753	-0.984619	0.167516	0.977158	0.130769	0.981450	-0.152746	-0.115865
10388		-0.090789	0.151015	-0.984354	0.139855	0.980574	0.137536	0.986001	-0.125180	-0.110146
10389		-0.096076	0.164915	-0.981617	0.132529	0.979518	0.151591	0.986512	-0.115529	-0.115964
10390		-0.102678	0.187410	-0.976901	0.117116	0.977538	0.175223	0.987796	-0.096419	-0.122320
10391		-0.111045	0.216539	-0.969938	0.102406	0.973272	0.205559	0.988525	-0.076501	-0.130252
10392		-0.120186	0.250754	-0.960561	0.075238	0.967093	0.243046	0.989896	-0.043060	-0.135097
10393		-0.128574	0.289576	-0.948480	0.052358	0.957067	0.285100	0.990317	-0.013004	-0.138215
10394		-0.137834	0.331796	-0.933227	0.036619	0.943284	0.329962	0.989778	0.011306	-0.142167
10395		-0.147608	0.375198	-0.915117	0.024561	0.926357	0.375845	0.988741	0.033002	-0.145953
10396		-0.154517	0.417884	-0.895264	0.017746	0.907174	0.420381	0.987831	0.049069	-0.147590
10397		-0.158617	0.459710	-0.873789	0.014780	0.885999	0.463451	0.987230	0.060596	-0.147329
10398		-0.160902	0.499942	-0.850981	0.013063	0.863218	0.504662	0.986884	0.070084	-0.145424
10399		-0.162547	0.538490	-0.826805	0.012185	0.838981	0.544025	0.986626	0.078355	-0.142935
10400		-0.163574	0.575506	-0.801272	0.011362	0.813256	0.581795	0.986466	0.086063	-0.139566
10401		-0.163351	0.610274	-0.775166	0.010872	0.786785	0.617131	0.986508	0.092381	-0.135157
10402		-0.162158	0.642327	-0.749080	0.009952	0.760153	0.649668	0.986715	0.097894	-0.129657
10403		-0.160189	0.671039	-0.723911	0.009641	0.734410	0.678638	0.987039	0.101731	-0.124114
10404		-0.158599	0.695372	-0.700931	0.011837	0.711204	0.702886	0.987272	0.103180	-0.121028
10405		-0.156083	0.715207	-0.681262	0.021192	0.691981	0.721605	0.987517	0.098193	-0.123163
10406		-0.151652	0.730661	-0.665685	0.037858	0.677274	0.734757	0.987709	0.086225	-0.130371
10407		-0.145137	0.742774	-0.653623	0.057309	0.665819	0.743909	0.987750	0.070510	-0.139202
10408		-0.136842	0.751772	-0.645068	0.074942	0.657184	0.749995	0.987754	0.054289	-0.146269
10409		-0.126260	0.757627	-0.640359	0.092156	0.651692	0.752864	0.987707	0.036043	-0.152103
10410		-0.112920	0.760637	-0.639282	0.110041	0.649012	0.752777	0.987492	0.014656	-0.156988
10411		-0.098377	0.761144	-0.641079	0.125094	0.648552	0.750821	0.987256	-0.006332	-0.159017
10412		-0.084584	0.758091	-0.646640	0.139251	0.651590	0.745680	0.986638	-0.026972	-0.160679
10413		-0.073241	0.751421	-0.655745	0.153087	0.658189	0.737124	0.985495	-0.046398	-0.163239
10414		-0.064317	0.742090	-0.667208	0.161683	0.667507	0.726837	0.984745	-0.061129	-0.162915
10415		-0.056023	0.730137	-0.681000	0.164687	0.679486	0.714966	0.984754	-0.072097	-0.158311
10416		-0.048570	0.715321	-0.697106	0.158128	0.694635	0.701768	0.986223	-0.076147	-0.146851
10417		-0.043381	0.698134	-0.714652	0.147201	0.711985	0.686593	0.988155	-0.075412	-0.133653
10418		-0.040726	0.679102	-0.732913	0.136568	0.730421	0.669204	0.989793	-0.072839	-0.122491
10419		-0.038616	0.658736	-0.751383	0.130679	0.748815	0.649769	0.990672	-0.073098	-0.114999
10420		-0.036855	0.637474	-0.769590	0.134236	0.766291	0.628314	0.990264	-0.080150	-0.113814
10421		-0.035917	0.615617	-0.787227	0.146131	0.782503	0.605256	0.988613	-0.093299	-0.118065
10422		-0.036063	0.593977	-0.803673	0.164482	0.796757	0.581485	0.985721	-0.111220	-0.126432
10423		-0.038208	0.573655	-0.818205	0.183177	0.808949	0.558612	0.982337	-0.128533	-0.135989
10424		-0.041507	0.554564	-0.831105	0.197741	0.819928	0.537230	0.979375	-0.142045	-0.143693
10425		-0.045884	0.536582	-0.842600	0.205386	0.830535	0.517715	0.977605	-0.149304	-0.148314
10426		-0.050789	0.520146	-0.852566	0.206418	0.840702	0.500612	0.977145	-0.150559	-0.150066
10427		-0.055371	0.505348	-0.861137	0.200414	0.850533	0.486238	0.978145	-0.145660	-0.148373
10428		-0.058359	0.492874	-0.868141	0.190958	0.859077	0.474891	0.979862	-0.138064	-0.144253
10429		-0.060308	0.482666	-0.873725	0.179599	0.866281	0.466157	0.981890	-0.128807	-0.138930
10430		-0.061405	0.474078	-0.878339	0.168080	0.872344	0.459092	0.983859	-0.119440	-0.133249
10431		-0.062396	0.466945	-0.882082	0.158486	0.877226	0.453163	0.985388	-0.111523	-0.128739
10432		-0.063552	0.460595	-0.885333	0.151902	0.881254	0.447569	0.986350	-0.106040	-0.125971
10433		-0.064503	0.454291	-0.888515	0.146430	0.885040	0.441884	0.987116	-0.101602	-0.123610
10434		-0.064531	0.447675	-0.891865	0.143743	0.888577	0.435625	0.987509	-0.100088	-0.121691
10435		-0.063897	0.441240	-0.895111	0.140220	0.892016	0.429705	0.988056	-0.098056	-0.118868
10436		-0.063000	0.435613	-0.897927	0.130320	0.895601	0.425341	0.989468	-0.090222	-0.113192
10437		-0.062446	0.430096	-0.900621	0.114998	0.899472	0.421574	0.991401	-0.077244	-0.105629
10438		-0.061932	0.424246	-0.903427	0.098275	0.903358	0.417477	0.993230	-0.062930	-0.097640
10439		-0.061884	0.416801	-0.906889	0.083540	0.907605	0.411430	0.994581	-0.050301	-0.090986
10440		-0.062443	0.407210	-0.911197	0.070168	0.912511	0.402989	0.995579	-0.038773	-0.085553
10441		-0.060811	0.395121	-0.916614	0.056523	0.918203	0.392056	0.996548	-0.027969	-0.078170
10442		-0.057577	0.381079	-0.922748	0.043804	0.924355	0.379010	0.997380	-0.018598	-0.069914
10443		-0.054202	0.364742	-0.929530	0.034746	0.931023	0.363302	0.997925	-0.012605	-0.063137
10444		-0.052398	0.346176	-0.936705	0.030648	0.938109	0.344981	0.998156	-0.010631	-0.059765
10445		-0.051325	0.325934	-0.943998	0.032219	0.945292	0.324629	0.998162	-0.013754	-0.059018
10446		-0.050831	0.306061	-0.950654	0.037080	0.951807	0.304449	0.998019	-0.019775	-0.059730
10447		-0.051466	0.287151	-0.956502	0.047654	0.957386	0.284852	0.997537	-0.030921	-0.062957
10448		-0.052740	0.269402	-0.961583	0.056694	0.962177	0.266459	0.996998	-0.040463	-0.066018
10449		-0.053376	0.251311	-0.966434	0.072276	0.966247	0.247270	0.995955	-0.056652	-0.069739
10450		-0.049720	0.233367	-0.971117	0.090833	0.969346	0.228291	0.994624	-0.076859	-0.069393
10451		-0.045464	0.217033	-0.975105	0.103055	0.971925	0.211520	0.993636	-0.090873	-0.066554
10452		-0.043890	0.205405	-0.977692	0.114681	0.973202	0.199314	0.992432	-0.103375	-0.066270
10453		-0.047860	0.200463	-0.978531	0.126282	0.973008	0.193155	0.990839	-0.114326	-0.071883
10454		-0.061346	0.205220	-0.976791	0.145217	0.970057	0.194685	0.987496	-0.129903	-0.089310
10455		-0.062332	0.222957	-0.972833	0.175041	0.962063	0.209273	0.982586	-0.157241	-0.098994
10456		-0.054730	0.255459	-0.965270	0.185801	0.952440	0.241529	0.981062	-0.166129	-0.099592
10457		-0.081634	0.294758	-0.952079	0.222326	0.936582	0.270898	0.971549	-0.189558	-0.141989
10458		-0.062279	0.309379	-0.948897	0.263459	0.922116	0.283356	0.962658	-0.232349	-0.138938
10459		-0.055946	0.320219	-0.945690	0.262775	0.918503	0.295467	0.963234	-0.231973	-0.135532
10460		-0.074639	0.338794	-0.937895	0.295316	0.905841	0.303713	0.952480	-0.254306	-0.167662
10461		-0.076331	0.357409	-0.930823	0.286137	0.902132	0.322928	0.955143	-0.241694	-0.171129
10462		-0.076149	0.376648	-0.923221	0.270439	0.899004	0.344462	0.959721	-0.223445	-0.170319
10463		-0.082524	0.397346	-0.913951	0.267606	0.892233	0.363741	0.959988	-0.214561	-0.179963
10464		-0.076432	0.413527	-0.907278	0.242679	0.890292	0.385341	0.967091	-0.190725	-0.168401
10465		-0.080426	0.429175	-0.899634	0.244721	0.883434	0.399569	0.966252	-0.188024	-0.176079
10466		-0.081623	0.442394	-0.893099	0.240065	0.878432	0.413189	0.967319	-0.180676	-0.177903
10467		-0.083174	0.454439	-0.886886	0.233974	0.873997	0.425893	0.968679	-0.172085	-0.179021
10468		-0.082672	0.464192	-0.881868	0.233914	0.869215	0.435603	0.968736	-0.170269	-0.180441
10469		-0.078169	0.471060	-0.878631	0.228522	0.866327	0.444133	0.970396	-0.166069	-0.175367
10470		-0.071464	0.472795	-0.878270	0.225538	0.865376	0.447502	0.971610	-0.166103	-0.168476
10471		-0.072765	0.468711	-0.880350	0.222924	0.868001	0.443710	0.972116	-0.163965	-0.167647
10472		-0.083720	0.460305	-0.883804	0.226170	0.872549	0.433019	0.970483	-0.163638	-0.177157
10473		-0.093747	0.447599	-0.889307	0.230977	0.878648	0.417885	0.968432	-0.166234	-0.185756
10474		-0.103263	0.432833	-0.895540	0.240023	0.884589	0.399864	0.965259	-0.173659	-0.195235
10475		-0.109560	0.416748	-0.902395	0.250375	0.890158	0.380699	0.961930	-0.184228	-0.201869
10476		-0.111894	0.400173	-0.909583	0.261457	0.894936	0.361565	0.958707	-0.197360	-0.204766
10477		-0.107706	0.383694	-0.917158	0.268955	0.899370	0.344668	0.957111	-0.209551	-0.200065
10478		-0.098330	0.367372	-0.924862	0.275738	0.903036	0.329386	0.956190	-0.222631	-0.190094
10479		-0.087444	0.350504	-0.932470	0.281125	0.906691	0.314452	0.955679	-0.234643	-0.177820
10480		-0.077568	0.332146	-0.940033	0.283688	0.911251	0.298567	0.955774	-0.243517	-0.164910
10481		-0.069908	0.312042	-0.947493	0.282414	0.917149	0.281212	0.956742	-0.247926	-0.152241
10482		-0.064814	0.290525	-0.954670	0.274700	0.924914	0.262820	0.959343	-0.245213	-0.139755
10483		-0.062357	0.268320	-0.961310	0.261376	0.933958	0.243731	0.963221	-0.236065	-0.128371
10484		-0.061892	0.246110	-0.967264	0.242205	0.943857	0.224657	0.968249	-0.220372	-0.118027
10485		-0.062801	0.224057	-0.972551	0.219268	0.953762	0.205570	0.973641	-0.200339	-0.109026
10486		-0.062971	0.202592	-0.977236	0.191530	0.963432	0.187388	0.979465	-0.175370	-0.099471
10487		-0.059405	0.183796	-0.981168	0.154941	0.972689	0.172827	0.986136	-0.141756	-0.086260
10488		-0.057190	0.171180	-0.983578	0.132512	0.977776	0.162466	0.989530	-0.121045	-0.078603
10489		-0.055293	0.169776	-0.983930	0.120116	0.979412	0.162246	0.991219	-0.109215	-0.074547
10490		-0.055335	0.180474	-0.982022	0.104056	0.979216	0.174095	0.993031	-0.092552	-0.072964
10491		-0.058926	0.201610	-0.977692	0.099496	0.975703	0.195203	0.993292	-0.085774	-0.077554
10492		-0.065437	0.230723	-0.970817	0.082420	0.970827	0.225170	0.994447	-0.065280	-0.082544
10493		-0.068867	0.265473	-0.961655	0.059097	0.963337	0.261705	0.995874	-0.038809	-0.082031
10494		-0.071780	0.306447	-0.949178	0.033372	0.951837	0.304782	0.996862	-0.009798	-0.078549
10495		-0.075123	0.351355	-0.933224	0.017542	0.936189	0.351059	0.997020	0.010002	-0.076492
10496		-0.078817	0.396875	-0.914483	0.001716	0.917389	0.397988	0.996888	0.029799	-0.072987
10497		-0.079787	0.440997	-0.893955	-0.013078	0.896274	0.443309	0.996726	0.047062	-0.065744
10498		-0.079031	0.483411	-0.871819	-0.024652	0.873339	0.486489	0.996567	0.059940	-0.057104
10499		-0.078024	0.524124	-0.848060	-0.039426	0.848366	0.527940	0.996172	0.074628	-0.045529
10500		-0.076011	0.562763	-0.823116	-0.060553	0.821376	0.567164	0.995267	0.092953	-0.028357
10501		-0.072705	0.599806	-0.796835	-0.087608	0.792021	0.604176	0.993498	0.113736	-0.005036
10502		-0.068393	0.634799	-0.769645	-0.117569	0.760947	0.638073	0.990707	0.134127	0.022589
10503		-0.064737	0.667430	-0.741853	-0.145605	0.729138	0.668698	0.987222	0.151308	0.049979
10504		-0.059681	0.696465	-0.715104	-0.168926	0.699002	0.694881	0.983820	0.162271	0.075934
10505		-0.052266	0.722367	-0.689532	-0.185956	0.671359	0.717424	0.981167	0.165719	0.099240
10506		-0.041719	0.744967	-0.665795	-0.191993	0.647979	0.737063	0.980509	0.158578	0.115995
10507		-0.029999	0.764111	-0.644387	-0.187378	0.628949	0.754528	0.981830	0.143379	0.124310
10508		-0.015861	0.780261	-0.625253	-0.174873	0.613529	0.770066	0.984463	0.121554	0.126715
10509		0.000550	0.794109	-0.607775	-0.156845	0.600321	0.784228	0.987623	0.094895	0.124882
10510		0.018594	0.805347	-0.592511	-0.138770	0.588957	0.796161	0.990150	0.067420	0.122709
10511		0.037722	0.814355	-0.579140	-0.126427	0.578784	0.805621	0.991258	0.042829	0.124790
10512		0.058711	0.820555	-0.568545	-0.125265	0.571081	0.811280	0.990385	0.023588	0.136316
10513		0.081107	0.823325	-0.561746	-0.131634	0.567514	0.812773	0.987975	0.008023	0.154406
10514		0.105419	0.822948	-0.558251	-0.146114	0.568104	0.809882	0.983635	-0.003809	0.180133
10515		0.130772	0.820245	-0.556863	-0.165019	0.571860	0.803583	0.977582	-0.013193	0.210139
10516		0.155161	0.815076	-0.558189	-0.184602	0.579002	0.794153	0.970488	-0.020179	0.240304
10517		0.178275	0.807348	-0.562501	-0.204338	0.589573	0.781441	0.962530	-0.024371	0.270078
10518		0.198024	0.796854	-0.570798	-0.220621	0.603622	0.766138	0.955046	-0.025784	0.295334
10519		0.214896	0.783620	-0.582888	-0.228465	0.620607	0.750100	0.949539	-0.028024	0.312396
10520		0.229452	0.768361	-0.597473	-0.229460	0.639251	0.733966	0.945886	-0.031314	0.322985
10521		0.240733	0.751417	-0.614346	-0.223669	0.658873	0.718233	0.944468	-0.035493	0.326681
10522		0.248960	0.732816	-0.633246	-0.212349	0.679225	0.702539	0.944948	-0.040436	0.324713
10523		0.254092	0.713065	-0.653434	-0.194793	0.699492	0.687580	0.947361	-0.047424	0.316635
10524		0.257547	0.692911	-0.673457	-0.174600	0.718868	0.672862	0.950360	-0.055708	0.306125
10525		0.260676	0.672502	-0.692669	-0.155557	0.737357	0.657348	0.952812	-0.063605	0.296824
10526		0.263849	0.652350	-0.710509	-0.139107	0.754646	0.641216	0.954480	-0.070347	0.289859
10527		0.265614	0.633246	-0.726945	-0.126368	0.770393	0.624921	0.955762	-0.074125	0.284649
10528		0.266362	0.615324	-0.741908	-0.117400	0.784696	0.608663	0.956697	-0.075025	0.281252
10529		0.266802	0.598461	-0.755421	-0.109338	0.797569	0.593236	0.957529	-0.075681	0.278228
10530		0.264150	0.582484	-0.768724	-0.099888	0.809270	0.578883	0.959295	-0.076126	0.271952
10531		0.259407	0.566953	-0.781839	-0.084979	0.819811	0.566294	0.962022	-0.080461	0.260844
10532		0.248281	0.552881	-0.795411	-0.062232	0.828530	0.556476	0.966687	-0.088662	0.240115
10533		0.231408	0.540829	-0.808674	-0.040233	0.835846	0.547488	0.972024	-0.094158	0.215181
10534		0.211967	0.530643	-0.820663	-0.020475	0.841972	0.539133	0.977062	-0.097475	0.189335
10535		0.190125	0.521801	-0.831610	-0.003780	0.847444	0.530872	0.981753	-0.097788	0.163093
10536		0.167634	0.513789	-0.841379	0.008848	0.852638	0.522427	0.985810	-0.095021	0.138385
10537		0.144228	0.506516	-0.850082	0.018830	0.857504	0.514133	0.989365	-0.090160	0.114139
10538		0.120748	0.500301	-0.857391	0.025450	0.861866	0.506496	0.992357	-0.082979	0.091336
10539		0.098489	0.494590	-0.863528	0.029339	0.865927	0.499310	0.994706	-0.074511	0.070773
10540		0.077888	0.488761	-0.868934	0.031484	0.869941	0.492150	0.996465	-0.065690	0.052370
10541		0.058138	0.482068	-0.874203	0.033990	0.874221	0.484338	0.997730	-0.057872	0.034440
10542		0.038323	0.473915	-0.879736	0.038387	0.879035	0.475210	0.998528	-0.051982	0.015495
10543		0.019969	0.463496	-0.885874	0.036638	0.885116	0.463925	0.999129	-0.041721	0.000693
10544		0.004625	0.451596	-0.892211	0.028937	0.891786	0.451531	0.999571	-0.027906	-0.008943
10545		-0.008343	0.438768	-0.898562	0.015906	0.898538	0.438608	0.999839	-0.010633	-0.014476
10546		-0.018747	0.425108	-0.904949	0.000156	0.905109	0.425180	0.999824	0.007830	-0.017034
10547		-0.024984	0.410667	-0.911443	-0.018548	0.911380	0.411148	0.999516	0.027178	-0.015153
10548		-0.027199	0.395781	-0.917942	-0.035122	0.917336	0.396561	0.999013	0.043026	-0.011050
10549		-0.026423	0.381122	-0.924147	-0.051433	0.922727	0.382007	0.998327	0.057626	-0.004779
10550		-0.023763	0.367493	-0.929723	-0.069766	0.927108	0.368243	0.997280	0.073614	0.003608
10551		-0.020004	0.354093	-0.934996	-0.083441	0.931330	0.354490	0.996312	0.085108	0.010915
10552		-0.014769	0.341262	-0.939852	-0.088714	0.935801	0.341185	0.995948	0.088417	0.016454
10553		-0.007956	0.328636	-0.944423	-0.085741	0.940751	0.328080	0.996286	0.083586	0.020693
10554		-0.000975	0.314985	-0.949096	-0.068248	0.946863	0.314314	0.997668	0.065080	0.020574
10555		0.004302	0.299299	-0.954150	-0.021755	0.953961	0.299142	0.999754	0.019471	0.010615
10556		0.006942	0.282283	-0.959306	0.039048	0.958521	0.282334	0.999213	-0.039419	-0.004368
10557		0.004918	0.262738	-0.964855	0.096377	0.960250	0.261976	0.995333	-0.094278	-0.020599
10558		0.002875	0.241041	-0.970511	0.150410	0.959370	0.238719	0.988620	-0.146661	-0.033496
10559		0.000526	0.219160	-0.975689	0.198543	0.956242	0.214899	0.980092	-0.193829	-0.043010
10560		-0.004202	0.200934	-0.979596	0.238255	0.951595	0.194168	0.971194	-0.232578	-0.051872
10561		-0.017850	0.194215	-0.980797	0.260690	0.947927	0.182962	0.965258	-0.252418	-0.067550
10562		-0.031593	0.211720	-0.976820	0.250283	0.947847	0.197345	0.967657	-0.238247	-0.082935
10563		-0.076770	0.279091	-0.957191	0.218904	0.941318	0.256907	0.972722	-0.189810	-0.133359
10564		-0.020919	0.300395	-0.953585	0.266033	0.921080	0.284319	0.963737	-0.247737	-0.099183
10565		-0.027736	0.318287	-0.947589	0.204586	0.929695	0.306288	0.978456	-0.185368	-0.090903
10566		-0.015673	0.323020	-0.946262	0.281609	0.909494	0.305805	0.959401	-0.261683	-0.105220
10567		-0.049202	0.339575	-0.939291	0.325734	0.894468	0.306308	0.944180	-0.290888	-0.154621
10568		-0.042570	0.356566	-0.933300	0.277958	0.901494	0.331736	0.959650	-0.245296	-0.137487
10569		-0.044370	0.371683	-0.927299	0.299319	0.890517	0.342619	0.953121	-0.262356	-0.150764
10570		-0.058449	0.390639	-0.918686	0.296122	0.885626	0.357741	0.953360	-0.251133	-0.167441
10571		-0.046949	0.401543	-0.914636	0.246429	0.892000	0.378957	0.968023	-0.207601	-0.140831
10572		-0.050943	0.411519	-0.909976	0.231753	0.891158	0.390035	0.971440	-0.191020	-0.140769
10573		-0.053359	0.417937	-0.906908	0.198993	0.894436	0.400481	0.978547	-0.159099	-0.130893
10574		-0.060649	0.422172	-0.904485	0.188560	0.894683	0.404953	0.980187	-0.145989	-0.133866
10575		-0.066869	0.426566	-0.901981	0.183235	0.893880	0.409150	0.980792	-0.137915	-0.137935
10576		-0.067490	0.433332	-0.898704	0.184032	0.890709	0.415657	0.980600	-0.137338	-0.139861
10577		-0.065719	0.442192	-0.894510	0.188891	0.885752	0.423985	0.979796	-0.141102	-0.141737
10578		-0.062461	0.450418	-0.890630	0.193964	0.880837	0.431862	0.979018	-0.145775	-0.142383
10579		-0.059797	0.455770	-0.888087	0.203068	0.876629	0.436217	0.977337	-0.154258	-0.144972
10580		-0.058485	0.456689	-0.887702	0.210997	0.874790	0.436145	0.975735	-0.161795	-0.147522
10581		-0.059418	0.453229	-0.889412	0.219545	0.875103	0.431271	0.973791	-0.169641	-0.151501
10582		-0.061233	0.446189	-0.892842	0.225153	0.877639	0.423150	0.972397	-0.175115	-0.154202
10583		-0.062491	0.436098	-0.897727	0.229646	0.881633	0.412294	0.971266	-0.180395	-0.155242
10584		-0.062857	0.423611	-0.903661	0.233802	0.886505	0.399306	0.970250	-0.186179	-0.154765
10585		-0.061982	0.408959	-0.910445	0.238578	0.891826	0.384354	0.969143	-0.193389	-0.152845
10586		-0.060138	0.392122	-0.917945	0.244667	0.897348	0.367294	0.967740	-0.202502	-0.149904
10587		-0.057305	0.372824	-0.926131	0.249307	0.903610	0.348332	0.966728	-0.210930	-0.144729
10588		-0.053946	0.350946	-0.934840	0.256285	0.909709	0.326722	0.965095	-0.221960	-0.139018
10589		-0.050749	0.326299	-0.943903	0.264022	0.915880	0.302416	0.963181	-0.233864	-0.132630
10590		-0.048549	0.298971	-0.953026	0.271601	0.922150	0.275449	0.961185	-0.245470	-0.125970
10591		-0.047931	0.269229	-0.961883	0.278320	0.928451	0.246003	0.959292	-0.255921	-0.119433
10592		-0.047826	0.237797	-0.970137	0.279654	0.935593	0.215543	0.958909	-0.260994	-0.111247
10593		-0.046148	0.204473	-0.977784	0.273697	0.943958	0.184482	0.960708	-0.259103	-0.099525
10594		-0.044653	0.170480	-0.984349	0.260117	0.953329	0.153308	0.964544	-0.249200	-0.086914
10595		-0.043255	0.135508	-0.989832	0.240520	0.963031	0.121329	0.969680	-0.232827	-0.074249
10596		-0.041047	0.101042	-0.994035	0.213773	0.972724	0.090049	0.976021	-0.208802	-0.061527
10597		-0.033384	0.067720	-0.997146	0.170892	0.983396	0.061065	0.984724	-0.168366	-0.044402
10598		-0.023879	0.039262	-0.998944	0.139646	0.989563	0.035555	0.989913	-0.138650	-0.029112
10599		-0.015014	0.029581	-0.999450	0.143538	0.989273	0.027123	0.989531	-0.143052	-0.019099
10600		-0.006359	0.040424	-0.999162	0.159275	0.986468	0.038897	0.987214	-0.158894	-0.012712
10601		-0.001793	0.065723	-0.997836	0.191923	0.979311	0.064158	0.981408	-0.191392	-0.014370
10602		-0.009142	0.102476	-0.994694	0.210682	0.972603	0.098263	0.977512	-0.208666	-0.030481
10603		-0.013345	0.146744	-0.989085	0.228594	0.963424	0.139852	0.973430	-0.224232	-0.046402
10604		-0.012190	0.195750	-0.980578	0.239802	0.952605	0.187185	0.970745	-0.232863	-0.058554
10605		-0.013425	0.249032	-0.968402	0.245882	0.939574	0.238209	0.969207	-0.234915	-0.073846
10606		-0.015184	0.305554	-0.952054	0.231752	0.927310	0.293917	0.972656	-0.216178	-0.084893
10607		-0.012140	0.363908	-0.931356	0.201149	0.913273	0.354220	0.979485	-0.183041	-0.084287
10608		-0.006204	0.422709	-0.906244	0.166389	0.894064	0.415889	0.986041	-0.148209	-0.075881
10609		-0.001191	0.481668	-0.876353	0.132305	0.868726	0.477296	0.991208	-0.115377	-0.064762
10610		0.004876	0.538907	-0.842351	0.095893	0.838227	0.536823	0.995380	-0.083393	-0.047590
10611		0.013412	0.593363	-0.804823	0.060307	0.802950	0.592987	0.998090	-0.056490	-0.025014
10612		0.022985	0.644877	-0.763941	0.025098	0.763530	0.645285	0.999421	-0.034005	0.001365
10613		0.032258	0.693608	-0.719630	-0.004858	0.720105	0.693848	0.999468	-0.018886	0.026598
10614		0.040953	0.738744	-0.672741	-0.027152	0.673880	0.738342	0.998792	-0.011971	0.047656
10615		0.048317	0.779889	-0.624050	-0.041378	0.625806	0.778880	0.997975	-0.011811	0.062507
10616		0.053851	0.816368	-0.575016	-0.048001	0.577302	0.815119	0.997395	-0.016293	0.070275
10617		0.056127	0.847983	-0.527043	-0.049394	0.529587	0.846816	0.997201	-0.021496	0.071609
10618		0.059219	0.874900	-0.480670	-0.048039	0.483455	0.874050	0.997088	-0.028670	0.070659
10619		0.061804	0.898194	-0.435233	-0.043842	0.438089	0.897862	0.997125	-0.036410	0.066454
10620		0.063287	0.918248	-0.390917	-0.036921	0.393588	0.918545	0.997312	-0.043699	0.058811
10621		0.063882	0.935200	-0.348310	-0.029665	0.350649	0.936037	0.997516	-0.049464	0.050143
10622		0.066704	0.948783	-0.308806	-0.027724	0.311139	0.949960	0.997388	-0.054805	0.047058
10623		0.070979	0.959433	-0.272855	-0.032966	0.275652	0.960692	0.996933	-0.059194	0.051194
10624		0.078508	0.967364	-0.240922	-0.045349	0.244883	0.968491	0.995882	-0.065109	0.063094
10625		0.091283	0.972314	-0.215110	-0.068501	0.221632	0.972721	0.993466	-0.074058	0.086835
10626		0.108174	0.974265	-0.197753	-0.099910	0.208567	0.972891	0.989099	-0.085484	0.119900
10627		0.126023	0.973998	-0.188270	-0.132440	0.204603	0.969844	0.983147	-0.097289	0.154781
10628		0.142473	0.972132	-0.186177	-0.166958	0.209004	0.963557	0.975616	-0.106197	0.192083
10629		0.157831	0.968983	-0.190161	-0.194367	0.219293	0.956103	0.968148	-0.113942	0.222950
10630		0.175559	0.964003	-0.199693	-0.209556	0.234787	0.949190	0.961907	-0.124792	0.243232
10631		0.197336	0.956502	-0.214854	-0.214574	0.255992	0.942564	0.956565	-0.139900	0.255757
10632		0.219269	0.946964	-0.234905	-0.213287	0.281465	0.935567	0.952066	-0.155039	0.263691
10633		0.239405	0.935619	-0.259426	-0.210376	0.310836	0.926889	0.947854	-0.167325	0.271247
10634		0.259890	0.921951	-0.287166	-0.207797	0.343814	0.915758	0.943015	-0.178324	0.280933
10635		0.280121	0.905712	-0.318148	-0.200434	0.379294	0.903306	0.938807	-0.189267	0.287784
10636		0.300918	0.886022	-0.352723	-0.186945	0.417496	0.889240	0.935147	-0.201649	0.291270
10637		0.319865	0.863016	-0.391011	-0.172321	0.458800	0.871670	0.931661	-0.211437	0.295470
10638		0.337410	0.836122	-0.432497	-0.159845	0.503656	0.848988	0.927687	-0.217325	0.303589
10639		0.354970	0.805312	-0.474836	-0.149051	0.550167	0.821645	0.922919	-0.220884	0.315325
10640		0.373654	0.771054	-0.515615	-0.143000	0.597117	0.789305	0.916479	-0.221194	0.333376
10641		0.394997	0.734182	-0.552227	-0.138185	0.641750	0.754362	0.908231	-0.221661	0.354942
10642		0.415668	0.696202	-0.585255	-0.132605	0.682993	0.718287	0.899798	-0.220961	0.376218
10643		0.436238	0.657403	-0.614425	-0.125049	0.720487	0.682101	0.891100	-0.220725	0.396511
10644		0.455159	0.618943	-0.640109	-0.111439	0.752838	0.648703	0.883409	-0.223930	0.411636
10645		0.467933	0.582844	-0.664328	-0.092772	0.779945	0.618933	0.878881	-0.227988	0.419034
10646		0.475587	0.549944	-0.686570	-0.072091	0.802228	0.592649	0.876710	-0.232361	0.421176
10647		0.477196	0.520716	-0.707912	-0.049413	0.820171	0.569981	0.877407	-0.237012	0.417112
10648		0.471886	0.495824	-0.729028	-0.030293	0.835512	0.548637	0.881139	-0.236809	0.409287
10649		0.461134	0.474936	-0.749527	-0.015482	0.848877	0.528363	0.887195	-0.232043	0.398799
10650		0.445839	0.458445	-0.768802	-0.006461	0.860514	0.509386	0.895090	-0.222137	0.386612
10651		0.427011	0.446790	-0.786155	-0.002468	0.869976	0.493087	0.904243	-0.208614	0.372592
10652		0.406089	0.440245	-0.800797	-0.001409	0.876606	0.481208	0.913833	-0.194285	0.356600
10653		0.381742	0.438951	-0.813385	-0.002197	0.880459	0.474117	0.924266	-0.179204	0.337073
10654		0.353610	0.441946	-0.824405	-0.006859	0.882548	0.470173	0.935368	-0.160604	0.315109
10655		0.324375	0.447570	-0.833344	-0.015496	0.883376	0.468410	0.945802	-0.139027	0.293480
10656		0.293594	0.454518	-0.840961	-0.022993	0.882834	0.469122	0.955654	-0.118395	0.269646
10657		0.264155	0.461582	-0.846856	-0.034185	0.881973	0.470059	0.963874	-0.095218	0.248757
10658		0.236717	0.468339	-0.851248	-0.047681	0.880694	0.471280	0.970408	-0.070972	0.230806
10659		0.211421	0.473905	-0.854819	-0.062770	0.879367	0.471989	0.975377	-0.046132	0.215664
10660		0.187060	0.478202	-0.858098	-0.077668	0.877982	0.472351	0.979273	-0.021712	0.201376
10661		0.163276	0.480326	-0.861759	-0.092456	0.877086	0.471351	0.982239	0.002715	0.187616
10662		0.140163	0.478730	-0.866702	-0.104723	0.877600	0.467815	0.984575	0.025194	0.173141
10663		0.117629	0.472495	-0.873448	-0.109737	0.880352	0.461452	0.986976	0.041570	0.155406
10664		0.095871	0.462187	-0.881585	-0.109434	0.885190	0.452176	0.989360	0.053125	0.135443
10665		0.076104	0.448091	-0.890743	-0.105755	0.891922	0.439648	0.991476	0.060742	0.115267
10666		0.059187	0.431076	-0.900373	-0.100110	0.899970	0.424302	0.993214	0.065023	0.096421
10667		0.044466	0.411466	-0.910340	-0.093642	0.908946	0.406262	0.994612	0.067181	0.078948
10668		0.030717	0.390095	-0.920262	-0.089764	0.918053	0.386162	0.995489	0.070744	0.063216
10669		0.017137	0.367614	-0.929821	-0.087321	0.926954	0.364871	0.996033	0.074940	0.047986
10670		0.004147	0.344842	-0.938652	-0.074842	0.936134	0.343586	0.997187	0.068825	0.029691
10671		-0.009358	0.322424	-0.946549	-0.051699	0.945169	0.322465	0.998619	0.051954	0.007824
10672		-0.022904	0.301740	-0.953115	-0.026443	0.952849	0.302291	0.999388	0.032127	-0.013846
10673		-0.034880	0.284984	-0.957897	-0.007610	0.958377	0.285404	0.999363	0.017245	-0.031260
10674		-0.045916	0.273830	-0.960682	0.004677	0.961744	0.273909	0.998934	0.008084	-0.045440
10675		-0.053125	0.266816	-0.962282	0.014329	0.963748	0.266431	0.998485	0.000365	-0.055022
10676		-0.057439	0.265294	-0.962455	0.030568	0.964062	0.263913	0.997881	-0.014261	-0.063484
10677		-0.063642	0.271576	-0.960311	0.066344	0.961284	0.267454	0.995765	-0.046690	-0.079195
10678		-0.060907	0.288656	-0.955494	0.116328	0.952800	0.280427	0.991342	-0.094071	-0.091611
10679		-0.071205	0.318840	-0.945130	0.112531	0.944054	0.309999	0.991094	-0.084283	-0.103101
10680		-0.090197	0.355783	-0.930206	0.106383	0.932111	0.346196	0.990226	-0.067732	-0.121923
10681		-0.055568	0.369943	-0.927391	0.129859	0.923615	0.360656	0.989974	-0.100389	-0.099363
10682		-0.073575	0.383335	-0.920674	0.198593	0.910319	0.363153	0.977317	-0.156121	-0.143104
10683		-0.078727	0.391170	-0.916945	0.265397	0.894830	0.358949	0.960920	-0.215095	-0.174262
10684		-0.077844	0.397126	-0.914457	0.248548	0.896009	0.367957	0.965487	-0.198643	-0.168453
10685		-0.082042	0.406414	-0.909998	0.253462	0.891563	0.375330	0.963860	-0.199857	-0.176156
10686		-0.081040	0.413639	-0.906827	0.246455	0.889883	0.383886	0.965760	-0.192382	-0.174060
10687		-0.086220	0.420557	-0.903160	0.219313	0.892310	0.394568	0.971837	-0.164056	-0.169169
10688		-0.104607	0.427104	-0.898131	0.197727	0.893989	0.402105	0.974660	-0.135521	-0.177968
10689		-0.119803	0.429450	-0.895109	0.164347	0.897742	0.408717	0.979100	-0.098142	-0.178131
10690		-0.090942	0.444035	-0.891382	0.170195	0.888853	0.425411	0.981205	-0.113021	-0.156407
10691		-0.087017	0.468562	-0.879135	0.172470	0.876242	0.449949	0.981164	-0.112471	-0.157061
10692		-0.076059	0.491859	-0.867346	0.177437	0.862659	0.473641	0.981189	-0.117874	-0.152887
10693		-0.062947	0.512637	-0.856295	0.185190	0.849096	0.494713	0.980685	-0.127436	-0.148383
10694		-0.045663	0.525022	-0.849863	0.175399	0.841747	0.510585	0.983438	-0.125750	-0.130525
10695		-0.042082	0.524474	-0.850386	0.171366	0.842315	0.511017	0.984308	-0.124223	-0.125323
10696		-0.053590	0.519965	-0.852505	0.172655	0.845698	0.504960	0.983523	-0.120128	-0.135096
10697		-0.058422	0.511525	-0.857280	0.176368	0.850527	0.495477	0.982589	-0.122250	-0.139906
10698		-0.063174	0.501743	-0.862707	0.178284	0.856202	0.484905	0.981949	-0.123173	-0.143543
10699		-0.067675	0.491406	-0.868297	0.179726	0.862060	0.473869	0.981386	-0.123987	-0.146658
10700		-0.073375	0.480291	-0.874035	0.182488	0.868066	0.461691	0.980466	-0.125624	-0.151341
10701		-0.078145	0.466789	-0.880909	0.188888	0.874539	0.446657	0.978884	-0.131489	-0.156512
10702		-0.076381	0.452161	-0.888660	0.197598	0.880451	0.431000	0.977303	-0.142677	-0.156596
10703		-0.067884	0.440461	-0.895201	0.205348	0.884229	0.419490	0.976332	-0.155351	-0.150473
10704		-0.059503	0.430192	-0.900774	0.214829	0.886747	0.409302	0.974837	-0.169158	-0.145182
10705		-0.050466	0.418229	-0.906938	0.223004	0.889887	0.397957	0.973510	-0.182167	-0.138176
10706		-0.043896	0.402964	-0.914163	0.230803	0.894381	0.383162	0.972010	-0.194172	-0.132265
10707		-0.041023	0.383474	-0.922640	0.236416	0.900921	0.363936	0.970786	-0.203197	-0.127618
10708		-0.041405	0.359692	-0.932152	0.239978	0.909222	0.340184	0.969895	-0.209611	-0.123965
10709		-0.043794	0.332343	-0.942141	0.242596	0.918357	0.312677	0.969139	-0.214866	-0.120843
10710		-0.046170	0.302732	-0.951957	0.243501	0.927638	0.283189	0.968801	-0.218728	-0.116544
10711		-0.047316	0.272412	-0.961017	0.240294	0.936945	0.253757	0.969546	-0.218920	-0.109791
10712		-0.045823	0.242940	-0.968958	0.234709	0.945442	0.225944	0.970985	-0.217070	-0.100343
10713		-0.041586	0.215109	-0.975704	0.225189	0.953440	0.200602	0.973427	-0.211375	-0.088090
10714		-0.036495	0.188162	-0.981460	0.212344	0.961147	0.176372	0.976513	-0.201970	-0.075032
10715		-0.028981	0.159521	-0.986769	0.191662	0.969753	0.151142	0.981033	-0.184746	-0.058679
10716		-0.017089	0.130771	-0.991265	0.159270	0.979107	0.126422	0.987087	-0.155718	-0.037560
10717		-0.003214	0.107693	-0.994179	0.126234	0.986275	0.106429	0.991995	-0.125157	-0.016764
10718		0.009666	0.097529	-0.995186	0.126831	0.987075	0.097965	0.991877	-0.127167	-0.002829
10719		0.026482	0.102021	-0.994430	0.124856	0.986651	0.104548	0.991821	-0.126929	0.013390
10720		0.043774	0.121603	-0.991613	0.142721	0.981623	0.126678	0.988794	-0.147069	0.025614
10721		0.053882	0.153290	-0.986711	0.156032	0.974716	0.159947	0.986281	-0.162577	0.028602
10722		0.059717	0.194054	-0.979172	0.167015	0.965152	0.201462	0.984144	-0.175567	0.025226
10723		0.063475	0.241502	-0.968322	0.178651	0.951856	0.249107	0.981863	-0.188804	0.017274
10724		0.066034	0.292812	-0.953887	0.179517	0.936889	0.300021	0.981536	-0.191050	0.009302
10725		0.068965	0.346099	-0.935660	0.160185	0.921882	0.352809	0.984675	-0.174210	0.008137
10726		0.076301	0.399273	-0.913651	0.117676	0.906313	0.405894	0.990116	-0.138485	0.022168
10727		0.085892	0.452150	-0.887797	0.062935	0.886848	0.457756	0.994315	-0.095191	0.047717
10728		0.099170	0.504070	-0.857951	0.007200	0.861815	0.507172	0.995044	-0.056474	0.081837
10729		0.117019	0.555116	-0.823500	-0.044810	0.831304	0.554009	0.992118	-0.027929	0.122153
10730		0.134892	0.604364	-0.785206	-0.090816	0.796654	0.597574	0.986690	-0.009299	0.162348
10731		0.153781	0.650956	-0.743376	-0.134657	0.759112	0.636880	0.978887	0.002161	0.204393
10732		0.173226	0.693748	-0.699076	-0.168031	0.720218	0.673091	0.970442	0.000869	0.241332
10733		0.193033	0.732721	-0.652578	-0.191558	0.680432	0.707332	0.962312	-0.011532	0.271704
10734		0.211813	0.767447	-0.605112	-0.206357	0.640321	0.739869	0.955276	-0.031845	0.293997
10735		0.228351	0.797685	-0.558170	-0.213534	0.600394	0.770669	0.949873	-0.056794	0.307434
10736		0.243408	0.823126	-0.513046	-0.215651	0.561643	0.798781	0.945646	-0.083791	0.314217
10737		0.258125	0.844506	-0.469235	-0.213052	0.523495	0.824962	0.942327	-0.112972	0.315051
10738		0.272285	0.862593	-0.426374	-0.208738	0.485516	0.848942	0.939302	-0.142154	0.312255
10739		0.282632	0.878247	-0.385747	-0.206419	0.448407	0.869668	0.936755	-0.166171	0.308021
10740		0.295372	0.890512	-0.346041	-0.208705	0.413596	0.886217	0.932308	-0.189543	0.308019
10741		0.311548	0.899106	-0.307484	-0.217680	0.382513	0.897941	0.924961	-0.212818	0.314889
10742		0.328085	0.904821	-0.271402	-0.228977	0.354909	0.906426	0.916477	-0.235240	0.323624
10743		0.345851	0.907914	-0.236811	-0.238311	0.329106	0.913727	0.907522	-0.259579	0.330187
10744		0.364429	0.908876	-0.202818	-0.246130	0.304059	0.920309	0.898115	-0.285468	0.334510
10745		0.380499	0.908972	-0.170266	-0.249544	0.278204	0.927540	0.890476	-0.310440	0.332685
10746		0.391690	0.909170	-0.141382	-0.249075	0.252696	0.934937	0.885743	-0.330991	0.325430
10747		0.400138	0.908967	-0.116914	-0.250291	0.231110	0.940182	0.881614	-0.346941	0.319982
10748		0.406424	0.908356	-0.098530	-0.253448	0.215688	0.942997	0.877829	-0.358285	0.317882
10749		0.411636	0.907255	-0.086282	-0.253428	0.204895	0.945406	0.875403	-0.367297	0.314266
10750		0.415995	0.905811	-0.080341	-0.249372	0.198592	0.947826	0.874506	-0.374257	0.308497
10751		0.419981	0.903954	-0.080520	-0.244037	0.197945	0.949349	0.874106	-0.379059	0.303731
10752		0.422687	0.902122	-0.086671	-0.232205	0.200246	0.951831	0.876023	-0.382201	0.294119
10753		0.423779	0.900505	-0.097474	-0.216243	0.205089	0.954556	0.879574	-0.383443	0.281640
10754		0.425073	0.898140	-0.112502	-0.201131	0.214903	0.955700	0.882530	-0.383615	0.271993
10755		0.425238	0.895458	-0.131638	-0.180051	0.226231	0.957289	0.886992	-0.383374	0.257430
10756		0.420205	0.893838	-0.156464	-0.151441	0.239085	0.959116	0.894703	-0.379330	0.235828
10757		0.413389	0.891408	-0.185745	-0.127582	0.258683	0.957500	0.901572	-0.372123	0.220664
10758		0.404835	0.887564	-0.219860	-0.108269	0.285282	0.952309	0.907957	-0.361724	0.211588
10759		0.392451	0.882574	-0.258930	-0.088454	0.316425	0.944484	0.915510	-0.347761	0.202249
10760		0.375489	0.876212	-0.302093	-0.071131	0.352226	0.933208	0.924093	-0.328921	0.194583
10761		0.356882	0.866932	-0.347942	-0.055261	0.391410	0.918556	0.932513	-0.308589	0.187595
10762		0.337329	0.854424	-0.395181	-0.039037	0.432121	0.900970	0.940577	-0.288497	0.179121
10763		0.316301	0.838886	-0.442972	-0.021085	0.473047	0.880785	0.948424	-0.269253	0.167313
10764		0.296572	0.819831	-0.489818	-0.003340	0.513780	0.857916	0.955005	-0.252798	0.155111
10765		0.278538	0.797436	-0.535269	0.014280	0.553824	0.832511	0.960319	-0.239530	0.142873
10766		0.261976	0.771840	-0.579337	0.030214	0.593449	0.804304	0.964601	-0.228212	0.132149
10767		0.245067	0.743679	-0.622000	0.045366	0.632064	0.773587	0.968444	-0.217798	0.121160
10768		0.227988	0.712567	-0.663529	0.058177	0.670289	0.739816	0.971924	-0.207271	0.111363
10769		0.210456	0.678004	-0.704286	0.073412	0.707427	0.702964	0.974843	-0.199646	0.099108
10770		0.190391	0.640553	-0.743938	0.104376	0.740296	0.664129	0.976144	-0.204093	0.074087
10771		0.168754	0.600360	-0.781722	0.131146	0.772369	0.621488	0.976894	-0.207398	0.051605
10772		0.149856	0.557813	-0.816326	0.141297	0.805092	0.576075	0.978559	-0.201672	0.041831
10773		0.132279	0.513590	-0.847778	0.145807	0.835908	0.529149	0.980430	-0.193607	0.035688
10774		0.116985	0.468879	-0.875481	0.147176	0.863616	0.482190	0.982168	-0.185259	0.032023
10775		0.103545	0.425430	-0.899048	0.142289	0.888274	0.436719	0.984394	-0.173144	0.031442
10776		0.093531	0.383597	-0.918752	0.135389	0.909325	0.393444	0.986368	-0.161188	0.033115
10777		0.086856	0.342930	-0.935337	0.128608	0.927169	0.351878	0.987885	-0.150855	0.036427
10778		0.083580	0.304747	-0.948759	0.126896	0.941085	0.313460	0.988389	-0.146592	0.039984
10779		0.079916	0.270519	-0.959392	0.131182	0.951245	0.279149	0.988132	-0.148163	0.040533
10780		0.071761	0.241311	-0.967791	0.137872	0.958578	0.249237	0.987847	-0.151316	0.035519
10781		0.060118	0.214825	-0.974800	0.150995	0.963372	0.221619	0.986705	-0.160513	0.025479
10782		0.045794	0.190171	-0.980682	0.175455	0.964920	0.195307	0.983422	-0.181010	0.010821
10783		0.035577	0.166069	-0.985472	0.209780	0.962885	0.169836	0.977101	-0.212775	-0.000581
10784		0.023898	0.144491	-0.989218	0.254542	0.956009	0.145789	0.966766	-0.255282	-0.013932
10785		0.010740	0.128860	-0.991605	0.294602	0.947239	0.126286	0.955560	-0.293485	-0.027789
10786		-0.003823	0.126540	-0.991954	0.330780	0.936281	0.118163	0.943700	-0.327667	-0.045436
10787		-0.022618	0.147795	-0.988759	0.383721	0.914546	0.127925	0.923172	-0.376514	-0.077398
10788		-0.040162	0.194976	-0.979985	0.324702	0.930093	0.171743	0.944963	-0.311306	-0.100664
10789		-0.038210	0.257211	-0.965600	0.304753	0.923270	0.233876	0.951665	-0.285333	-0.113664
10790		0.019452	0.273616	-0.961642	0.389438	0.883787	0.259342	0.920847	-0.379545	-0.089365
10791		0.014133	0.295771	-0.955154	0.327702	0.901121	0.283888	0.944675	-0.317018	-0.084189
10792		0.038499	0.293860	-0.955073	0.467488	0.839438	0.277126	0.883161	-0.457154	-0.105059
10793		0.023649	0.323179	-0.946042	0.517703	0.805581	0.288137	0.855234	-0.496583	-0.148259
10794		0.048864	0.341551	-0.938592	0.477329	0.817473	0.322327	0.877365	-0.463767	-0.123087
10795		0.060468	0.357212	-0.932064	0.508571	0.792457	0.336702	0.858894	-0.494380	-0.133750
10796		0.049014	0.381127	-0.923222	0.525694	0.776100	0.348301	0.849260	-0.502404	-0.162316
10797		0.059260	0.388407	-0.919581	0.485758	0.793556	0.366480	0.872082	-0.468411	-0.141646
10798		0.047925	0.396114	-0.916950	0.475095	0.798473	0.369765	0.878628	-0.453360	-0.149925
10799		0.024804	0.398854	-0.916679	0.448640	0.814995	0.366750	0.893368	-0.420356	-0.158727
10800		-0.011746	0.395479	-0.918400	0.411610	0.838951	0.356003	0.911284	-0.373841	-0.172638
10801		0.008253	0.387115	-0.921995	0.377344	0.852653	0.361378	0.926036	-0.350892	-0.139038
10802		0.035803	0.401906	-0.914981	0.370403	0.845021	0.385670	0.928181	-0.352720	-0.118613
10803		0.056715	0.420237	-0.905640	0.368915	0.834081	0.410135	0.927731	-0.357365	-0.107727
10804		0.075786	0.435782	-0.896856	0.374056	0.821331	0.430693	0.924304	-0.368115	-0.100762
10805		0.088312	0.442342	-0.892488	0.382768	0.812125	0.440387	0.919614	-0.380508	-0.097594
10806		0.093233	0.440497	-0.892900	0.391624	0.808294	0.439650	0.915390	-0.390671	-0.097149
10807		0.087825	0.431649	-0.897756	0.401399	0.809496	0.428480	0.911683	-0.397990	-0.102170
10808		0.079803	0.417981	-0.904944	0.408115	0.814563	0.412225	0.909436	-0.402218	-0.105580
10809		0.071099	0.401547	-0.913074	0.409011	0.823158	0.393853	0.909755	-0.401460	-0.105711
10810		0.061031	0.383919	-0.921348	0.406076	0.833674	0.374285	0.911799	-0.396981	-0.105021
10811		0.052322	0.364278	-0.929819	0.404061	0.843752	0.353296	0.913235	-0.394189	-0.103044
10812		0.046757	0.342804	-0.938243	0.407585	0.850976	0.331231	0.911970	-0.397901	-0.099933
10813		0.044139	0.319739	-0.946477	0.415164	0.855848	0.308484	0.908675	-0.406560	-0.094968
10814		0.044119	0.296067	-0.954148	0.423578	0.859438	0.286265	0.904785	-0.416785	-0.087490
10815		0.043420	0.272373	-0.961212	0.429505	0.863580	0.264110	0.902020	-0.424313	-0.079489
10816		0.041186	0.248863	-0.967663	0.430368	0.869618	0.241966	0.901713	-0.426417	-0.071287
10817		0.039300	0.225020	-0.973561	0.424669	0.878183	0.220117	0.904495	-0.422092	-0.061047
10818		0.038366	0.201583	-0.978720	0.415169	0.887688	0.199108	0.908935	-0.413973	-0.049634
10819		0.038520	0.178902	-0.983113	0.402356	0.897785	0.179140	0.914672	-0.402462	-0.037400
10820		0.039170	0.157045	-0.986814	0.387804	0.907774	0.159859	0.920909	-0.388952	-0.025345
10821		0.039800	0.136627	-0.989823	0.373381	0.916813	0.141563	0.926824	-0.375215	-0.014525
10822		0.043248	0.118547	-0.992006	0.356605	0.925696	0.126170	0.933254	-0.359211	-0.002240
10823		0.048164	0.106009	-0.993198	0.339769	0.933316	0.116095	0.939275	-0.343049	0.008933
10824		0.055482	0.100771	-0.993361	0.324528	0.939055	0.113387	0.944248	-0.328664	0.019398
10825		0.063631	0.104924	-0.992442	0.315178	0.941449	0.119741	0.946897	-0.320415	0.026835
10826		0.069811	0.116726	-0.990708	0.304082	0.943376	0.132576	0.950085	-0.310512	0.030364
10827		0.069877	0.136558	-0.988165	0.286818	0.946008	0.151014	0.955433	-0.293975	0.026937
10828		0.070945	0.161814	-0.984268	0.265616	0.948062	0.175007	0.961465	-0.273853	0.024280
10829		0.072812	0.191585	-0.978772	0.237675	0.949770	0.203589	0.968612	-0.247453	0.023620
10830		0.073383	0.225208	-0.971543	0.209818	0.948880	0.235802	0.974983	-0.221151	0.022379
10831		0.074092	0.261218	-0.962432	0.182024	0.945330	0.270590	0.980499	-0.195234	0.022494
10832		0.074080	0.297888	-0.951722	0.151725	0.939867	0.305988	0.985643	-0.167068	0.024428
10833		0.075888	0.332675	-0.939983	0.119906	0.932816	0.339819	0.989881	-0.138498	0.030900
10834		0.080222	0.363107	-0.928287	0.096497	0.924086	0.369803	0.992095	-0.119243	0.039093
10835		0.079082	0.389270	-0.917723	0.086277	0.914479	0.395329	0.993127	-0.110442	0.038734
10836		0.078159	0.409178	-0.909101	0.084803	0.905857	0.415009	0.993328	-0.109532	0.036101
10837		0.075297	0.422781	-0.903099	0.091230	0.898950	0.428445	0.992979	-0.114650	0.029118
10838		0.068850	0.430846	-0.899795	0.108014	0.893414	0.436056	0.991762	-0.127213	0.014974
10839		0.057657	0.433299	-0.899404	0.128248	0.890224	0.437097	0.990065	-0.140549	-0.004242
10840		0.046034	0.433026	-0.900205	0.136852	0.889930	0.435082	0.989521	-0.143223	-0.018294
10841		0.034929	0.433959	-0.900255	0.138638	0.889991	0.434391	0.989727	-0.139982	-0.029077
10842		0.024651	0.433374	-0.900877	0.140484	0.890707	0.432326	0.989776	-0.137216	-0.038925
10843		0.038123	0.431962	-0.901086	0.135211	0.891218	0.432952	0.990083	-0.138342	-0.024430
10844		0.049508	0.439368	-0.896942	0.132775	0.887177	0.441913	0.989909	-0.140970	-0.014415
10845		0.051815	0.449114	-0.891971	0.143520	0.880550	0.451701	0.988290	-0.151420	-0.018831
10846		0.053058	0.456761	-0.888006	0.154491	0.874797	0.459197	0.986568	-0.161553	-0.024150
10847		0.051487	0.461879	-0.885447	0.160688	0.871239	0.463812	0.985661	-0.166161	-0.029361
10848		0.048652	0.463892	-0.884555	0.166237	0.869491	0.465135	0.984885	-0.169675	-0.034813
10849		0.046479	0.462573	-0.885362	0.165702	0.870470	0.463491	0.985080	-0.168249	-0.036191
10850		0.045152	0.458973	-0.887302	0.158970	0.873589	0.459969	0.986250	-0.161823	-0.033519
10851		0.045220	0.453856	-0.889927	0.148683	0.877858	0.455256	0.987851	-0.152903	-0.027784
10852		0.046817	0.448120	-0.892747	0.134871	0.882707	0.450154	0.989757	-0.141480	-0.019112
10853		0.048963	0.442488	-0.895437	0.119587	0.887466	0.445088	0.991616	-0.128876	-0.009463
10854		0.050029	0.437412	-0.897868	0.105294	0.891674	0.440262	0.993182	-0.116567	-0.001447
10855		0.049706	0.433015	-0.900015	0.091295	0.895386	0.435831	0.994583	-0.103830	0.004975
10856		0.047832	0.429224	-0.901931	0.079399	0.898473	0.431789	0.995695	-0.092266	0.008896
10857		0.044492	0.425904	-0.903674	0.069960	0.901020	0.428098	0.996557	-0.082268	0.010292
10858		0.039534	0.422344	-0.905573	0.063021	0.903423	0.424093	0.997229	-0.073836	0.009099
10859		0.034232	0.417643	-0.907966	0.058061	0.906133	0.418989	0.997726	-0.067060	0.006770
10860		0.029566	0.411779	-0.910804	0.053674	0.909234	0.412811	0.998121	-0.061091	0.004780
10861		0.025917	0.405287	-0.913822	0.048089	0.912565	0.406094	0.998507	-0.054469	0.004162
10862		0.021209	0.398612	-0.916874	0.046444	0.915698	0.399175	0.998696	-0.051049	0.000908
10863		0.016501	0.391834	-0.919888	0.045927	0.918745	0.392171	0.998808	-0.048719	-0.002835
10864		0.012590	0.385215	-0.922741	0.044195	0.921698	0.385383	0.998944	-0.045633	-0.005421
10865		0.009175	0.378865	-0.925407	0.042029	0.924482	0.378903	0.999074	-0.042370	-0.007442
10866		0.005910	0.372497	-0.928014	0.038884	0.927243	0.372435	0.999226	-0.038286	-0.009004
10867		0.003201	0.365761	-0.930703	0.036004	0.930062	0.365633	0.999347	-0.034679	-0.010192
10868		0.000759	0.358436	-0.933554	0.034480	0.932990	0.358248	0.999405	-0.032461	-0.011651
10869		-0.002039	0.350415	-0.936592	0.034586	0.936059	0.350140	0.999400	-0.031679	-0.014028
10870		-0.005146	0.341628	-0.939821	0.036444	0.939273	0.341230	0.999322	-0.032495	-0.017284
10871		-0.007928	0.332143	-0.943196	0.038203	0.942637	0.331625	0.999239	-0.033404	-0.020162
10872		-0.010502	0.322179	-0.946621	0.039413	0.946070	0.321554	0.999168	-0.033932	-0.022634
10873		-0.012740	0.311785	-0.950067	0.038166	0.949603	0.311122	0.999190	-0.032297	-0.023998
10874		-0.014720	0.300955	-0.953525	0.035008	0.953199	0.300311	0.999279	-0.028961	-0.024567
10875		-0.016563	0.289613	-0.957001	0.031322	0.956812	0.289014	0.999372	-0.025188	-0.024919
10876		-0.017772	0.277419	-0.960585	0.026648	0.960526	0.276909	0.999487	-0.020676	-0.024463
10877		-0.017712	0.263915	-0.964383	0.022141	0.964402	0.263513	0.999598	-0.016685	-0.022925
10878		-0.016022	0.248719	-0.968443	0.018773	0.968472	0.248416	0.999695	-0.014200	-0.020186
10879		-0.014223	0.232311	-0.972537	0.016756	0.972555	0.232070	0.999758	-0.012995	-0.017725
10880		-0.011868	0.214906	-0.976563	0.015953	0.976548	0.214709	0.999802	-0.013031	-0.015018
10881		-0.009027	0.196549	-0.980453	0.014840	0.980411	0.196404	0.999849	-0.012777	-0.011767
10882		-0.007112	0.177546	-0.984087	0.014054	0.984032	0.177434	0.999876	-0.012569	-0.009494
10883		-0.005284	0.158280	-0.987380	0.012315	0.987329	0.158206	0.999910	-0.011323	-0.007166
10884		-0.000836	0.140990	-0.990011	0.007404	0.989985	0.140980	0.999972	-0.007212	-0.001872
10885		0.001005	0.127497	-0.991838	0.010890	0.991779	0.127501	0.999940	-0.010929	-0.000392
10886		-0.001477	0.123201	-0.992381	0.007054	0.992358	0.123188	0.999974	-0.006818	-0.002335
10887		-0.003037	0.127140	-0.991880	0.002665	0.991882	0.127132	0.999992	-0.002257	-0.003351
10888		0.001369	0.127621	-0.991822	0.016617	0.991683	0.127626	0.999861	-0.016655	-0.000763
10889		0.009384	0.122996	-0.992363	0.012589	0.992313	0.123108	0.999877	-0.013648	0.007764
10890		0.011068	0.115890	-0.993200	-0.000973	0.993262	0.115886	0.999938	-0.000316	0.011107
10891		0.008030	0.107301	-0.994194	0.007566	0.994191	0.107362	0.999939	-0.008385	0.007171
10892		0.005159	0.098531	-0.995121	0.028903	0.994703	0.098640	0.999569	-0.029271	0.002283
10893		0.002888	0.090959	-0.995850	0.042934	0.994925	0.090999	0.999074	-0.043018	-0.001031
10894		0.002975	0.085133	-0.996365	0.051965	0.995010	0.085173	0.998644	-0.052029	-0.001464
10895		0.003764	0.080683	-0.996733	0.059747	0.994941	0.080764	0.998206	-0.059855	-0.001076
10896		0.004475	0.076642	-0.997049	0.065484	0.994896	0.076771	0.997844	-0.065634	-0.000567
10897		0.004323	0.072537	-0.997356	0.068055	0.995032	0.072663	0.997672	-0.068189	-0.000635
10898		0.002911	0.068623	-0.997638	0.068247	0.995303	0.068662	0.997664	-0.068286	-0.001786
10900		0.000538	0.061420	-0.998112	0.064717	0.996018	0.061326	0.997904	-0.064627	-0.003440
10901		-0.000090	0.058014	-0.998316	0.061307	0.996438	0.057899	0.998119	-0.061198	-0.003646
10902		-0.001316	0.054636	-0.998505	0.058220	0.996817	0.054467	0.998303	-0.058062	-0.004493
10903		-0.002926	0.051541	-0.998667	0.056488	0.997085	0.051293	0.998399	-0.056263	-0.005829
10904		-0.004519	0.048850	-0.998796	0.056819	0.997205	0.048515	0.998374	-0.056531	-0.007282
10905		-0.005728	0.046457	-0.998904	0.058227	0.997241	0.046046	0.998287	-0.057900	-0.008418
10906		-0.006678	0.044223	-0.998999	0.060007	0.997239	0.043744	0.998176	-0.059655	-0.009313
10907		-0.007402	0.041986	-0.999091	0.061588	0.997241	0.041452	0.998074	-0.061225	-0.009968
10909		-0.009933	0.037239	-0.999257	0.063469	0.997315	0.036535	0.997934	-0.063059	-0.012270
10910		-0.011040	0.034642	-0.999339	0.063468	0.997409	0.033874	0.997923	-0.063052	-0.013210
10911		-0.012044	0.031920	-0.999418	0.062981	0.997530	0.031100	0.997942	-0.062569	-0.014025
10912		-0.013037	0.029102	-0.999491	0.062125	0.997669	0.028239	0.997983	-0.061725	-0.014815
10913		-0.013910	0.026283	-0.999558	0.061130	0.997807	0.025386	0.998033	-0.060750	-0.015486
10914		-0.014719	0.023456	-0.999617	0.060066	0.997940	0.022532	0.998086	-0.059711	-0.016097
10915		-0.015519	0.020520	-0.999669	0.058968	0.998068	0.019571	0.998139	-0.058645	-0.016699
10916		-0.016317	0.017460	-0.999714	0.057806	0.998192	0.016490	0.998194	-0.057520	-0.017297
10917		-0.017183	0.014273	-0.999750	0.056577	0.998310	0.013280	0.998250	-0.056334	-0.017961
10918		-0.018122	0.011107	-0.999774	0.055422	0.998412	0.010088	0.998299	-0.055227	-0.018709
10919		-0.019000	0.008098	-0.999787	0.054200	0.998505	0.007057	0.998349	-0.054054	-0.019410
10920		-0.019869	0.005383	-0.999788	0.053151	0.998577	0.004321	0.998389	-0.053054	-0.020126
10921		-0.020947	0.002827	-0.999777	0.052897	0.998599	0.001715	0.998380	-0.052849	-0.021067
10922		-0.022047	0.000366	-0.999757	0.053683	0.998558	-0.000818	0.998315	-0.053688	-0.022035
10923		-0.023340	-0.001902	-0.999726	0.054896	0.998487	-0.003182	0.998219	-0.054956	-0.023200
10924		-0.024707	-0.003890	-0.999687	0.055943	0.998420	-0.005268	0.998128	-0.056055	-0.024450
10925		-0.026045	-0.005596	-0.999645	0.056993	0.998349	-0.007074	0.998035	-0.057157	-0.025683
10926		-0.027297	-0.007024	-0.999603	0.058327	0.998260	-0.008607	0.997924	-0.058538	-0.026840
10927		-0.028334	-0.008272	-0.999564	0.060104	0.998142	-0.009964	0.997790	-0.060360	-0.027784
10928		-0.028713	-0.009669	-0.999541	0.061094	0.998067	-0.011410	0.997719	-0.061394	-0.028067
10929		-0.028729	-0.011457	-0.999522	0.060503	0.998081	-0.013180	0.997755	-0.060852	-0.027980
10930		-0.028581	-0.013482	-0.999501	0.059129	0.998135	-0.015154	0.997841	-0.059533	-0.027730
10931		-0.028425	-0.015460	-0.999476	0.057237	0.998215	-0.017068	0.997956	-0.057692	-0.027490
10932		-0.028165	-0.017284	-0.999454	0.054637	0.998329	-0.018804	0.998109	-0.055136	-0.027173
10933		-0.027384	-0.018955	-0.999445	0.051501	0.998466	-0.020347	0.998297	-0.052030	-0.026366
10934		-0.026630	-0.020513	-0.999435	0.048421	0.998589	-0.021785	0.998472	-0.048974	-0.025599
10935		-0.026211	-0.022077	-0.999413	0.046031	0.998669	-0.023268	0.998596	-0.046614	-0.025160
10936		-0.026148	-0.023696	-0.999377	0.044521	0.998699	-0.024845	0.998666	-0.045143	-0.025059
10937		-0.026224	-0.025234	-0.999338	0.043360	0.998712	-0.026356	0.998715	-0.044023	-0.025096
10938		-0.026206	-0.026690	-0.999300	0.042429	0.998713	-0.027787	0.998756	-0.043127	-0.025040
10939		-0.026313	-0.027986	-0.999262	0.041916	0.998698	-0.029074	0.998775	-0.042650	-0.025106
10940		-0.026579	-0.029111	-0.999223	0.041724	0.998673	-0.030205	0.998776	-0.042494	-0.025329
10941		-0.027009	-0.030016	-0.999184	0.041853	0.998639	-0.031131	0.998759	-0.042660	-0.025716
10943		-0.027967	-0.030874	-0.999132	0.042979	0.998561	-0.032060	0.998684	-0.043838	-0.026600
10944		-0.028469	-0.030976	-0.999115	0.044116	0.998507	-0.032214	0.998621	-0.044994	-0.027060
10945		-0.029106	-0.030931	-0.999098	0.045450	0.998446	-0.032235	0.998543	-0.046348	-0.027655
10946		-0.029837	-0.030826	-0.999079	0.047084	0.998371	-0.032210	0.998445	-0.048002	-0.028337
10947		-0.029951	-0.031121	-0.999067	0.048568	0.998289	-0.032553	0.998371	-0.049498	-0.028388
10948		-0.030317	-0.031842	-0.999033	0.049939	0.998196	-0.033331	0.998292	-0.050901	-0.028672
10949		-0.030760	-0.032618	-0.998994	0.051200	0.998104	-0.034165	0.998215	-0.052199	-0.029031
10950		-0.031151	-0.033299	-0.998960	0.052406	0.998016	-0.034901	0.998140	-0.053439	-0.029344
10951		-0.031307	-0.033944	-0.998933	0.053044	0.997958	-0.035573	0.998101	-0.054101	-0.029442
10952		-0.031500	-0.034514	-0.998908	0.052925	0.997944	-0.036149	0.998102	-0.054006	-0.029608
10953		-0.031785	-0.035042	-0.998880	0.053066	0.997917	-0.036696	0.998085	-0.054173	-0.029859
10954		-0.032232	-0.035519	-0.998849	0.053236	0.997889	-0.037202	0.998062	-0.054374	-0.030273
10955		-0.032708	-0.036023	-0.998816	0.053263	0.997867	-0.037733	0.998045	-0.054434	-0.030719
10956		-0.033120	-0.036476	-0.998786	0.053565	0.997833	-0.038218	0.998015	-0.054766	-0.031094
10957		-0.033426	-0.036970	-0.998757	0.054482	0.997762	-0.038756	0.997955	-0.055709	-0.031337
10958		-0.033839	-0.037363	-0.998729	0.056056	0.997657	-0.039222	0.997854	-0.057312	-0.031665
10959		-0.034426	-0.037685	-0.998696	0.057837	0.997539	-0.039635	0.997732	-0.059126	-0.032162
10960		-0.035206	-0.037862	-0.998663	0.059853	0.997408	-0.039925	0.997586	-0.061179	-0.032848
10961		-0.035863	-0.037890	-0.998638	0.062015	0.997271	-0.040065	0.997431	-0.063367	-0.033415
10962		-0.036348	-0.037767	-0.998625	0.064093	0.997140	-0.040044	0.997282	-0.065460	-0.033823
10963		-0.036767	-0.037600	-0.998616	0.065884	0.997027	-0.039966	0.997150	-0.067262	-0.034181
10964		-0.037165	-0.037419	-0.998608	0.067484	0.996923	-0.039868	0.997028	-0.068872	-0.034525
10965		-0.037535	-0.037215	-0.998602	0.068760	0.996842	-0.039734	0.996927	-0.070155	-0.034857
10966		-0.037870	-0.037005	-0.998597	0.069498	0.996797	-0.039574	0.996863	-0.070899	-0.035177
10967		-0.038120	-0.036984	-0.998589	0.069530	0.996795	-0.039571	0.996851	-0.070941	-0.035426
10968		-0.038234	-0.037347	-0.998571	0.069194	0.996804	-0.039931	0.996870	-0.070622	-0.035528
10969		-0.038278	-0.037892	-0.998548	0.068951	0.996799	-0.040469	0.996885	-0.070400	-0.035543
10970		-0.038282	-0.038493	-0.998525	0.068863	0.996781	-0.041066	0.996891	-0.070333	-0.035508
10971		-0.038226	-0.039041	-0.998506	0.068872	0.996757	-0.041609	0.996893	-0.070359	-0.035414
10972		-0.038118	-0.039515	-0.998492	0.068677	0.996752	-0.042068	0.996910	-0.070177	-0.035280
10973		-0.038051	-0.039939	-0.998477	0.068448	0.996750	-0.042478	0.996929	-0.069960	-0.035193
10974		-0.038260	-0.040409	-0.998450	0.068241	0.996744	-0.042955	0.996935	-0.069779	-0.035378
10975		-0.038554	-0.040923	-0.998418	0.068307	0.996716	-0.043491	0.996919	-0.069876	-0.035632
10976		-0.038875	-0.041455	-0.998384	0.068432	0.996683	-0.044049	0.996898	-0.070033	-0.035910
10977		-0.039108	-0.041955	-0.998354	0.068565	0.996651	-0.044570	0.996880	-0.070195	-0.036100
10978		-0.039343	-0.042478	-0.998322	0.069077	0.996590	-0.045127	0.996835	-0.070736	-0.036274
10979		-0.039570	-0.042978	-0.998292	0.069844	0.996512	-0.045670	0.996773	-0.071532	-0.036430
10980		-0.039950	-0.043421	-0.998258	0.070568	0.996438	-0.046166	0.996707	-0.072290	-0.036743
10981		-0.040341	-0.043745	-0.998228	0.071427	0.996359	-0.046549	0.996630	-0.073178	-0.037070
10982		-0.040752	-0.043935	-0.998203	0.071989	0.996307	-0.046791	0.996573	-0.073766	-0.037439
10983		-0.041056	-0.043935	-0.998190	0.072464	0.996271	-0.046831	0.996526	-0.074255	-0.037720
10984		-0.041323	-0.043858	-0.998183	0.072848	0.996245	-0.046788	0.996487	-0.074649	-0.037973
10985		-0.041448	-0.043844	-0.998178	0.073111	0.996225	-0.046794	0.996462	-0.074917	-0.038086
10986		-0.041601	-0.043907	-0.998169	0.073190	0.996216	-0.046871	0.996450	-0.075006	-0.038230
10987		-0.041715	-0.044012	-0.998160	0.072901	0.996232	-0.046973	0.996466	-0.074727	-0.038349
10988		-0.041895	-0.044087	-0.998149	0.072511	0.996257	-0.047047	0.996487	-0.074348	-0.038542
10989		-0.042022	-0.043986	-0.998148	0.072195	0.996285	-0.046943	0.996505	-0.074034	-0.038690
10990		-0.042142	-0.043822	-0.998150	0.072130	0.996297	-0.046786	0.996505	-0.073969	-0.038825
10991		-0.042210	-0.043509	-0.998161	0.072265	0.996302	-0.046484	0.996492	-0.074095	-0.038910
10992		-0.042283	-0.043152	-0.998173	0.072616	0.996292	-0.046147	0.996463	-0.074434	-0.038993
10993		-0.042331	-0.042812	-0.998186	0.073091	0.996272	-0.045829	0.996427	-0.074898	-0.039044
10994		-0.042390	-0.042360	-0.998203	0.073766	0.996241	-0.045409	0.996374	-0.075558	-0.039106
10995		-0.042407	-0.041892	-0.998222	0.074651	0.996195	-0.044978	0.996308	-0.076426	-0.039118
10996		-0.042465	-0.041415	-0.998239	0.075462	0.996154	-0.044538	0.996244	-0.077220	-0.039177
10997		-0.042551	-0.040898	-0.998257	0.076136	0.996124	-0.044056	0.996189	-0.077878	-0.039272
10998		-0.042631	-0.040363	-0.998275	0.076830	0.996092	-0.043556	0.996132	-0.078554	-0.039364
10999		-0.042646	-0.039858	-0.998295	0.077372	0.996071	-0.043075	0.996090	-0.079077	-0.039395
11000		-0.042677	-0.039419	-0.998311	0.077445	0.996084	-0.042642	0.996083	-0.079134	-0.039458
11001		-0.042606	-0.038991	-0.998331	0.077407	0.996106	-0.042208	0.996089	-0.079076	-0.039422
11002		-0.042466	-0.038546	-0.998354	0.077246	0.996138	-0.041746	0.996107	-0.078892	-0.039325
11003		-0.042280	-0.038130	-0.998378	0.076907	0.996182	-0.041303	0.996141	-0.078528	-0.039186
11004		-0.042063	-0.037668	-0.998405	0.076581	0.996228	-0.040812	0.996176	-0.078176	-0.039020
11005		-0.041839	-0.037231	-0.998430	0.076334	0.996266	-0.040349	0.996204	-0.077902	-0.038840
11006		-0.041383	-0.036918	-0.998461	0.075827	0.996319	-0.039982	0.996262	-0.077364	-0.038431
11007		-0.040935	-0.036706	-0.998487	0.074925	0.996399	-0.039700	0.996349	-0.076437	-0.038037
11008		-0.040517	-0.036473	-0.998513	0.073795	0.996495	-0.039394	0.996450	-0.075281	-0.037684
11009		-0.040060	-0.036204	-0.998541	0.072820	0.996580	-0.039054	0.996540	-0.074279	-0.037287
