// Start Time: Unknown
// Update Rate: 100.0Hz
// Filter Profile: human (46.1)
// Option Flags: AHS Disabled ICC Disabled 
// Firmware Version: 4.0.2
PacketCounter	SampleTimeFine	Mat[1][1]	Mat[2][1]	Mat[3][1]	Mat[1][2]	Mat[2][2]	Mat[3][2]	Mat[1][3]	Mat[2][3]	Mat[3][3]
16630		-0.037967	-0.027024	-0.998914	-0.632759	-0.773042	0.044964	-0.773417	0.633779	0.012251
16631		-0.037419	-0.026257	-0.998955	-0.631602	-0.774043	0.044004	-0.774390	0.632588	0.012380
16632		-0.036862	-0.025586	-0.998993	-0.630224	-0.775216	0.043110	-0.775538	0.631178	0.012451
16633		-0.036252	-0.024879	-0.999033	-0.628658	-0.776539	0.042151	-0.776836	0.629578	0.012511
16634		-0.035762	-0.024062	-0.999071	-0.627246	-0.777731	0.041184	-0.777999	0.628136	0.012720
16635		-0.035185	-0.023237	-0.999111	-0.625941	-0.778836	0.040157	-0.779076	0.626798	0.012858
16636		-0.034672	-0.022364	-0.999149	-0.624718	-0.779869	0.039134	-0.780081	0.625543	0.013068
16637		-0.034144	-0.021511	-0.999185	-0.623713	-0.780724	0.038121	-0.780908	0.624506	0.013240
16639		-0.033153	-0.019790	-0.999254	-0.622078	-0.782121	0.036129	-0.782253	0.622812	0.013619
16640		-0.032649	-0.018923	-0.999288	-0.621463	-0.782655	0.035125	-0.782763	0.622168	0.013793
16641		-0.032215	-0.018050	-0.999318	-0.620971	-0.783089	0.034163	-0.783171	0.621648	0.014019
16642		-0.031743	-0.017224	-0.999348	-0.620656	-0.783380	0.033216	-0.783441	0.621305	0.014176
16643		-0.031335	-0.016458	-0.999373	-0.620377	-0.783636	0.032357	-0.783677	0.621002	0.014345
16645		-0.030487	-0.015231	-0.999419	-0.619917	-0.784060	0.030860	-0.784075	0.620498	0.014461
16646		-0.030128	-0.014687	-0.999438	-0.619600	-0.784336	0.030204	-0.784339	0.620162	0.014531
16647		-0.029800	-0.014208	-0.999455	-0.619450	-0.784477	0.029622	-0.784471	0.619995	0.014576
16648		-0.029522	-0.013813	-0.999469	-0.619373	-0.784556	0.029138	-0.784541	0.619904	0.014606
16649		-0.029233	-0.013524	-0.999481	-0.619272	-0.784651	0.028730	-0.784633	0.619790	0.014563
16650		-0.028997	-0.013262	-0.999492	-0.619209	-0.784713	0.028376	-0.784690	0.619717	0.014542
16651		-0.028825	-0.012962	-0.999500	-0.619205	-0.784729	0.028034	-0.784700	0.619704	0.014594
16652		-0.028699	-0.012711	-0.999507	-0.619124	-0.784802	0.027758	-0.784768	0.619616	0.014654
16653		-0.028548	-0.012475	-0.999515	-0.619024	-0.784892	0.027477	-0.784853	0.619508	0.014685
16654		-0.028450	-0.012316	-0.999519	-0.618845	-0.785039	0.027288	-0.784998	0.619323	0.014713
16655		-0.028330	-0.012191	-0.999524	-0.618678	-0.785177	0.027113	-0.785134	0.619152	0.014702
16656		-0.028235	-0.012035	-0.999529	-0.618509	-0.785316	0.026928	-0.785270	0.618978	0.014730
16657		-0.028155	-0.011858	-0.999533	-0.618405	-0.785404	0.026738	-0.785355	0.618869	0.014780
16658		-0.028027	-0.011688	-0.999539	-0.618310	-0.785487	0.026523	-0.785434	0.618768	0.014788
16659		-0.027912	-0.011503	-0.999544	-0.618199	-0.785581	0.026304	-0.785526	0.618651	0.014816
16660		-0.027840	-0.011293	-0.999549	-0.618184	-0.785600	0.026094	-0.785540	0.618631	0.014890
16661		-0.027705	-0.011023	-0.999555	-0.618184	-0.785610	0.025798	-0.785545	0.618624	0.014951
16662		-0.027579	-0.010789	-0.999561	-0.618171	-0.785629	0.025536	-0.785560	0.618604	0.014997
16663		-0.027445	-0.010561	-0.999568	-0.618154	-0.785651	0.025273	-0.785578	0.618580	0.015034
16664		-0.027319	-0.010334	-0.999573	-0.618051	-0.785740	0.025015	-0.785663	0.618471	0.015079
16665		-0.027187	-0.010048	-0.999580	-0.618015	-0.785778	0.024708	-0.785696	0.618427	0.015153
16666		-0.027054	-0.009776	-0.999586	-0.617937	-0.785848	0.024410	-0.785762	0.618342	0.015220
16667		-0.026870	-0.009532	-0.999593	-0.617841	-0.785934	0.024103	-0.785844	0.618237	0.015229
16668		-0.026755	-0.009282	-0.999599	-0.617663	-0.786081	0.023832	-0.785987	0.618053	0.015299
16669		-0.026647	-0.009029	-0.999604	-0.617446	-0.786260	0.023561	-0.786162	0.617830	0.015376
16670		-0.026577	-0.008860	-0.999607	-0.617140	-0.786506	0.023379	-0.786404	0.617520	0.015436
16671		-0.026483	-0.008680	-0.999612	-0.616901	-0.786699	0.023175	-0.786595	0.617275	0.015479
16672		-0.026405	-0.008502	-0.999615	-0.616668	-0.786888	0.022982	-0.786780	0.617037	0.015535
16673		-0.026352	-0.008313	-0.999618	-0.616474	-0.787045	0.022796	-0.786934	0.616839	0.015615
16674		-0.026318	-0.008122	-0.999621	-0.616347	-0.787150	0.022623	-0.787035	0.616708	0.015710
16675		-0.026264	-0.007962	-0.999623	-0.616312	-0.787182	0.022463	-0.787064	0.616669	0.015767
16676		-0.026283	-0.007802	-0.999624	-0.616370	-0.787140	0.022350	-0.787018	0.616726	0.015880
16677		-0.026222	-0.007717	-0.999626	-0.616315	-0.787185	0.022244	-0.787063	0.616668	0.015885
16678		-0.026126	-0.007764	-0.999629	-0.616061	-0.787385	0.022217	-0.787265	0.616413	0.015788
16679		-0.026125	-0.007663	-0.999629	-0.616101	-0.787356	0.022137	-0.787234	0.616451	0.015848
16680		-0.026105	-0.007524	-0.999631	-0.616246	-0.787246	0.022019	-0.787121	0.616593	0.015915
16681		-0.026018	-0.007468	-0.999634	-0.616329	-0.787184	0.021923	-0.787059	0.616673	0.015878
16682		-0.025988	-0.007367	-0.999635	-0.616338	-0.787179	0.021825	-0.787053	0.616680	0.015917
16683		-0.025941	-0.007194	-0.999638	-0.616578	-0.786996	0.021664	-0.786867	0.616916	0.015980
16684		-0.025957	-0.007025	-0.999638	-0.616728	-0.786881	0.021544	-0.786748	0.617065	0.016092
16685		-0.025892	-0.006910	-0.999641	-0.616790	-0.786837	0.021415	-0.786702	0.617123	0.016111
16686		-0.025833	-0.006785	-0.999643	-0.616851	-0.786792	0.021281	-0.786656	0.617181	0.016140
16687		-0.025813	-0.006571	-0.999645	-0.617142	-0.786569	0.021106	-0.786428	0.617468	0.016249
16688		-0.025801	-0.006330	-0.999647	-0.617391	-0.786378	0.020914	-0.786233	0.617713	0.016382
16689		-0.025759	-0.006092	-0.999650	-0.617749	-0.786103	0.020709	-0.785953	0.618066	0.016486
16690		-0.025705	-0.005871	-0.999652	-0.618175	-0.785773	0.020510	-0.785620	0.618487	0.016569
16691		-0.025674	-0.005656	-0.999654	-0.618640	-0.785411	0.020332	-0.785255	0.618949	0.016666
16692		-0.025614	-0.005406	-0.999657	-0.619036	-0.785105	0.020107	-0.784945	0.619339	0.016763
16693		-0.025563	-0.005219	-0.999660	-0.619439	-0.784792	0.019937	-0.784629	0.619738	0.016828
16694		-0.025521	-0.005018	-0.999662	-0.619645	-0.784634	0.019758	-0.784468	0.619939	0.016916
16695		-0.025473	-0.004849	-0.999664	-0.619821	-0.784498	0.019599	-0.784330	0.620112	0.016978
16696		-0.025458	-0.004700	-0.999665	-0.619973	-0.784382	0.019476	-0.784210	0.620261	0.017055
16697		-0.025461	-0.004542	-0.999665	-0.620005	-0.784359	0.019355	-0.784185	0.620290	0.017155
16698		-0.025380	-0.004534	-0.999668	-0.619840	-0.784491	0.019295	-0.784318	0.620124	0.017100
16699		-0.025313	-0.004471	-0.999670	-0.619685	-0.784616	0.019201	-0.784443	0.619966	0.017090
16700		-0.025237	-0.004408	-0.999672	-0.619551	-0.784724	0.019101	-0.784551	0.619830	0.017073
16701		-0.025090	-0.004319	-0.999676	-0.619396	-0.784850	0.018937	-0.784678	0.619670	0.017017
16702		-0.024964	-0.004125	-0.999680	-0.619376	-0.784872	0.018705	-0.784698	0.619645	0.017039
16703		-0.024814	-0.003936	-0.999684	-0.619492	-0.784785	0.018467	-0.784610	0.619755	0.017036
16704		-0.024707	-0.003733	-0.999688	-0.619569	-0.784731	0.018243	-0.784554	0.619826	0.017076
16705		-0.024582	-0.003443	-0.999692	-0.619692	-0.784640	0.017941	-0.784460	0.619943	0.017154
16706		-0.024457	-0.003127	-0.999696	-0.619738	-0.784611	0.017616	-0.784427	0.619981	0.017251
16707		-0.024297	-0.002750	-0.999701	-0.619839	-0.784540	0.017223	-0.784353	0.620072	0.017357
16708		-0.024136	-0.002374	-0.999706	-0.619654	-0.784694	0.016823	-0.784504	0.619878	0.017468
16709		-0.024001	-0.001925	-0.999710	-0.619634	-0.784719	0.016388	-0.784523	0.619848	0.017641
16710		-0.023917	-0.001395	-0.999713	-0.619850	-0.784559	0.015924	-0.784356	0.620053	0.017900
16711		-0.023776	-0.000853	-0.999717	-0.619965	-0.784478	0.015414	-0.784269	0.620156	0.018123
16712		-0.023679	-0.000274	-0.999720	-0.620056	-0.784416	0.014901	-0.784200	0.620235	0.018404
16713		-0.023516	0.000308	-0.999723	-0.620190	-0.784320	0.014347	-0.784099	0.620356	0.018635
16714		-0.023390	0.000932	-0.999726	-0.620260	-0.784275	0.013780	-0.784048	0.620412	0.018922
16715		-0.023263	0.001629	-0.999728	-0.620475	-0.784116	0.013160	-0.783881	0.620613	0.019252
16716		-0.023149	0.002285	-0.999729	-0.620683	-0.783961	0.012581	-0.783720	0.620806	0.019566
16717		-0.022987	0.002915	-0.999732	-0.620970	-0.783743	0.011993	-0.783497	0.621079	0.019826
16718		-0.022896	0.003574	-0.999731	-0.621283	-0.783503	0.011428	-0.783252	0.621378	0.020160
16719		-0.022792	0.004185	-0.999731	-0.621399	-0.783418	0.010888	-0.783162	0.621481	0.020456
16720		-0.022723	0.004812	-0.999730	-0.621394	-0.783430	0.010353	-0.783169	0.621461	0.020792
16721		-0.022607	0.005418	-0.999730	-0.621263	-0.783541	0.009802	-0.783276	0.621317	0.021080
16722		-0.022505	0.005985	-0.999729	-0.620638	-0.784042	0.009277	-0.783774	0.620678	0.021360
16723		-0.022351	0.006542	-0.999729	-0.620146	-0.784438	0.008732	-0.784168	0.620173	0.021590
16724		-0.022217	0.007210	-0.999727	-0.619738	-0.784767	0.008112	-0.784494	0.619749	0.021904
16725		-0.022062	0.007868	-0.999726	-0.619231	-0.785173	0.007486	-0.784899	0.619226	0.022194
16726		-0.021897	0.008587	-0.999723	-0.618833	-0.785493	0.006807	-0.785217	0.618811	0.022514
16727		-0.021765	0.009370	-0.999719	-0.618398	-0.785841	0.006098	-0.785563	0.618357	0.022899
16728		-0.021647	0.010306	-0.999713	-0.617807	-0.786312	0.005271	-0.786032	0.617744	0.023388
16729		-0.021519	0.011487	-0.999702	-0.617362	-0.786667	0.004250	-0.786385	0.617270	0.024020
16730		-0.021366	0.012881	-0.999689	-0.617008	-0.786951	0.003047	-0.786667	0.616881	0.024762
16731		-0.021146	0.014481	-0.999672	-0.616952	-0.786999	0.001650	-0.786716	0.616784	0.025576
16732		-0.020819	0.016112	-0.999653	-0.616905	-0.787038	0.000163	-0.786762	0.616695	0.026325
16733		-0.020458	0.018052	-0.999628	-0.616924	-0.787021	-0.001587	-0.786757	0.616662	0.027238
16734		-0.020103	0.020272	-0.999592	-0.616920	-0.787018	-0.003554	-0.786769	0.616597	0.028328
16735		-0.019632	0.022873	-0.999546	-0.616743	-0.787143	-0.005899	-0.786920	0.616347	0.029560
16736		-0.019105	0.025830	-0.999484	-0.616466	-0.787335	-0.008563	-0.787150	0.615984	0.030966
16737		-0.018519	0.029265	-0.999400	-0.616282	-0.787439	-0.011639	-0.787308	0.615697	0.032619
16738		-0.017834	0.033170	-0.999291	-0.616172	-0.787466	-0.015143	-0.787409	0.615465	0.034482
16739		-0.017014	0.037571	-0.999149	-0.615879	-0.787609	-0.019129	-0.787657	0.615029	0.036540
16741		-0.015106	0.048148	-0.998726	-0.615077	-0.787945	-0.028683	-0.788322	0.613860	0.041517
16742		-0.013861	0.054501	-0.998418	-0.615022	-0.787756	-0.034463	-0.788388	0.613571	0.044438
16743		-0.012338	0.061478	-0.998032	-0.614838	-0.787592	-0.040915	-0.788557	0.613123	0.047516
16744		-0.010605	0.069454	-0.997529	-0.614719	-0.787267	-0.048279	-0.788675	0.612688	0.051044
16745		-0.008583	0.078641	-0.996866	-0.614545	-0.786836	-0.056781	-0.788835	0.612131	0.055081
16746		-0.005892	0.089266	-0.995990	-0.614216	-0.786302	-0.066839	-0.789116	0.611359	0.059461
16747		-0.002577	0.101607	-0.994821	-0.614096	-0.785306	-0.078617	-0.789227	0.610713	0.064420
16748		0.001569	0.115243	-0.993336	-0.614969	-0.783186	-0.091834	-0.788550	0.611015	0.069642
16749		0.006696	0.129580	-0.991546	-0.616173	-0.780425	-0.106151	-0.787582	0.611675	0.074618
16750		0.013227	0.144763	-0.989378	-0.617233	-0.777268	-0.121979	-0.786669	0.612290	0.079071
16751		0.020801	0.160722	-0.986781	-0.618490	-0.773400	-0.139005	-0.785517	0.613206	0.083318
16752		0.029977	0.177155	-0.983726	-0.620668	-0.768144	-0.157245	-0.783500	0.615282	0.086927
16753		0.040562	0.193570	-0.980248	-0.623268	-0.761890	-0.176241	-0.780956	0.618106	0.089742
16755		0.065016	0.226094	-0.971933	-0.629808	-0.746197	-0.215713	-0.774025	0.626157	0.093881
16756		0.076984	0.241201	-0.967417	-0.631842	-0.738780	-0.234476	-0.771264	0.629306	0.095527
16757		0.087540	0.255966	-0.962714	-0.632519	-0.732326	-0.252226	-0.769582	0.631015	0.097796
16758		0.096288	0.270404	-0.957920	-0.634743	-0.724630	-0.268353	-0.766701	0.633872	0.101864
16759		0.104556	0.283154	-0.953358	-0.632908	-0.720493	-0.283403	-0.767135	0.633019	0.103879
16761		0.122577	0.301124	-0.945674	-0.618972	-0.721640	-0.310016	-0.775789	0.623347	0.097931
16763		0.143067	0.311075	-0.939555	-0.609623	-0.720156	-0.331262	-0.779674	0.620168	0.086608
16764		0.151209	0.314114	-0.937266	-0.612884	-0.714134	-0.338210	-0.775570	0.625576	0.084531
16765		0.157013	0.315715	-0.935773	-0.618583	-0.707195	-0.342388	-0.769871	0.632613	0.084257
16766		0.161748	0.314546	-0.935360	-0.623426	-0.702174	-0.343936	-0.764969	0.638759	0.082521
16767		0.166146	0.310327	-0.935998	-0.626246	-0.699999	-0.343245	-0.761716	0.643194	0.078039
16768		0.169883	0.303013	-0.937722	-0.629085	-0.699099	-0.339873	-0.758546	0.647645	0.071856
16769		0.173336	0.292058	-0.940562	-0.636820	-0.695273	-0.333251	-0.751276	0.656733	0.065472
16770		0.175683	0.278617	-0.944197	-0.651491	-0.686138	-0.323688	-0.738034	0.672003	0.060974
16771		0.175882	0.264718	-0.948151	-0.672897	-0.670686	-0.312074	-0.718523	0.692896	0.060166
16772		0.172755	0.251907	-0.952207	-0.700887	-0.647793	-0.298533	-0.692035	0.718963	0.064649
16773		0.165748	0.241737	-0.956081	-0.730622	-0.621057	-0.283691	-0.662359	0.745555	0.073679
16775		0.143967	0.228628	-0.962810	-0.783550	-0.567921	-0.252021	-0.604419	0.790693	0.097380
16776		0.129839	0.222932	-0.966149	-0.805897	-0.543932	-0.233812	-0.577643	0.808974	0.109037
16777		0.113995	0.216725	-0.969554	-0.821449	-0.528332	-0.214680	-0.558773	0.820911	0.117802
16778		0.095442	0.213136	-0.972350	-0.834669	-0.515135	-0.194843	-0.542420	0.830186	0.128732
16779		0.075448	0.214208	-0.973870	-0.852291	-0.493105	-0.174490	-0.517598	0.843186	0.145364
16780		0.056870	0.221123	-0.973586	-0.865926	-0.474448	-0.158339	-0.496928	0.852059	0.164495
16781		0.039709	0.233759	-0.971483	-0.873493	-0.464002	-0.147353	-0.485215	0.854435	0.185762
16782		0.026802	0.245641	-0.968990	-0.869223	-0.473000	-0.143949	-0.493693	0.846127	0.200839
16783		0.016971	0.252520	-0.967443	-0.859223	-0.491132	-0.143267	-0.511320	0.833680	0.208636
16784		0.007223	0.258283	-0.966042	-0.848532	-0.509572	-0.142585	-0.529095	0.820747	0.215481
16785		-0.004505	0.266394	-0.963854	-0.839440	-0.524809	-0.141125	-0.543434	0.808461	0.225986
16786		-0.018604	0.278012	-0.960398	-0.834111	-0.533950	-0.138407	-0.551283	0.798503	0.241826
16787		-0.034661	0.292768	-0.955555	-0.833501	-0.536024	-0.133996	-0.551430	0.791812	0.262601
16788		-0.050869	0.307438	-0.950208	-0.835648	-0.534124	-0.128078	-0.546904	0.787524	0.284080
16789		-0.065918	0.319383	-0.945330	-0.840196	-0.528822	-0.120078	-0.538262	0.786347	0.303203
16790		-0.081008	0.329023	-0.940841	-0.845923	-0.521905	-0.109681	-0.527117	0.786994	0.320607
16791		-0.096492	0.336867	-0.936595	-0.849677	-0.517972	-0.098763	-0.518400	0.786273	0.336209
16792		-0.111887	0.343925	-0.932307	-0.849870	-0.519322	-0.089583	-0.514977	0.782317	0.350397
16793		-0.125989	0.350629	-0.928001	-0.846961	-0.525072	-0.083403	-0.516511	0.775473	0.363122
16794		-0.138484	0.357697	-0.923512	-0.841766	-0.533803	-0.080528	-0.521779	0.766229	0.375020
16795		-0.150246	0.366067	-0.918379	-0.836221	-0.542603	-0.079477	-0.527409	0.756027	0.387637
16796		-0.161387	0.376683	-0.912175	-0.832331	-0.548580	-0.079276	-0.530263	0.746438	0.402059
16797		-0.171225	0.390604	-0.904494	-0.830192	-0.551557	-0.081030	-0.530530	0.737030	0.418717
16798		-0.177378	0.408338	-0.895431	-0.824567	-0.558353	-0.091282	-0.537240	0.722151	0.435742
16799		-0.178629	0.433107	-0.883465	-0.813508	-0.570073	-0.114987	-0.553441	0.698165	0.454167
16800		-0.176226	0.468893	-0.865497	-0.810089	-0.568578	-0.143090	-0.559196	0.675913	0.480043
16801		-0.164983	0.499709	-0.850336	-0.801050	-0.570874	-0.180060	-0.575413	0.651455	0.494476
16802		-0.140276	0.512907	-0.846905	-0.749404	-0.614019	-0.247739	-0.647083	0.599922	0.470507
16803		-0.116344	0.523020	-0.844343	-0.724120	-0.626519	-0.288313	-0.679790	0.577862	0.451620
16804		-0.093755	0.528117	-0.843980	-0.715154	-0.625491	-0.311954	-0.692650	0.574329	0.436328
16806		-0.061862	0.534903	-0.842646	-0.760081	-0.572430	-0.307572	-0.646877	0.621452	0.441981
16807		-0.047432	0.541914	-0.839094	-0.776502	-0.548418	-0.310293	-0.628327	0.636841	0.446810
16808		-0.051767	0.562469	-0.825196	-0.805803	-0.511631	-0.298187	-0.589917	0.649509	0.479724
16809		-0.077302	0.592664	-0.801732	-0.845069	-0.465646	-0.262739	-0.529039	0.657209	0.536837
16810		-0.082892	0.606593	-0.790679	-0.828705	-0.482637	-0.283391	-0.553514	0.631749	0.542693
16811		-0.073890	0.608596	-0.790033	-0.778154	-0.530642	-0.335998	-0.623712	0.589940	0.512791
16812		-0.072191	0.606885	-0.791504	-0.742455	-0.562598	-0.363655	-0.665995	0.561403	0.491199
16813		-0.073661	0.595493	-0.799977	-0.711944	-0.593121	-0.375956	-0.698362	0.541845	0.467647
16814		-0.074500	0.574825	-0.814878	-0.694438	-0.616356	-0.371297	-0.715686	0.538220	0.445099
16815		-0.074961	0.547820	-0.833231	-0.701588	-0.622762	-0.346326	-0.708629	0.558624	0.431027
16816		-0.078866	0.519651	-0.850731	-0.726849	-0.614022	-0.307681	-0.682254	0.594088	0.426133
16817		-0.087173	0.493817	-0.865186	-0.755644	-0.598718	-0.265591	-0.649155	0.630620	0.425342
16818		-0.102936	0.477122	-0.872788	-0.784805	-0.578060	-0.223446	-0.611134	0.661968	0.433951
16819		-0.122923	0.467630	-0.875335	-0.807395	-0.559997	-0.185785	-0.577064	0.683904	0.446399
16820		-0.142980	0.457137	-0.877828	-0.817516	-0.554488	-0.155598	-0.557875	0.695391	0.452997
16821		-0.162118	0.444035	-0.881221	-0.814914	-0.563834	-0.134188	-0.556447	0.696365	0.453258
16822		-0.175908	0.433140	-0.883994	-0.805185	-0.579930	-0.123929	-0.566333	0.689979	0.450772
16823		-0.175952	0.423540	-0.888625	-0.788402	-0.601174	-0.130427	-0.589459	0.677645	0.439698
16824		-0.162469	0.411699	-0.896721	-0.767943	-0.623404	-0.147077	-0.619570	0.664735	0.417445
16825		-0.139385	0.400416	-0.905671	-0.749324	-0.640569	-0.167886	-0.647369	0.655240	0.389326
16826		-0.115559	0.395822	-0.911027	-0.744242	-0.641922	-0.184499	-0.657837	0.656704	0.368768
16827		-0.092896	0.395468	-0.913770	-0.743004	-0.638460	-0.200782	-0.662809	0.660283	0.353145
16828		-0.070470	0.396260	-0.915430	-0.733974	-0.642068	-0.221429	-0.675512	0.656298	0.336091
16829		-0.047788	0.395238	-0.917335	-0.716420	-0.653517	-0.244249	-0.696030	0.645525	0.314387
16830		-0.022360	0.390401	-0.920373	-0.693830	-0.668868	-0.266862	-0.719791	0.632616	0.285828
16831		0.005453	0.382263	-0.924037	-0.677192	-0.678503	-0.284685	-0.735787	0.627303	0.255166
16832		0.035417	0.370101	-0.928316	-0.672761	-0.678068	-0.296000	-0.739011	0.635019	0.224975
16833		0.065290	0.354953	-0.932602	-0.679343	-0.668755	-0.302091	-0.730910	0.653280	0.197472
16834		0.091670	0.338026	-0.936662	-0.697710	-0.649326	-0.302616	-0.710491	0.681259	0.176321
16835		0.111420	0.320575	-0.940647	-0.728855	-0.617073	-0.296633	-0.675541	0.718646	0.164898
16836		0.125293	0.303542	-0.944544	-0.764543	-0.577199	-0.286907	-0.632278	0.758092	0.159752
16837		0.136583	0.285977	-0.948453	-0.798804	-0.534450	-0.276180	-0.585881	0.795349	0.155443
16838		0.147345	0.268097	-0.952058	-0.825060	-0.497553	-0.267800	-0.545496	0.824963	0.147884
16839		0.157896	0.249139	-0.955510	-0.842684	-0.470413	-0.261907	-0.514735	0.846547	0.135670
16840		0.167332	0.230571	-0.958560	-0.855373	-0.449510	-0.257444	-0.490241	0.863005	0.122007
16841		0.174259	0.216874	-0.960520	-0.865060	-0.432292	-0.254547	-0.470430	0.875265	0.112279
16842		0.179415	0.215030	-0.959986	-0.868704	-0.423336	-0.257179	-0.461697	0.880085	0.110844
16843		0.193390	0.220046	-0.956128	-0.862353	-0.426649	-0.272613	-0.467918	0.877240	0.107248
16844		0.209655	0.238804	-0.948165	-0.849430	-0.435792	-0.297581	-0.484266	0.867789	0.111481
16845		0.213519	0.263078	-0.940851	-0.848454	-0.427472	-0.312079	-0.484288	0.864903	0.131936
16846		0.213134	0.282650	-0.935245	-0.857935	-0.403854	-0.317569	-0.467463	0.870064	0.156420
16847		0.215610	0.287687	-0.933139	-0.832651	-0.445037	-0.329596	-0.510102	0.848044	0.143589
16848		0.234040	0.264334	-0.935603	-0.773826	-0.531936	-0.343858	-0.588574	0.804470	0.080054
16849		0.246356	0.244941	-0.937717	-0.726131	-0.594169	-0.345972	-0.641905	0.766138	0.031482
16850		0.266386	0.211360	-0.940407	-0.682653	-0.647413	-0.338882	-0.680458	0.732245	-0.028176
16851		0.278026	0.190989	-0.941395	-0.659146	-0.674956	-0.331603	-0.698733	0.712711	-0.061766
16852		0.268548	0.209579	-0.940191	-0.684996	-0.644680	-0.339363	-0.677246	0.735162	-0.029566
16853		0.261160	0.236039	-0.935992	-0.711937	-0.607712	-0.351897	-0.651875	0.758269	0.009335
16854		0.255613	0.253190	-0.933036	-0.732630	-0.578978	-0.357823	-0.630805	0.775035	0.037500
16855		0.248806	0.257855	-0.933599	-0.757464	-0.548913	-0.353472	-0.603609	0.795114	0.058743
16856		0.240571	0.252677	-0.937166	-0.782007	-0.521487	-0.341344	-0.574970	0.814988	0.072141
16857		0.232938	0.242166	-0.941857	-0.798554	-0.505115	-0.327369	-0.555024	0.828380	0.075723
16858		0.224482	0.233325	-0.946133	-0.812862	-0.490657	-0.313863	-0.537459	0.839532	0.079517
16859		0.214029	0.228765	-0.949662	-0.827173	-0.474681	-0.300769	-0.519592	0.849909	0.087632
16860		0.200644	0.225776	-0.953293	-0.841091	-0.459227	-0.285791	-0.502303	0.859148	0.097757
16861		0.183993	0.225119	-0.956801	-0.852062	-0.448768	-0.269439	-0.490038	0.864829	0.109245
16863		0.144886	0.238408	-0.960297	-0.872410	-0.427104	-0.237661	-0.466807	0.872206	0.146108
16864		0.125513	0.254725	-0.958833	-0.883864	-0.410244	-0.224685	-0.450589	0.875680	0.173651
16865		0.106705	0.273363	-0.955974	-0.888692	-0.404973	-0.214998	-0.445916	0.872508	0.199723
16866		0.086656	0.291244	-0.952716	-0.884817	-0.416962	-0.207945	-0.457809	0.860999	0.221565
16867		0.063513	0.305023	-0.950225	-0.875456	-0.440074	-0.199780	-0.479106	0.844569	0.239084
16868		0.038096	0.313042	-0.948975	-0.859921	-0.473464	-0.190704	-0.509004	0.823308	0.251154
16869		0.010386	0.318831	-0.947755	-0.841124	-0.509760	-0.180705	-0.540742	0.799056	0.262882
16870		-0.015624	0.321987	-0.946615	-0.821655	-0.543620	-0.171349	-0.569772	0.775114	0.273056
16871		-0.038731	0.322989	-0.945610	-0.805648	-0.569909	-0.161664	-0.591128	0.755567	0.282289
16872		-0.059348	0.323850	-0.944245	-0.801690	-0.579072	-0.148218	-0.594786	0.748196	0.293994
16873		-0.080533	0.326025	-0.941925	-0.810117	-0.571965	-0.128708	-0.580710	0.752704	0.310181
16874		-0.103267	0.329255	-0.938577	-0.825694	-0.554510	-0.103676	-0.554586	0.764271	0.329126
16875		-0.126754	0.332850	-0.934422	-0.843575	-0.531750	-0.074984	-0.521837	0.778751	0.348185
16876		-0.148986	0.336555	-0.929803	-0.859159	-0.509566	-0.046779	-0.489540	0.791879	0.365073
16877		-0.169410	0.341414	-0.924520	-0.869754	-0.492964	-0.022671	-0.463495	0.800264	0.380459
16878		-0.187114	0.349013	-0.918247	-0.873995	-0.485890	-0.006583	-0.448464	0.801312	0.395953
16879		-0.201450	0.360690	-0.910670	-0.871910	-0.489665	-0.001066	-0.446308	0.793808	0.413133
16880		-0.212435	0.377475	-0.901323	-0.865792	-0.500374	-0.005497	-0.453074	0.779191	0.433112
16881		-0.220781	0.399470	-0.889764	-0.855623	-0.517217	-0.019901	-0.468151	0.756908	0.455988
16882		-0.225612	0.426686	-0.875807	-0.840524	-0.539779	-0.046453	-0.492563	0.725657	0.480420
16883		-0.228813	0.461165	-0.857305	-0.825996	-0.558012	-0.079711	-0.515146	0.689891	0.508601
16884		-0.230230	0.497451	-0.836383	-0.815146	-0.568035	-0.113464	-0.531537	0.655651	0.536274
16885		-0.217654	0.516761	-0.828000	-0.772967	-0.609243	-0.177046	-0.595944	0.601482	0.532043
16886		-0.189489	0.524309	-0.830177	-0.698672	-0.666062	-0.261188	-0.689892	0.530529	0.492532
16887		-0.162817	0.531956	-0.830971	-0.660110	-0.684684	-0.308969	-0.733311	0.498227	0.462628
16888		-0.140306	0.542029	-0.828564	-0.660393	-0.674734	-0.329568	-0.737696	0.500938	0.452622
16889		-0.126283	0.549680	-0.825775	-0.688353	-0.647966	-0.326053	-0.714299	0.527249	0.460201
16890		-0.113286	0.557122	-0.822667	-0.709893	-0.624690	-0.325293	-0.695139	0.547154	0.466266
16891		-0.116979	0.577545	-0.807934	-0.745785	-0.588308	-0.312567	-0.655836	0.565982	0.499544
16892		-0.147423	0.611921	-0.777058	-0.810608	-0.524915	-0.259574	-0.566728	0.591623	0.573413
16893		-0.165521	0.636116	-0.753631	-0.819356	-0.513998	-0.253893	-0.548870	0.575467	0.606283
16894		-0.160171	0.643083	-0.748859	-0.782909	-0.544806	-0.300399	-0.601164	0.538174	0.590737
16895		-0.164029	0.646128	-0.745394	-0.756071	-0.567688	-0.325709	-0.633601	0.510145	0.581636
16896		-0.170394	0.639833	-0.749386	-0.730571	-0.592369	-0.339654	-0.661235	0.489605	0.568379
16897		-0.173227	0.623339	-0.762522	-0.699183	-0.623111	-0.350536	-0.693639	0.472420	0.543768
16898		-0.174826	0.600014	-0.780653	-0.687260	-0.642125	-0.339631	-0.705060	0.477135	0.524626
16899		-0.177397	0.572228	-0.800678	-0.693533	-0.649922	-0.310827	-0.698242	0.500157	0.512153
16900		-0.179569	0.542074	-0.820921	-0.705205	-0.652751	-0.276771	-0.685887	0.529218	0.499487
16901		-0.188701	0.519006	-0.833681	-0.729343	-0.642547	-0.234931	-0.657610	0.563708	0.499783
16902		-0.204993	0.504271	-0.838862	-0.759628	-0.622430	-0.188535	-0.617205	0.598575	0.510652
16903		-0.222291	0.491605	-0.841968	-0.782526	-0.605089	-0.146700	-0.581584	0.626252	0.519200
16904		-0.237896	0.476106	-0.846598	-0.793551	-0.597874	-0.113241	-0.560074	0.644879	0.520046
16905		-0.249650	0.456840	-0.853799	-0.799620	-0.594557	-0.084320	-0.546153	0.661664	0.513730
16906		-0.252961	0.440819	-0.861214	-0.804114	-0.590777	-0.066205	-0.537970	0.675767	0.503913
16907		-0.246940	0.427515	-0.869627	-0.808423	-0.585700	-0.058373	-0.534296	0.688612	0.490246
16908		-0.228338	0.408872	-0.883564	-0.798867	-0.597420	-0.070008	-0.556483	0.689865	0.463048
16909		-0.202666	0.392350	-0.897211	-0.794077	-0.602001	-0.083885	-0.573034	0.695454	0.433561
16910		-0.178051	0.382521	-0.906629	-0.802157	-0.590072	-0.091427	-0.569949	0.710980	0.411905
16911		-0.159130	0.379526	-0.911393	-0.806617	-0.582271	-0.101636	-0.569251	0.718972	0.398789
16912		-0.142659	0.378079	-0.914716	-0.802069	-0.585662	-0.116980	-0.579942	0.716977	0.386795
16913		-0.125492	0.374941	-0.918516	-0.790753	-0.596921	-0.135629	-0.599134	0.709299	0.371394
16914		-0.106698	0.368929	-0.923313	-0.775539	-0.611997	-0.154915	-0.622218	0.699536	0.351418
16915		-0.085989	0.360246	-0.928886	-0.760662	-0.625862	-0.172310	-0.643428	0.691751	0.327842
16916		-0.063520	0.350102	-0.934555	-0.751399	-0.633065	-0.186087	-0.656783	0.690404	0.303279
16917		-0.038572	0.338294	-0.940250	-0.750768	-0.630772	-0.196147	-0.659438	0.698344	0.278311
16918		-0.012605	0.325655	-0.945405	-0.761518	-0.615866	-0.201989	-0.648021	0.717396	0.255755
16919		0.010544	0.312385	-0.949897	-0.777750	-0.594500	-0.204142	-0.628485	0.740935	0.236689
16920		0.029809	0.297700	-0.954194	-0.792220	-0.575069	-0.204165	-0.609507	0.762017	0.218702
16921		0.043420	0.282747	-0.958211	-0.804260	-0.559101	-0.201422	-0.592689	0.779397	0.203126
16922		0.051397	0.269742	-0.961560	-0.818255	-0.540628	-0.195397	-0.572553	0.796844	0.192931
16923		0.054992	0.260363	-0.963943	-0.827579	-0.528254	-0.189895	-0.558649	0.808182	0.186421
16924		0.057550	0.251040	-0.966264	-0.829383	-0.526723	-0.186243	-0.555708	0.812122	0.177896
16925		0.058891	0.241242	-0.968677	-0.827601	-0.530816	-0.182510	-0.558218	0.812426	0.168392
16926		0.061748	0.229850	-0.971265	-0.815618	-0.549275	-0.181838	-0.575287	0.803409	0.153553
16927		0.078553	0.210596	-0.974412	-0.787500	-0.586237	-0.190186	-0.611289	0.782289	0.119794
16928		0.095101	0.203019	-0.974546	-0.754656	-0.623738	-0.203582	-0.649192	0.754807	0.093891
16929		0.109748	0.205536	-0.972476	-0.726948	-0.650648	-0.219556	-0.677866	0.731035	0.078007
16930		0.099349	0.221621	-0.970059	-0.743813	-0.631024	-0.220343	-0.660963	0.743433	0.102153
16931		0.088278	0.229003	-0.969415	-0.781931	-0.586976	-0.209865	-0.617082	0.776542	0.127248
16932		0.086732	0.223158	-0.970916	-0.769768	-0.603653	-0.207509	-0.632404	0.765378	0.119424
16933		0.095605	0.219903	-0.970826	-0.717310	-0.660990	-0.220360	-0.690164	0.717450	0.094545
16934		0.105705	0.229891	-0.967459	-0.680936	-0.692281	-0.238901	-0.724674	0.684031	0.083363
16935		0.118182	0.241278	-0.963233	-0.652929	-0.711961	-0.258447	-0.748142	0.659467	0.073396
16936		0.120848	0.259114	-0.958257	-0.644044	-0.714112	-0.274319	-0.755383	0.650310	0.080582
16937		0.121568	0.272387	-0.954477	-0.630634	-0.721385	-0.286189	-0.766500	0.636717	0.084079
16938		0.123269	0.277530	-0.952776	-0.628794	-0.720926	-0.291348	-0.767738	0.635014	0.085641
16939		0.122142	0.278556	-0.952621	-0.650949	-0.702060	-0.288752	-0.749231	0.655377	0.095575
16940		0.119002	0.276322	-0.953669	-0.676157	-0.680805	-0.281633	-0.727084	0.678345	0.105820
16941		0.115540	0.272012	-0.955333	-0.699810	-0.660256	-0.272631	-0.704923	0.700051	0.114071
16942		0.113783	0.266566	-0.957077	-0.720911	-0.640709	-0.264158	-0.683623	0.720024	0.119269
16943		0.113417	0.261041	-0.958642	-0.740237	-0.621379	-0.256781	-0.662710	0.738746	0.122757
16944		0.113223	0.257259	-0.959687	-0.753274	-0.607617	-0.251752	-0.647887	0.751411	0.124991
16945		0.111824	0.257232	-0.959858	-0.760124	-0.600027	-0.249356	-0.640083	0.757495	0.128430
16946		0.110112	0.259756	-0.959376	-0.759393	-0.600760	-0.249818	-0.641247	0.756051	0.131106
16947		0.109494	0.262953	-0.958575	-0.750541	-0.610402	-0.253174	-0.651689	0.747172	0.130521
16948		0.110395	0.266802	-0.957408	-0.736149	-0.625252	-0.259122	-0.667755	0.733401	0.127382
16949		0.114200	0.271319	-0.955691	-0.717280	-0.643069	-0.268277	-0.687363	0.716135	0.121173
16950		0.121625	0.276086	-0.953406	-0.697940	-0.659184	-0.279921	-0.705753	0.699466	0.112518
16951		0.130789	0.282218	-0.950393	-0.682727	-0.669463	-0.292750	-0.718873	0.687148	0.105120
16952		0.140305	0.290187	-0.946629	-0.672708	-0.673581	-0.306190	-0.726483	0.679765	0.100704
16953		0.148329	0.300022	-0.942330	-0.668912	-0.671389	-0.319050	-0.728392	0.677660	0.101102
16954		0.155060	0.311601	-0.937476	-0.669320	-0.664827	-0.331685	-0.726613	0.678903	0.105473
16955		0.162053	0.322795	-0.932492	-0.671475	-0.656390	-0.343910	-0.723091	0.681877	0.110379
16956		0.169921	0.332845	-0.927546	-0.672537	-0.648800	-0.356023	-0.720292	0.684305	0.113606
16957		0.178046	0.342580	-0.922463	-0.672137	-0.642342	-0.368279	-0.718702	0.685592	0.115894
16958		0.185726	0.351626	-0.917532	-0.670083	-0.637642	-0.380002	-0.718675	0.685399	0.117192
16959		0.192836	0.358629	-0.913345	-0.668695	-0.633169	-0.389799	-0.718095	0.685917	0.117716
16960		0.199395	0.363833	-0.909872	-0.664148	-0.632549	-0.398484	-0.720520	0.683745	0.115512
16961		0.208572	0.363249	-0.908046	-0.651098	-0.641234	-0.406068	-0.729774	0.675921	0.102768
16962		0.217523	0.358355	-0.907891	-0.637525	-0.652171	-0.410165	-0.739084	0.668023	0.086598
16963		0.223665	0.351838	-0.908947	-0.628019	-0.661149	-0.410456	-0.745363	0.662640	0.073085
16964		0.226481	0.344248	-0.911153	-0.623319	-0.667600	-0.407165	-0.748452	0.660154	0.063378
16965		0.226319	0.335385	-0.914493	-0.622054	-0.672700	-0.400654	-0.749553	0.659539	0.056383
16966		0.223267	0.325732	-0.918722	-0.624443	-0.675927	-0.391401	-0.748480	0.661076	0.052488
16967		0.216452	0.317365	-0.923271	-0.630722	-0.676394	-0.380370	-0.745211	0.664658	0.053762
16968		0.206727	0.312839	-0.927036	-0.640493	-0.672989	-0.369937	-0.739616	0.670236	0.061246
16969		0.196033	0.311188	-0.929910	-0.651098	-0.667792	-0.360729	-0.733241	0.676178	0.071704
16970		0.185482	0.308441	-0.932985	-0.660395	-0.663948	-0.350787	-0.727650	0.681203	0.080543
16971		0.174475	0.303061	-0.936863	-0.667272	-0.663282	-0.338830	-0.724090	0.684260	0.086499
16972		0.162599	0.295283	-0.941472	-0.671652	-0.665856	-0.324838	-0.722803	0.685160	0.090060
16973		0.149092	0.287161	-0.946208	-0.674694	-0.670005	-0.309647	-0.722883	0.684567	0.093853
16974		0.135884	0.280882	-0.950074	-0.673324	-0.677276	-0.296534	-0.726754	0.680002	0.097093
16975		0.126071	0.274289	-0.953348	-0.665510	-0.689286	-0.286323	-0.735665	0.670559	0.095643
16976		0.115715	0.264070	-0.957537	-0.660102	-0.699894	-0.272788	-0.742210	0.663637	0.093325
16977		0.095821	0.251178	-0.963186	-0.664789	-0.704051	-0.249737	-0.740860	0.664246	0.099518
16978		0.064927	0.235764	-0.969639	-0.673360	-0.706771	-0.216936	-0.736458	0.667001	0.112866
16979		0.034115	0.210479	-0.977003	-0.670550	-0.720060	-0.178539	-0.741080	0.661220	0.116572
16980		0.007284	0.173256	-0.984850	-0.664758	-0.734906	-0.134202	-0.747023	0.655664	0.109820
16981		-0.022529	0.132136	-0.990976	-0.671182	-0.736636	-0.082964	-0.740950	0.663256	0.105283
16982		-0.052834	0.091260	-0.994425	-0.692122	-0.721181	-0.029411	-0.719844	0.686709	0.101266
16983		-0.078324	0.049811	-0.995683	-0.713240	-0.700604	0.021057	-0.696530	0.711810	0.090401
16984		-0.101546	0.011567	-0.994764	-0.724081	-0.686556	0.065932	-0.682198	0.726985	0.078093
16985		-0.123630	-0.023804	-0.992043	-0.725757	-0.679618	0.106752	-0.676751	0.733180	0.066745
16986		-0.144750	-0.054938	-0.987942	-0.719075	-0.680024	0.143172	-0.679690	0.731128	0.058929
16987		-0.166067	-0.080332	-0.982837	-0.710028	-0.681900	0.175706	-0.684312	0.727020	0.056204
16988		-0.186394	-0.099371	-0.977437	-0.702518	-0.682008	0.203304	-0.686822	0.724562	0.057313
16989		-0.204224	-0.112108	-0.972484	-0.697847	-0.680008	0.224941	-0.686514	0.724583	0.060640
16990		-0.216812	-0.118379	-0.969009	-0.689968	-0.683631	0.237893	-0.690606	0.720163	0.066541
16991		-0.222903	-0.118970	-0.967554	-0.679116	-0.693104	0.241677	-0.699368	0.710952	0.073700
16992		-0.222659	-0.114396	-0.968162	-0.666931	-0.706472	0.236856	-0.711074	0.698435	0.081008
16993		-0.218080	-0.104544	-0.970315	-0.652048	-0.724155	0.224571	-0.726137	0.681667	0.089756
16994		-0.209009	-0.084192	-0.974283	-0.633475	-0.747341	0.200478	-0.745000	0.659085	0.102867
16995		-0.188594	-0.056376	-0.980436	-0.634677	-0.754850	0.165490	-0.749412	0.653470	0.106580
16996		-0.158988	-0.025733	-0.986945	-0.642530	-0.756288	0.123225	-0.749585	0.653733	0.103707
16997		-0.127998	0.012410	-0.991697	-0.638540	-0.766135	0.072829	-0.758870	0.642560	0.105988
16998		-0.112041	0.049287	-0.992481	-0.633620	-0.772934	0.033145	-0.765488	0.632569	0.117829
16999		-0.099201	0.055158	-0.993538	-0.630147	-0.776223	0.019825	-0.770113	0.628041	0.111760
17000		-0.084964	0.049565	-0.995150	-0.646994	-0.762299	0.017272	-0.757746	0.645324	0.096836
17001		-0.070951	0.049659	-0.996243	-0.668238	-0.743873	0.010512	-0.740556	0.666474	0.085962
17002		-0.075135	0.073583	-0.994455	-0.691723	-0.722162	-0.001173	-0.718244	0.687799	0.105159
17003		-0.083171	0.102763	-0.991223	-0.713034	-0.701011	-0.012847	-0.696179	0.705707	0.131577
17004		-0.091999	0.133714	-0.986740	-0.717673	-0.695842	-0.027382	-0.690277	0.705637	0.159980
17006		-0.086640	0.177060	-0.980379	-0.683944	-0.726101	-0.070694	-0.724371	0.664400	0.184008
17007		-0.075117	0.186064	-0.979662	-0.665804	-0.740723	-0.089631	-0.742335	0.645530	0.179523
17009		-0.050390	0.185727	-0.981308	-0.649985	-0.752094	-0.108968	-0.758274	0.632345	0.158618
17010		-0.038411	0.182346	-0.982484	-0.644571	-0.755834	-0.115081	-0.763579	0.628860	0.146568
17011		-0.026498	0.181504	-0.983033	-0.638538	-0.759688	-0.123054	-0.769134	0.624444	0.136027
17012		-0.016693	0.184780	-0.982638	-0.633428	-0.762356	-0.132597	-0.773622	0.620217	0.129770
17014		-0.005125	0.198782	-0.980030	-0.635140	-0.757623	-0.150349	-0.772380	0.621686	0.130138
17015		-0.003009	0.206831	-0.978372	-0.635769	-0.755582	-0.157778	-0.771873	0.621544	0.133771
17016		-0.002018	0.213207	-0.977005	-0.633984	-0.755837	-0.163632	-0.773344	0.619075	0.136695
17017		0.001001	0.216864	-0.976201	-0.623602	-0.763002	-0.170141	-0.781741	0.608932	0.134473
17018		0.004691	0.219576	-0.975584	-0.609170	-0.773053	-0.176921	-0.793026	0.595127	0.130133
17019		0.006681	0.223248	-0.974739	-0.597899	-0.780439	-0.182845	-0.801544	0.584017	0.128265
17020		0.008059	0.226994	-0.973863	-0.588902	-0.786014	-0.188083	-0.808164	0.575026	0.127343
17021		0.010837	0.229198	-0.973319	-0.582062	-0.790026	-0.192517	-0.813072	0.568619	0.124846
17022		0.014147	0.228075	-0.973541	-0.578882	-0.792007	-0.193959	-0.815289	0.566309	0.120824
17023		0.018024	0.223023	-0.974647	-0.576621	-0.794044	-0.192360	-0.816813	0.565469	0.114288
17024		0.020678	0.214153	-0.976581	-0.575944	-0.795879	-0.186722	-0.817228	0.566317	0.106883
17025		0.019424	0.201303	-0.979336	-0.579754	-0.795762	-0.175068	-0.814560	0.571174	0.101250
17026		0.013690	0.184201	-0.982793	-0.586378	-0.794656	-0.157107	-0.809922	0.578439	0.097133
17027		0.003704	0.162602	-0.986685	-0.591935	-0.794900	-0.133219	-0.805977	0.584546	0.093306
17028		-0.009701	0.137066	-0.990514	-0.596445	-0.795850	-0.104287	-0.802595	0.589776	0.089473
17029		-0.027292	0.106370	-0.993952	-0.604149	-0.793932	-0.068376	-0.796404	0.598629	0.085932
17030		-0.048585	0.070745	-0.996310	-0.613733	-0.789082	-0.026102	-0.788018	0.610200	0.081756
17031		-0.072166	0.030250	-0.996934	-0.621879	-0.782824	0.021263	-0.779781	0.621507	0.075305
17032		-0.097778	-0.013375	-0.995118	-0.623452	-0.778565	0.071723	-0.775724	0.627421	0.067787
17033		-0.126957	-0.053473	-0.990466	-0.622694	-0.772967	0.121547	-0.772097	0.632188	0.064837
17034		-0.153425	-0.085577	-0.984448	-0.630473	-0.758643	0.164206	-0.760897	0.645861	0.062441
17035		-0.178208	-0.101590	-0.978735	-0.657389	-0.727819	0.195243	-0.732176	0.678203	0.062919
17036		-0.188184	-0.093537	-0.977670	-0.669942	-0.715682	0.197424	-0.718167	0.692134	0.072015
17037		-0.179185	-0.069944	-0.981326	-0.681145	-0.710915	0.175044	-0.709883	0.699791	0.079743
17038		-0.152211	-0.038396	-0.987602	-0.673151	-0.727623	0.132036	-0.723671	0.684902	0.084906
17039		-0.119562	0.004776	-0.992815	-0.664446	-0.743416	0.076441	-0.737710	0.668812	0.092058
17040		-0.082779	0.055668	-0.995012	-0.666530	-0.745351	0.013751	-0.740868	0.664344	0.098803
17041		-0.042501	0.106372	-0.993418	-0.668744	-0.741754	-0.050815	-0.742277	0.662183	0.102661
17042		0.000424	0.154066	-0.988060	-0.675313	-0.728682	-0.113911	-0.737532	0.667298	0.103734
17043		0.045575	0.198646	-0.979011	-0.686184	-0.706015	-0.175197	-0.725999	0.679766	0.104131
17044		0.090305	0.241224	-0.966259	-0.695173	-0.679482	-0.234601	-0.713147	0.692903	0.106332
17045		0.133220	0.281845	-0.950166	-0.702154	-0.649762	-0.291184	-0.699451	0.705955	0.111337
17046		0.174731	0.318105	-0.931814	-0.706234	-0.618939	-0.343726	-0.686077	0.718139	0.116509
17047		0.213550	0.348874	-0.912515	-0.703158	-0.593556	-0.391484	-0.678207	0.725244	0.118560
17048		0.246298	0.376312	-0.893155	-0.698154	-0.570311	-0.432813	-0.672249	0.730161	0.122257
17049		0.270174	0.401896	-0.874921	-0.693700	-0.548904	-0.466353	-0.667672	0.732929	0.130495
17050		0.285998	0.424149	-0.859246	-0.691515	-0.529383	-0.491488	-0.663334	0.734746	0.141903
17051		0.294703	0.442807	-0.846801	-0.691202	-0.513118	-0.508870	-0.659840	0.735277	0.154851
17052		0.300532	0.455040	-0.838224	-0.693285	-0.499334	-0.519636	-0.655009	0.737295	0.165407
17053		0.305111	0.459071	-0.834363	-0.696128	-0.490360	-0.524360	-0.649856	0.740812	0.169958
17054		0.309029	0.454792	-0.835264	-0.696096	-0.490269	-0.524486	-0.648036	0.743505	0.165072
17055		0.310998	0.444958	-0.839817	-0.693649	-0.497802	-0.520619	-0.649716	0.744450	0.153829
17056		0.313977	0.430245	-0.846350	-0.687889	-0.511326	-0.515126	-0.654391	0.743932	0.135416
17057		0.324936	0.411361	-0.851586	-0.658306	-0.548111	-0.515953	-0.679007	0.728256	0.092700
17058		0.339481	0.400755	-0.850969	-0.627904	-0.577053	-0.522251	-0.700349	0.711621	0.055737
17059		0.347865	0.382983	-0.855753	-0.610408	-0.600282	-0.516782	-0.711612	0.702129	0.024958
17060		0.342717	0.390941	-0.854231	-0.554764	-0.649600	-0.519862	-0.758144	0.652062	-0.005748
17061		0.356252	0.409532	-0.839862	-0.467946	-0.699800	-0.539728	-0.808771	0.585290	-0.057666
17062		0.373925	0.425569	-0.824058	-0.417231	-0.716340	-0.559263	-0.828311	0.552945	-0.090297
17063		0.389101	0.445429	-0.806345	-0.369990	-0.726054	-0.579614	-0.843628	0.523868	-0.117704
17064		0.402715	0.458242	-0.792360	-0.362171	-0.715241	-0.597714	-0.840626	0.527679	-0.122077
17065		0.411426	0.472310	-0.779520	-0.375575	-0.691420	-0.617157	-0.830465	0.546682	-0.107081
17066		0.420280	0.487415	-0.765370	-0.397930	-0.659041	-0.638213	-0.815485	0.572792	-0.083025
17067		0.422501	0.509898	-0.749331	-0.429419	-0.615453	-0.660921	-0.798181	0.601017	-0.041070
17068		0.421924	0.534216	-0.732525	-0.463010	-0.567694	-0.680695	-0.779488	0.626368	0.007824
17069		0.421300	0.554650	-0.717544	-0.494965	-0.522347	-0.694380	-0.759945	0.647702	0.054467
17070		0.425805	0.565228	-0.706546	-0.510211	-0.494896	-0.703394	-0.747245	0.659996	0.077656
17071		0.434893	0.567167	-0.699421	-0.506638	-0.488007	-0.710751	-0.744437	0.663454	0.075118
17072		0.444267	0.566557	-0.694002	-0.493663	-0.491620	-0.717360	-0.747611	0.661303	0.061278
17073		0.451403	0.566348	-0.689555	-0.477094	-0.499853	-0.722861	-0.754067	0.655284	0.044566
17074		0.453900	0.568045	-0.686512	-0.464348	-0.506773	-0.726335	-0.760497	0.648464	0.033746
17075		0.453301	0.569788	-0.685463	-0.455633	-0.512831	-0.727601	-0.766105	0.642141	0.027148
17076		0.449870	0.569393	-0.688047	-0.455967	-0.516003	-0.725145	-0.767927	0.639947	0.027490
17077		0.445133	0.565002	-0.694715	-0.463244	-0.518640	-0.718622	-0.766330	0.641705	0.030870
17078		0.441601	0.555006	-0.704951	-0.472274	-0.524262	-0.708595	-0.762854	0.645846	0.030600
17079		0.437229	0.541298	-0.718211	-0.485788	-0.529919	-0.695123	-0.756862	0.652827	0.031260
17080		0.430128	0.525094	-0.734347	-0.502184	-0.536799	-0.677981	-0.750201	0.660396	0.032802
17081		0.417748	0.508623	-0.752854	-0.521346	-0.544437	-0.657105	-0.744100	0.667002	0.037730
17082		0.398325	0.496771	-0.771074	-0.541182	-0.551450	-0.634843	-0.740581	0.670165	0.049187
17083		0.375962	0.491764	-0.785379	-0.555500	-0.558769	-0.615790	-0.741669	0.667791	0.063099
17084		0.356244	0.489548	-0.795885	-0.562302	-0.567953	-0.601038	-0.746262	0.661644	0.072943
17085		0.339808	0.485025	-0.805780	-0.565296	-0.579394	-0.587148	-0.751646	0.655021	0.077300
17086		0.328127	0.476252	-0.815792	-0.566061	-0.592246	-0.573428	-0.756246	0.649945	0.075256
17087		0.322371	0.464008	-0.825090	-0.564984	-0.605037	-0.561002	-0.759519	0.647014	0.067110
17088		0.320413	0.452120	-0.832420	-0.564546	-0.614504	-0.551065	-0.760673	0.646508	0.058347
17089		0.320539	0.442216	-0.837675	-0.566195	-0.619520	-0.543707	-0.759393	0.648567	0.051800
17090		0.322543	0.435417	-0.840463	-0.568561	-0.620772	-0.539797	-0.756772	0.651962	0.047335
17091		0.323250	0.435228	-0.840289	-0.585255	-0.605831	-0.538931	-0.743631	0.665992	0.058885
17092		0.323447	0.438223	-0.838655	-0.602686	-0.587864	-0.539616	-0.729487	0.679983	0.073968
17093		0.326061	0.433595	-0.840047	-0.606337	-0.585835	-0.537729	-0.725286	0.684684	0.071887
17094		0.320152	0.423514	-0.847430	-0.623354	-0.579422	-0.525072	-0.713395	0.696352	0.078496
17095		0.299371	0.410312	-0.861407	-0.655829	-0.567244	-0.498119	-0.693012	0.714058	0.099278
17096		0.261094	0.394268	-0.881126	-0.702282	-0.548672	-0.453607	-0.662292	0.737233	0.133632
17097		0.213895	0.368994	-0.904485	-0.745381	-0.536814	-0.395269	-0.631392	0.758732	0.160219
17098		0.172054	0.325715	-0.929681	-0.773909	-0.539211	-0.332139	-0.609477	0.776635	0.159300
17099		0.135256	0.271307	-0.952942	-0.793231	-0.546663	-0.268225	-0.593709	0.792182	0.141269
17100		0.097618	0.212292	-0.972318	-0.814499	-0.544371	-0.200629	-0.571894	0.811537	0.119771
17101		0.059516	0.151343	-0.986688	-0.836456	-0.531890	-0.132038	-0.544793	0.833179	0.094936
17102		0.022426	0.090411	-0.995652	-0.854961	-0.514480	-0.065975	-0.518208	0.852723	0.065760
17103		-0.013270	0.031510	-0.999415	-0.859852	-0.510522	-0.004679	-0.510371	0.859287	0.033868
17104		-0.045041	-0.018996	-0.998805	-0.848664	-0.526724	0.048288	-0.527011	0.849824	0.007603
17105		-0.070302	-0.057942	-0.995842	-0.824451	-0.558616	0.090705	-0.561549	0.827400	-0.008498
17106		-0.094859	-0.084528	-0.991896	-0.803431	-0.581823	0.126417	-0.587793	0.808911	-0.012721
17107		-0.118550	-0.101314	-0.987766	-0.794372	-0.587173	0.155565	-0.595751	0.803096	-0.010872
17108		-0.138980	-0.108317	-0.984353	-0.795549	-0.579729	0.176116	-0.589734	0.807578	-0.005601
17109		-0.152548	-0.108014	-0.982376	-0.796433	-0.575117	0.186909	-0.585170	0.810909	0.001707
17110		-0.156430	-0.104964	-0.982096	-0.788863	-0.585050	0.188181	-0.594327	0.804176	0.008717
17111		-0.151347	-0.097746	-0.983636	-0.774132	-0.607061	0.179436	-0.614666	0.788621	0.016208
17112		-0.135268	-0.077807	-0.987749	-0.763877	-0.626724	0.153978	-0.631026	0.775347	0.025341
17113		-0.098748	-0.053204	-0.993689	-0.736983	-0.667072	0.108955	-0.668659	0.743091	0.026662
17114		-0.039049	-0.039537	-0.998455	-0.694968	-0.716891	0.055567	-0.717980	0.696064	0.000517
17115		-0.012204	-0.011199	-0.999863	-0.676771	-0.736009	0.016504	-0.736093	0.676879	0.001403
17116		-0.015880	0.015009	-0.999761	-0.695482	-0.718544	0.000260	-0.718368	0.695320	0.021849
17117		-0.014952	0.025834	-0.999554	-0.715264	-0.698815	-0.007362	-0.698694	0.714836	0.028927
17118		-0.010976	0.034767	-0.999335	-0.731725	-0.681420	-0.015670	-0.681512	0.731066	0.032919
17119		-0.012083	0.053866	-0.998475	-0.742446	-0.669357	-0.027126	-0.669797	0.740986	0.048080
17120		-0.005645	0.071258	-0.997442	-0.736739	-0.674741	-0.044035	-0.676153	0.734606	0.056307
17121		0.005847	0.084994	-0.996364	-0.720486	-0.690589	-0.063138	-0.693444	0.718236	0.057199
17122		0.014153	0.093253	-0.995542	-0.704514	-0.705597	-0.076109	-0.709548	0.702451	0.055711
17123		0.016793	0.099072	-0.994939	-0.693455	-0.715706	-0.082971	-0.720304	0.691339	0.056683
17124		0.016059	0.104579	-0.994387	-0.683391	-0.724819	-0.087265	-0.729876	0.680956	0.059828
17125		0.016335	0.109694	-0.993831	-0.673368	-0.733556	-0.092034	-0.739127	0.670718	0.061882
17126		0.018525	0.110930	-0.993656	-0.665913	-0.739953	-0.095022	-0.745799	0.663448	0.060163
17127		0.020504	0.107520	-0.993991	-0.663456	-0.742289	-0.093979	-0.747934	0.661397	0.056115
17128		0.021654	0.099932	-0.994759	-0.666752	-0.739964	-0.088850	-0.744965	0.665182	0.050607
17129		0.019197	0.090503	-0.995711	-0.677241	-0.731449	-0.079541	-0.735511	0.675863	0.047251
17130		0.015935	0.076174	-0.996967	-0.688748	-0.721975	-0.066171	-0.724826	0.687714	0.040960
17131		0.008628	0.061811	-0.998051	-0.702636	-0.709788	-0.050032	-0.711497	0.701698	0.037306
17132		-0.001534	0.046932	-0.998897	-0.714766	-0.698644	-0.031727	-0.699362	0.713929	0.034618
17133		-0.013388	0.029672	-0.999470	-0.725064	-0.688598	-0.010730	-0.688551	0.724536	0.030733
17134		-0.026917	0.010783	-0.999580	-0.733574	-0.679496	0.012423	-0.679076	0.733600	0.026200
17135		-0.041934	-0.010286	-0.999067	-0.739165	-0.672455	0.037949	-0.672218	0.740067	0.020596
17136		-0.057978	-0.031868	-0.997809	-0.740935	-0.668481	0.064402	-0.669069	0.743046	0.015146
17137		-0.075853	-0.050368	-0.995846	-0.735584	-0.671430	0.089989	-0.673173	0.739354	0.013880
17138		-0.093720	-0.062941	-0.993607	-0.724575	-0.680129	0.111427	-0.682794	0.730386	0.018136
17139		-0.110951	-0.069646	-0.991383	-0.727435	-0.673987	0.128760	-0.677147	0.735453	0.024116
17140		-0.122971	-0.067822	-0.990090	-0.736670	-0.662259	0.136861	-0.664978	0.746199	0.031476
17141		-0.125683	-0.055578	-0.990512	-0.740551	-0.659118	0.130950	-0.660142	0.749983	0.041682
17142		-0.115534	-0.032550	-0.992770	-0.736304	-0.668043	0.107591	-0.666715	0.743410	0.053215
17143		-0.091252	-0.001859	-0.995826	-0.716461	-0.694408	0.066949	-0.691634	0.719580	0.062034
17144		-0.054371	0.035021	-0.997906	-0.688653	-0.724990	0.012078	-0.723050	0.687868	0.063536
17145		-0.012114	0.079099	-0.996793	-0.668444	-0.742028	-0.050759	-0.743664	0.665686	0.061862
17146		0.029306	0.129126	-0.991195	-0.662124	-0.740358	-0.116026	-0.748821	0.659694	0.063801
17147		0.066039	0.182812	-0.980927	-0.664335	-0.725456	-0.179926	-0.744512	0.663546	0.073540
17148		0.096965	0.239143	-0.966131	-0.666556	-0.705262	-0.241470	-0.739121	0.667395	0.091017
17149		0.124291	0.293434	-0.947865	-0.666652	-0.682853	-0.298809	-0.734933	0.669036	0.110745
17150		0.149609	0.340373	-0.928312	-0.669716	-0.655821	-0.348395	-0.727391	0.673829	0.129836
17151		0.167871	0.378422	-0.910284	-0.671800	-0.631862	-0.386568	-0.721459	0.676422	0.148152
17152		0.171279	0.411216	-0.895301	-0.681490	-0.606811	-0.409087	-0.711502	0.680207	0.176306
17153		0.159547	0.435225	-0.886072	-0.693123	-0.589738	-0.414475	-0.702941	0.680285	0.207573
17154		0.156231	0.438687	-0.884955	-0.681879	-0.600295	-0.417956	-0.714586	0.668730	0.205347
17155		0.158045	0.428420	-0.889650	-0.663876	-0.620849	-0.416913	-0.730952	0.656508	0.186296
17156		0.158129	0.411543	-0.897568	-0.653533	-0.637794	-0.407570	-0.740196	0.651039	0.168103
17157		0.159341	0.385240	-0.908956	-0.634694	-0.665243	-0.393211	-0.756157	0.639563	0.138509
17158		0.169957	0.354609	-0.919438	-0.603552	-0.700089	-0.381576	-0.778999	0.619781	0.095040
17159		0.189616	0.329780	-0.924820	-0.600121	-0.706564	-0.374995	-0.777110	0.626109	0.063932
17160		0.219995	0.297161	-0.929138	-0.591468	-0.716791	-0.369291	-0.775737	0.630798	0.018071
17161		0.220983	0.288152	-0.931738	-0.596819	-0.715635	-0.362868	-0.771346	0.636266	0.013831
17162		0.207900	0.315786	-0.925774	-0.637924	-0.673705	-0.373062	-0.741506	0.668133	0.061384
17163		0.227014	0.318959	-0.920179	-0.653882	-0.650294	-0.386726	-0.721736	0.689480	0.060936
17164		0.226912	0.330111	-0.916263	-0.666288	-0.633563	-0.393266	-0.710332	0.699732	0.076186
17165		0.212178	0.354524	-0.910655	-0.679560	-0.616143	-0.398203	-0.702267	0.703335	0.110188
17166		0.211025	0.371504	-0.904131	-0.659813	-0.628303	-0.412168	-0.721190	0.683535	0.112535
17167		0.212109	0.385848	-0.897848	-0.663940	-0.617255	-0.422114	-0.717073	0.685651	0.125255
17168		0.214629	0.400856	-0.890645	-0.639348	-0.631706	-0.438385	-0.738355	0.663522	0.120704
17169		0.225469	0.403111	-0.886941	-0.590058	-0.667915	-0.453564	-0.775238	0.625612	0.087265
17170		0.245546	0.391909	-0.886631	-0.547954	-0.698379	-0.460449	-0.799658	0.598895	0.043264
17171		0.258400	0.378568	-0.888772	-0.528266	-0.714901	-0.458096	-0.808804	0.587880	0.015254
17172		0.254466	0.369510	-0.893706	-0.529992	-0.719708	-0.448474	-0.808923	0.587778	0.012696
17173		0.244915	0.361803	-0.899509	-0.549935	-0.712242	-0.436214	-0.798491	0.601506	0.024529
17174		0.235576	0.353259	-0.905380	-0.568822	-0.705241	-0.423174	-0.788001	0.614690	0.034804
17175		0.226804	0.344164	-0.911104	-0.588210	-0.697197	-0.409787	-0.776253	0.628862	0.044313
17176		0.217257	0.337515	-0.915906	-0.611990	-0.683895	-0.397185	-0.760439	0.646816	0.057975
17177		0.205757	0.335218	-0.919398	-0.632941	-0.670949	-0.386281	-0.746357	0.661405	0.074121
17178		0.192293	0.335614	-0.922164	-0.649732	-0.660695	-0.375939	-0.735440	0.671450	0.091012
17179		0.178226	0.336205	-0.924771	-0.658873	-0.657253	-0.365929	-0.730836	0.674525	0.104377
17180		0.165647	0.335109	-0.927504	-0.657607	-0.663343	-0.357112	-0.734924	0.669088	0.110489
17181		0.156810	0.330554	-0.930669	-0.646541	-0.677986	-0.349743	-0.746590	0.656558	0.107402
17182		0.151839	0.322604	-0.934276	-0.627906	-0.698511	-0.343243	-0.763334	0.638755	0.096504
17183		0.149114	0.312190	-0.938244	-0.606298	-0.720694	-0.336160	-0.781133	0.618982	0.081814
17184		0.146276	0.301419	-0.942205	-0.589002	-0.738684	-0.327753	-0.794783	0.602903	0.069485
17185		0.142811	0.291752	-0.945772	-0.578127	-0.751017	-0.318971	-0.803352	0.592329	0.061416
17186		0.139226	0.283307	-0.948869	-0.573620	-0.757998	-0.310484	-0.807203	0.587517	0.056978
17187		0.134698	0.276445	-0.951543	-0.577487	-0.758451	-0.302095	-0.805211	0.590196	0.057482
17188		0.128935	0.271220	-0.953842	-0.588851	-0.752988	-0.293706	-0.797891	0.599540	0.062621
17189		0.123391	0.266552	-0.955889	-0.601888	-0.745746	-0.285648	-0.788991	0.610584	0.068416
17190		0.117979	0.261990	-0.957832	-0.615825	-0.737380	-0.277544	-0.778999	0.622601	0.074345
17191		0.112330	0.258125	-0.959559	-0.628414	-0.729582	-0.269825	-0.769726	0.633310	0.080255
17192		0.108026	0.253758	-0.961216	-0.637212	-0.724472	-0.262871	-0.763080	0.640895	0.083436
17193		0.103997	0.249552	-0.962761	-0.642895	-0.721723	-0.256519	-0.758862	0.645631	0.085379
17194		0.100476	0.245721	-0.964119	-0.644598	-0.722072	-0.251208	-0.757890	0.646710	0.085840
17195		0.097762	0.241479	-0.965469	-0.642863	-0.725238	-0.246489	-0.759716	0.644762	0.084338
17196		0.094840	0.236791	-0.966921	-0.640774	-0.728813	-0.241330	-0.761849	0.642465	0.082609
17197		0.091017	0.231492	-0.968570	-0.640730	-0.730946	-0.234909	-0.762352	0.641973	0.081795
17198		0.086252	0.225817	-0.970344	-0.642940	-0.731394	-0.227358	-0.761045	0.643483	0.082103
17199		0.082194	0.220025	-0.972025	-0.640521	-0.735555	-0.220660	-0.763529	0.640740	0.080472
17200		0.079543	0.215557	-0.973246	-0.636745	-0.740207	-0.215984	-0.766961	0.636890	0.078377
17201		0.078638	0.212929	-0.973898	-0.632825	-0.744191	-0.213804	-0.770291	0.633120	0.076225
17202		0.078788	0.211852	-0.974121	-0.628719	-0.747758	-0.213474	-0.773631	0.629267	0.074281
17203		0.078844	0.212448	-0.973987	-0.628725	-0.747612	-0.213965	-0.773621	0.629239	0.074626
17204		0.080311	0.213054	-0.973734	-0.632231	-0.744349	-0.215008	-0.770606	0.632893	0.074920
17205		0.083407	0.214535	-0.973148	-0.639792	-0.737174	-0.217349	-0.764009	0.640741	0.075772
17206		0.087672	0.218591	-0.971870	-0.648935	-0.727673	-0.222207	-0.755776	0.650161	0.078054
17207		0.094738	0.225111	-0.969716	-0.652782	-0.721391	-0.231239	-0.751599	0.654920	0.078605
17208		0.104178	0.234542	-0.966508	-0.654960	-0.715139	-0.244139	-0.748448	0.658458	0.079114
17209		0.118139	0.246257	-0.961977	-0.651613	-0.711782	-0.262233	-0.749295	0.657817	0.076375
17210		0.135009	0.260610	-0.955958	-0.648395	-0.706299	-0.284121	-0.749237	0.658197	0.073621
17211		0.153605	0.278540	-0.948062	-0.645168	-0.698444	-0.309733	-0.748441	0.659236	0.072421
17212		0.172746	0.298196	-0.938743	-0.643870	-0.687055	-0.336730	-0.745380	0.662597	0.073313
17213		0.190971	0.318929	-0.928340	-0.643555	-0.673443	-0.363747	-0.741193	0.666903	0.076640
17214		0.204178	0.341485	-0.917442	-0.646934	-0.656300	-0.388261	-0.734702	0.672799	0.086917
17215		0.211844	0.365274	-0.906475	-0.652867	-0.637312	-0.409388	-0.727246	0.678534	0.103465
17216		0.214821	0.387147	-0.896643	-0.661666	-0.617590	-0.425184	-0.718366	0.684617	0.123491
17217		0.218684	0.404171	-0.888157	-0.658138	-0.610908	-0.440052	-0.720438	0.680762	0.132405
17218		0.222334	0.418796	-0.880441	-0.653581	-0.606070	-0.453333	-0.723464	0.676231	0.138967
17219		0.228630	0.428764	-0.874008	-0.636798	-0.613208	-0.467402	-0.736353	0.663429	0.132838
17220		0.237372	0.429939	-0.871096	-0.606516	-0.634870	-0.478621	-0.758811	0.641944	0.110064
17221		0.242458	0.426973	-0.871153	-0.588008	-0.649547	-0.482012	-0.771661	0.629112	0.093576
17222		0.238587	0.424517	-0.873419	-0.579151	-0.659749	-0.478868	-0.779526	0.620094	0.088452
17223		0.230437	0.417563	-0.878943	-0.572176	-0.672461	-0.469479	-0.787092	0.611095	0.083960
17224		0.213687	0.406623	-0.888254	-0.582047	-0.677253	-0.450055	-0.784576	0.613177	0.091953
17225		0.192411	0.389039	-0.900904	-0.596163	-0.682880	-0.422215	-0.779467	0.618324	0.100537
17226		0.166195	0.363083	-0.916815	-0.610357	-0.692362	-0.384835	-0.774495	0.623543	0.106543
17227		0.134084	0.329397	-0.934622	-0.623853	-0.704732	-0.337875	-0.769954	0.628371	0.111003
17228		0.095155	0.288243	-0.952818	-0.638718	-0.716478	-0.280533	-0.763535	0.635276	0.115929
17229		0.049514	0.241181	-0.969216	-0.654987	-0.724760	-0.213811	-0.754016	0.645411	0.122084
17230		-0.003598	0.189615	-0.981852	-0.670965	-0.728491	-0.138227	-0.741480	0.658291	0.129846
17231		-0.062185	0.134780	-0.988922	-0.685062	-0.726336	-0.055915	-0.725826	0.673996	0.137500
17232		-0.124688	0.075031	-0.989355	-0.694244	-0.718985	0.032969	-0.708857	0.690964	0.141738
17233		-0.190331	0.011938	-0.981647	-0.692256	-0.710641	0.125580	-0.696100	0.703453	0.143521
17234		-0.256971	-0.054204	-0.964898	-0.676306	-0.703123	0.219611	-0.690345	0.709000	0.144024
17235		-0.321237	-0.122967	-0.938981	-0.648338	-0.694168	0.312711	-0.690264	0.709232	0.143268
17236		-0.381610	-0.193006	-0.903948	-0.612482	-0.679639	0.403678	-0.692271	0.707700	0.141144
17237		-0.437211	-0.262597	-0.860168	-0.572300	-0.656558	0.491329	-0.693772	0.707088	0.136770
17238		-0.487743	-0.331166	-0.807735	-0.527528	-0.625410	0.574957	-0.695572	0.706534	0.130340
17239		-0.532767	-0.396523	-0.747616	-0.477335	-0.588681	0.652385	-0.698793	0.704432	0.124355
17240		-0.572561	-0.457176	-0.680562	-0.422821	-0.546530	0.722860	-0.702422	0.701637	0.119618
17241		-0.606568	-0.511578	-0.608576	-0.366307	-0.499550	0.785028	-0.705616	0.699098	0.115616
17242		-0.634729	-0.558823	-0.533700	-0.307975	-0.450495	0.837977	-0.708710	0.696255	0.113838
17243		-0.656942	-0.598328	-0.458727	-0.249650	-0.401482	0.881185	-0.711408	0.693409	0.114378
17244		-0.673114	-0.630214	-0.386973	-0.191431	-0.356949	0.914298	-0.714333	0.689505	0.119625
17245		-0.684961	-0.654146	-0.320814	-0.133889	-0.319815	0.937972	-0.716172	0.685428	0.131478
17246		-0.693329	-0.671793	-0.260746	-0.077829	-0.289911	0.953884	-0.716406	0.681649	0.148719
17247		-0.702315	-0.681556	-0.205514	-0.029325	-0.260753	0.964960	-0.711262	0.683732	0.163144
17248		-0.712271	-0.684158	-0.156839	0.009866	-0.233185	0.972382	-0.701835	0.691052	0.172841
17249		-0.722458	-0.681984	-0.113805	0.046358	-0.212005	0.976168	-0.689859	0.699965	0.184781
17250		-0.730541	-0.678339	-0.078521	0.076905	-0.195983	0.977587	-0.678524	0.708129	0.195342
17251		-0.736501	-0.674509	-0.051028	0.102455	-0.185800	0.977231	-0.668633	0.714504	0.205949
17252		-0.739958	-0.671986	-0.029929	0.126982	-0.183243	0.974832	-0.660558	0.717535	0.220922
17253		-0.741993	-0.670262	-0.013959	0.152158	-0.188647	0.970186	-0.652912	0.717747	0.241960
17254		-0.743004	-0.669285	-0.001902	0.179379	-0.201873	0.962845	-0.644801	0.715056	0.270048
17255		-0.742823	-0.669451	0.007034	0.206018	-0.218576	0.953824	-0.637001	0.709972	0.300282
17256		-0.742113	-0.670145	0.013196	0.227389	-0.233191	0.945471	-0.630526	0.704647	0.325438
17257		-0.741593	-0.670651	0.016353	0.240160	-0.242646	0.939918	-0.626389	0.700964	0.341009
17258		-0.742479	-0.669671	0.016309	0.242617	-0.246142	0.938377	-0.624389	0.700682	0.345229
17259		-0.744472	-0.667544	0.012082	0.235722	-0.245870	0.940204	-0.624657	0.702804	0.340398
17260		-0.746726	-0.665128	0.002325	0.221357	-0.245214	0.943860	-0.627217	0.705319	0.330339
17261		-0.748146	-0.663396	-0.013570	0.201295	-0.246403	0.948033	-0.632265	0.706535	0.317883
17262		-0.748271	-0.662415	-0.036004	0.176688	-0.251314	0.951642	-0.639430	0.705725	0.305092
17263		-0.747162	-0.661439	-0.065172	0.148077	-0.261251	0.953845	-0.647937	0.703026	0.293141
17264		-0.745587	-0.658796	-0.100437	0.115285	-0.275951	0.954233	-0.656361	0.699885	0.281694
17265		-0.743829	-0.653404	-0.140647	0.078238	-0.294108	0.952565	-0.663775	0.697541	0.269887
17266		-0.741696	-0.644750	-0.184890	0.039628	-0.317294	0.947499	-0.669564	0.695430	0.260886
17267		-0.738615	-0.633010	-0.231833	0.001591	-0.345536	0.938404	-0.674126	0.692750	0.256225
17268		-0.734738	-0.617450	-0.280920	-0.035951	-0.378097	0.925068	-0.677398	0.689781	0.255604
17269		-0.730332	-0.597371	-0.331306	-0.073926	-0.413041	0.907707	-0.679081	0.687419	0.257496
17270		-0.724395	-0.573602	-0.382403	-0.113178	-0.448224	0.886728	-0.680031	0.685621	0.259772
17271		-0.716611	-0.546383	-0.433514	-0.151766	-0.484505	0.861523	-0.680761	0.683170	0.264279
17272		-0.707115	-0.515293	-0.484212	-0.189222	-0.521915	0.831745	-0.681310	0.679763	0.271549
17273		-0.695418	-0.480796	-0.534068	-0.224898	-0.560249	0.797209	-0.682506	0.674504	0.281477
17274		-0.680737	-0.443457	-0.583047	-0.260259	-0.597592	0.758385	-0.684735	0.668004	0.291390
17275		-0.662951	-0.403881	-0.630378	-0.294700	-0.633246	0.715647	-0.688220	0.660212	0.300788
17276		-0.641943	-0.362074	-0.675878	-0.327159	-0.667871	0.668518	-0.693452	0.650270	0.310279
17277		-0.618157	-0.316929	-0.719332	-0.359091	-0.700190	0.617080	-0.699239	0.639758	0.319021
17278		-0.591510	-0.270229	-0.759666	-0.391579	-0.727320	0.563623	-0.704828	0.630858	0.324401
17279		-0.562584	-0.221228	-0.796591	-0.423875	-0.750070	0.507666	-0.709809	0.623260	0.328204
17280		-0.530752	-0.169972	-0.830308	-0.455413	-0.769033	0.448539	-0.714773	0.616196	0.330758
17281		-0.495821	-0.117359	-0.860458	-0.484550	-0.784866	0.386260	-0.720675	0.608451	0.332287
17282		-0.457224	-0.063663	-0.887070	-0.511462	-0.797165	0.320834	-0.727567	0.600395	0.331922
17283		-0.416499	-0.010525	-0.909075	-0.536553	-0.804373	0.255138	-0.733921	0.594031	0.329374
17284		-0.374097	0.040767	-0.926493	-0.558245	-0.807659	0.189869	-0.740550	0.588239	0.324900
17285		-0.331794	0.090145	-0.939035	-0.576877	-0.806998	0.126361	-0.746408	0.583634	0.319760
17286		-0.289586	0.137837	-0.947175	-0.593700	-0.802073	0.064795	-0.750773	0.581102	0.314103
17287		-0.248125	0.182877	-0.951309	-0.608613	-0.793443	0.006212	-0.753674	0.580520	0.308175
17288		-0.207648	0.224377	-0.952123	-0.620699	-0.782514	-0.049038	-0.756052	0.580799	0.301758
17289		-0.169348	0.261728	-0.950168	-0.627975	-0.771698	-0.100644	-0.759584	0.579638	0.295044
17290		-0.133445	0.295252	-0.946054	-0.632711	-0.760118	-0.147977	-0.762804	0.578832	0.288243
17291		-0.100553	0.324548	-0.940509	-0.637042	-0.747121	-0.189706	-0.764242	0.580068	0.281876
17292		-0.071437	0.349898	-0.934060	-0.639965	-0.734372	-0.226150	-0.765077	0.581610	0.276384
17293		-0.047771	0.370438	-0.927628	-0.640342	-0.724107	-0.256188	-0.766603	0.581761	0.271798
17294		-0.028705	0.385354	-0.922322	-0.638715	-0.716837	-0.279622	-0.768908	0.581074	0.266708
17295		-0.012506	0.393517	-0.919232	-0.634205	-0.713858	-0.296970	-0.773064	0.579268	0.258498
17296		0.001504	0.395297	-0.918552	-0.628436	-0.714133	-0.308355	-0.777860	0.577715	0.247345
17297		0.011261	0.392284	-0.919775	-0.622270	-0.717270	-0.313535	-0.782722	0.575879	0.236029
17298		0.017460	0.385663	-0.922474	-0.617928	-0.721161	-0.313195	-0.786041	0.575492	0.225721
17299		0.020347	0.375221	-0.926712	-0.616734	-0.724829	-0.307021	-0.786908	0.577782	0.216664
17300		0.020313	0.360910	-0.932380	-0.618129	-0.728446	-0.295436	-0.785814	0.582332	0.208292
17301		0.017174	0.343629	-0.938948	-0.623048	-0.730792	-0.278845	-0.781995	0.589799	0.201546
17302		0.011417	0.325633	-0.945427	-0.630477	-0.731520	-0.259571	-0.776124	0.599033	0.196952
17303		0.005231	0.307669	-0.951479	-0.640932	-0.729325	-0.239357	-0.767580	0.611085	0.193380
17304		0.002660	0.288662	-0.957427	-0.654255	-0.723575	-0.219974	-0.756269	0.626987	0.186934
17305		0.006178	0.267184	-0.963626	-0.664342	-0.719148	-0.203658	-0.747404	0.641435	0.173058
17306		0.011067	0.251060	-0.967908	-0.673244	-0.713828	-0.192853	-0.739338	0.653772	0.161124
17307		0.012570	0.242294	-0.970121	-0.686632	-0.703197	-0.184525	-0.726896	0.668436	0.157528
17308		0.017160	0.235944	-0.971615	-0.694813	-0.695969	-0.181278	-0.718986	0.678202	0.151994
17309		0.023158	0.232720	-0.972268	-0.697664	-0.692805	-0.182445	-0.716051	0.682541	0.146317
17310		0.024338	0.234474	-0.971818	-0.698203	-0.691747	-0.184386	-0.715486	0.683014	0.146875
17311		0.016517	0.239374	-0.970787	-0.702026	-0.688573	-0.181731	-0.711959	0.684520	0.156674
17312		0.005691	0.241462	-0.970394	-0.705906	-0.686365	-0.174927	-0.708283	0.686002	0.166544
17313		-0.002409	0.237377	-0.971415	-0.703306	-0.690968	-0.167103	-0.710883	0.682799	0.168613
17314		-0.007916	0.229748	-0.973218	-0.692804	-0.703075	-0.160340	-0.721083	0.672980	0.164736
17315		-0.012951	0.222885	-0.974759	-0.676478	-0.719836	-0.155608	-0.736349	0.657387	0.160099
17316		-0.019044	0.219688	-0.975384	-0.660352	-0.735265	-0.152713	-0.750715	0.641188	0.159074
17317		-0.026064	0.221612	-0.974787	-0.643997	-0.749535	-0.153183	-0.764584	0.623767	0.162253
17318		-0.032640	0.229472	-0.972768	-0.624635	-0.764480	-0.159379	-0.780235	0.602422	0.168289
17319		-0.036727	0.242240	-0.969521	-0.603876	-0.778386	-0.171608	-0.796231	0.579168	0.174871
17320		-0.037105	0.258744	-0.965233	-0.587209	-0.787194	-0.188445	-0.808584	0.559801	0.181146
17321		-0.033338	0.278721	-0.959793	-0.574897	-0.790896	-0.209705	-0.817546	0.544791	0.186603
17322		-0.024703	0.301045	-0.953290	-0.564923	-0.790932	-0.235134	-0.824774	0.532727	0.189606
17323		-0.011389	0.323807	-0.946055	-0.559174	-0.786417	-0.262436	-0.828972	0.526020	0.190021
17324		0.008888	0.346926	-0.937850	-0.556781	-0.777334	-0.292825	-0.830612	0.524780	0.186253
17325		0.034635	0.373105	-0.927143	-0.565095	-0.757849	-0.326087	-0.824299	0.535217	0.184592
17326		0.064410	0.403571	-0.912678	-0.581741	-0.727916	-0.362927	-0.810820	0.554318	0.187889
17327		0.097058	0.439016	-0.893222	-0.602382	-0.688505	-0.403853	-0.792285	0.577258	0.197630
17328		0.132425	0.478294	-0.868158	-0.619157	-0.644051	-0.449270	-0.774021	0.597021	0.210850
17329		0.169525	0.520463	-0.836887	-0.633553	-0.592905	-0.497066	-0.754899	0.614477	0.229228
17330		0.206844	0.564959	-0.798772	-0.642998	-0.536850	-0.546211	-0.737408	0.626589	0.252224
17331		0.244375	0.609116	-0.754492	-0.643723	-0.479995	-0.596007	-0.725190	0.631334	0.274803
17332		0.281632	0.651569	-0.704373	-0.631789	-0.426575	-0.647207	-0.722167	0.627289	0.291518
17333		0.318485	0.691524	-0.648353	-0.608073	-0.375663	-0.699375	-0.727196	0.616986	0.300854
17334		0.354711	0.728091	-0.586569	-0.574415	-0.325302	-0.751150	-0.737717	0.603376	0.302838
17335		0.389191	0.760441	-0.519865	-0.533636	-0.273889	-0.800136	-0.750841	0.588824	0.299204
17336		0.421665	0.787169	-0.450070	-0.488683	-0.220820	-0.844054	-0.763798	0.575850	0.291564
17337		0.451894	0.807972	-0.378117	-0.440016	-0.166829	-0.882357	-0.776001	0.565110	0.280132
17338		0.479691	0.822940	-0.304410	-0.389310	-0.111297	-0.914358	-0.786342	0.557120	0.266990
17339		0.505060	0.832031	-0.229431	-0.337124	-0.054529	-0.939880	-0.794520	0.552042	0.252957
17340		0.527668	0.835542	-0.153089	-0.285893	0.004978	-0.958249	-0.799895	0.549404	0.241502
17341		0.545828	0.834477	-0.075629	-0.237337	0.067412	-0.969086	-0.803582	0.546903	0.234848
17342		0.558797	0.829302	0.002036	-0.193197	0.132566	-0.972163	-0.806487	0.542848	0.234296
17343		0.567907	0.819438	0.077476	-0.153576	0.197966	-0.968103	-0.808638	0.537895	0.238272
17344		0.572589	0.805838	0.150885	-0.116021	0.261837	-0.958113	-0.811591	0.531099	0.243419
17345		0.573337	0.788734	0.221775	-0.080805	0.323796	-0.942670	-0.815325	0.522547	0.249378
17346		0.570807	0.768378	0.289437	-0.046955	0.382476	-0.922772	-0.819740	0.513134	0.254399
17347		0.565299	0.745720	0.352616	-0.014790	0.436566	-0.899550	-0.824753	0.503300	0.257820
17348		0.557233	0.721389	0.411204	0.015330	0.486192	-0.873717	-0.830215	0.493168	0.259864
17349		0.547487	0.695777	0.464921	0.043978	0.530894	-0.846296	-0.835658	0.483783	0.260059
17350		0.536037	0.669468	0.514274	0.069238	0.572272	-0.817136	-0.841350	0.473622	0.260406
17351		0.522919	0.643116	0.559426	0.090659	0.610623	-0.786715	-0.847547	0.462105	0.261002
17352		0.509136	0.617736	0.599319	0.107977	0.644981	-0.756532	-0.853886	0.449890	0.261681
17353		0.495062	0.594255	0.633857	0.121103	0.675214	-0.727613	-0.860376	0.436976	0.262306
17354		0.480390	0.574120	0.663033	0.130121	0.700956	-0.701234	-0.867349	0.423140	0.262026
17355		0.465716	0.557370	0.687348	0.135148	0.722813	-0.677699	-0.874553	0.408509	0.261298
17356		0.452898	0.543543	0.706714	0.138480	0.740163	-0.658014	-0.880742	0.395879	0.259949
17357		0.442649	0.532823	0.721222	0.140603	0.753119	-0.642683	-0.885603	0.385889	0.258451
17358		0.435187	0.525495	0.731073	0.140272	0.762508	-0.631590	-0.889346	0.377408	0.258121
17359		0.430290	0.522013	0.736446	0.137336	0.768480	-0.624962	-0.892182	0.370055	0.258978
17360		0.427969	0.522596	0.737384	0.132211	0.770900	-0.623084	-0.894071	0.364151	0.260829
17361		0.427667	0.527047	0.734386	0.122591	0.771108	-0.624791	-0.895585	0.357232	0.265166
17362		0.430006	0.535156	0.727119	0.110079	0.768295	-0.630560	-0.896090	0.351185	0.271462
17363		0.435027	0.546318	0.715743	0.095522	0.762414	-0.640000	-0.895336	0.346787	0.279485
17364		0.441739	0.560298	0.700665	0.078578	0.753831	-0.652353	-0.893696	0.343227	0.288969
17365		0.449603	0.576524	0.682258	0.059706	0.742706	-0.666950	-0.891231	0.340598	0.299501
17366		0.458415	0.594457	0.660663	0.039634	0.728959	-0.683409	-0.887854	0.339470	0.310605
17367		0.467653	0.613885	0.635961	0.018585	0.712496	-0.701430	-0.883717	0.339845	0.321792
17368		0.476952	0.634896	0.607802	-0.003979	0.693078	-0.720851	-0.878920	0.341393	0.333092
17369		0.485841	0.657123	0.576324	-0.028317	0.670861	-0.741042	-0.873589	0.343709	0.344539
17370		0.495091	0.679670	0.541234	-0.052158	0.645064	-0.762347	-0.867274	0.349201	0.354815
17371		0.504180	0.702271	0.502612	-0.076727	0.616122	-0.783905	-0.860184	0.356665	0.364519
17372		0.512723	0.724524	0.460629	-0.102863	0.584492	-0.804853	-0.852370	0.365285	0.374210
17373		0.520731	0.745570	0.415890	-0.130385	0.550889	-0.824331	-0.843706	0.375029	0.384076
17374		0.528355	0.764786	0.368704	-0.158464	0.515467	-0.842130	-0.834104	0.386518	0.393540
17375		0.535332	0.781909	0.319434	-0.189039	0.479509	-0.856934	-0.823215	0.398359	0.404508
17376		0.540322	0.797596	0.268130	-0.227385	0.445192	-0.866083	-0.810153	0.406995	0.421908
17377		0.542392	0.812255	0.214598	-0.272021	0.411468	-0.869884	-0.794868	0.413443	0.444127
17378		0.542543	0.825142	0.157439	-0.319576	0.376073	-0.869736	-0.776864	0.421556	0.467732
17379		0.541264	0.835240	0.096995	-0.367380	0.338668	-0.866219	-0.756350	0.433219	0.490159
17380		0.538158	0.842166	0.033809	-0.414406	0.299316	-0.859464	-0.733930	0.448516	0.510078
17381		0.531764	0.846327	-0.030944	-0.461607	0.259016	-0.848428	-0.710032	0.465447	0.528406
17382		0.520355	0.848467	-0.096615	-0.509530	0.217696	-0.832458	-0.685281	0.482402	0.545599
17383		0.504925	0.847566	-0.163349	-0.555750	0.174422	-0.812846	-0.660449	0.501207	0.559104
17384		0.486382	0.842718	-0.230780	-0.599109	0.129399	-0.790142	-0.636004	0.522573	0.567817
17385		0.465191	0.833706	-0.297543	-0.639099	0.083742	-0.764552	-0.612495	0.545822	0.571776
17386		0.440303	0.821247	-0.362886	-0.676158	0.037383	-0.735808	-0.590714	0.569347	0.571753
17387		0.410974	0.805970	-0.426042	-0.709732	-0.010447	-0.704394	-0.572172	0.591864	0.567730
17388		0.376688	0.787638	-0.487578	-0.740685	-0.060007	-0.669167	-0.556320	0.613209	0.560788
17389		0.337152	0.765927	-0.547435	-0.769057	-0.111331	-0.629409	-0.543028	0.633215	0.551506
17390		0.292360	0.739824	-0.605958	-0.795548	-0.163474	-0.583421	-0.530687	0.652638	0.540772
17391		0.240901	0.710497	-0.661182	-0.818178	-0.217778	-0.532125	-0.522064	0.669154	0.528850
17392		0.183955	0.677381	-0.712261	-0.840173	-0.267741	-0.471620	-0.510167	0.685179	0.519864
17393		0.123893	0.641978	-0.756647	-0.861706	-0.308506	-0.402848	-0.492050	0.701917	0.514975
17394		0.061634	0.602534	-0.795710	-0.877077	-0.347809	-0.331307	-0.476379	0.718318	0.507032
17395		-0.002790	0.561593	-0.827409	-0.884886	-0.386796	-0.259549	-0.465799	0.731438	0.498025
17396		-0.067808	0.519114	-0.852011	-0.888542	-0.419812	-0.185068	-0.453756	0.744499	0.489721
17397		-0.130441	0.476098	-0.869664	-0.885570	-0.450368	-0.113727	-0.445814	0.755314	0.480365
17398		-0.186060	0.431828	-0.882557	-0.875205	-0.481070	-0.050874	-0.446541	0.762952	0.467446
17399		-0.232261	0.385185	-0.893133	-0.858750	-0.512389	0.002340	-0.456730	0.767522	0.449786
17400		-0.273088	0.341490	-0.899337	-0.835876	-0.546977	0.046123	-0.476166	0.764330	0.434816
17401		-0.309936	0.304344	-0.900730	-0.806756	-0.585475	0.079776	-0.503076	0.751395	0.426991
17402		-0.341415	0.273154	-0.899346	-0.775163	-0.622964	0.105062	-0.531562	0.733009	0.424429
17403		-0.367809	0.247181	-0.896448	-0.746440	-0.653396	0.126098	-0.554566	0.715525	0.424831
17404		-0.389965	0.226269	-0.892597	-0.721227	-0.677715	0.143298	-0.572502	0.699646	0.427476
17405		-0.408732	0.210333	-0.888087	-0.699493	-0.697224	0.156805	-0.586214	0.685302	0.432105
17406		-0.424826	0.198739	-0.883191	-0.680247	-0.713803	0.166585	-0.597317	0.671557	0.438434
17407		-0.437965	0.190835	-0.878504	-0.661910	-0.729707	0.171473	-0.608327	0.656590	0.445901
17408		-0.447623	0.185371	-0.874798	-0.642891	-0.746686	0.170736	-0.621550	0.638825	0.453407
17409		-0.453434	0.181707	-0.872571	-0.624239	-0.763526	0.165388	-0.636179	0.619685	0.459637
17410		-0.455792	0.179502	-0.871798	-0.607913	-0.778206	0.157596	-0.650150	0.601809	0.463822
17411		-0.455042	0.179021	-0.872289	-0.596292	-0.788785	0.149180	-0.661342	0.588022	0.465679
17412		-0.451976	0.180274	-0.873624	-0.591205	-0.793916	0.142038	-0.667978	0.580688	0.465410
17413		-0.447449	0.183983	-0.875180	-0.593981	-0.792722	0.137034	-0.668563	0.581156	0.463985
17414		-0.442088	0.190217	-0.876570	-0.604164	-0.785469	0.134255	-0.662981	0.588945	0.462169
17415		-0.435784	0.198786	-0.877825	-0.618887	-0.774329	0.131889	-0.653507	0.600749	0.460467
17416		-0.428450	0.208720	-0.879128	-0.634824	-0.761897	0.128499	-0.642985	0.613147	0.458935
17417		-0.420282	0.219628	-0.880413	-0.649507	-0.750363	0.122869	-0.633643	0.623474	0.458014
17418		-0.411467	0.231323	-0.881581	-0.660951	-0.741741	0.113860	-0.627566	0.629531	0.458095
17420		-0.390147	0.256498	-0.884304	-0.673975	-0.733908	0.084477	-0.627330	0.628957	0.459205
17421		-0.376594	0.268828	-0.886515	-0.677274	-0.732810	0.065490	-0.632042	0.625077	0.458042
17422		-0.361504	0.280480	-0.889183	-0.678251	-0.733489	0.044379	-0.639758	0.619132	0.455395
17423		-0.345632	0.291311	-0.892007	-0.677844	-0.734856	0.022660	-0.648896	0.612474	0.451453
17424		-0.329620	0.301707	-0.894608	-0.677229	-0.735771	0.001387	-0.657809	0.606311	0.446850
17425		-0.313156	0.311765	-0.897071	-0.677046	-0.735686	-0.019330	-0.665989	0.601305	0.441464
17426		-0.295843	0.321166	-0.899627	-0.678159	-0.733881	-0.038983	-0.672739	0.598557	0.434915
17427		-0.277726	0.330113	-0.902161	-0.679151	-0.731652	-0.058647	-0.679428	0.596415	0.427395
17428		-0.258537	0.338384	-0.904796	-0.680324	-0.728734	-0.078143	-0.685798	0.595351	0.418615
17429		-0.238346	0.345631	-0.907596	-0.681536	-0.725297	-0.097227	-0.691881	0.595386	0.408432
17430		-0.217670	0.351578	-0.910501	-0.682521	-0.721682	-0.115500	-0.697699	0.596296	0.397048
17431		-0.197316	0.356778	-0.913113	-0.684135	-0.717236	-0.132408	-0.702158	0.598567	0.385606
17432		-0.177827	0.361789	-0.915143	-0.687985	-0.710630	-0.147251	-0.703601	0.603419	0.375275
17433		-0.158824	0.366532	-0.916749	-0.692125	-0.703508	-0.161367	-0.704087	0.608876	0.365420
17434		-0.140265	0.370902	-0.918018	-0.695505	-0.696818	-0.175265	-0.704698	0.613902	0.355703
17435		-0.122095	0.374679	-0.919080	-0.697298	-0.691357	-0.189212	-0.706306	0.617771	0.345674
17436		-0.104308	0.377688	-0.920039	-0.696205	-0.688351	-0.203646	-0.710224	0.619294	0.334749
17437		-0.086517	0.380351	-0.920787	-0.692824	-0.687131	-0.218737	-0.715898	0.619018	0.322964
17438		-0.068623	0.382859	-0.921254	-0.689658	-0.685457	-0.233494	-0.720876	0.619328	0.311080
17439		-0.050267	0.385113	-0.921499	-0.687587	-0.682532	-0.247737	-0.724360	0.621158	0.299108
17440		-0.031728	0.386803	-0.921616	-0.686345	-0.678738	-0.261238	-0.726584	0.624258	0.287015
17441		-0.013586	0.387673	-0.921697	-0.687012	-0.673373	-0.273099	-0.726519	0.629507	0.275484
17442		0.003282	0.387805	-0.921736	-0.689078	-0.667094	-0.283122	-0.724680	0.636077	0.265038
17443		0.019488	0.386909	-0.921912	-0.691099	-0.661119	-0.292068	-0.722497	0.642824	0.254509
17444		0.034789	0.385035	-0.922246	-0.693882	-0.654822	-0.299560	-0.719248	0.650351	0.244388
17445		0.049510	0.381947	-0.922857	-0.697229	-0.648374	-0.305751	-0.715137	0.658580	0.234204
17446		0.063432	0.377296	-0.923918	-0.700206	-0.642843	-0.310587	-0.711118	0.666634	0.223408
17447		0.075965	0.371446	-0.925342	-0.702610	-0.638547	-0.314002	-0.707509	0.674007	0.212474
17448		0.085905	0.364936	-0.927061	-0.705111	-0.635116	-0.315351	-0.703875	0.680771	0.202761
17449		0.092778	0.358171	-0.929035	-0.708398	-0.631934	-0.314374	-0.699689	0.687293	0.195099
17450		0.096914	0.350882	-0.931391	-0.711266	-0.630176	-0.311415	-0.696211	0.692647	0.188497
17451		0.099124	0.342896	-0.934129	-0.712495	-0.630866	-0.307181	-0.694641	0.696011	0.181777
17452		0.099471	0.334007	-0.937307	-0.711545	-0.634596	-0.301649	-0.695564	0.696942	0.174537
17453		0.097797	0.324312	-0.940881	-0.708603	-0.641143	-0.294649	-0.698797	0.695527	0.167107
17454		0.093652	0.313559	-0.944939	-0.704518	-0.649756	-0.285433	-0.703480	0.692458	0.160057
17455		0.087594	0.301269	-0.949507	-0.700909	-0.658668	-0.273649	-0.707852	0.689488	0.153466
17456		0.079492	0.286945	-0.954643	-0.698465	-0.667241	-0.258719	-0.711216	0.687351	0.147381
17457		0.069491	0.271222	-0.960005	-0.694322	-0.677840	-0.241764	-0.716302	0.683353	0.141212
17458		0.058755	0.253721	-0.965491	-0.688880	-0.689670	-0.223160	-0.722491	0.678219	0.134262
17459		0.047317	0.235179	-0.970800	-0.685515	-0.699242	-0.202806	-0.726519	0.675094	0.128133
17460		0.037030	0.216185	-0.975650	-0.685031	-0.705339	-0.182290	-0.727573	0.675100	0.121975
17461		0.029526	0.197648	-0.979828	-0.689488	-0.705688	-0.163127	-0.723695	0.680396	0.115440
17462		0.022679	0.185336	-0.982413	-0.693923	-0.704480	-0.148922	-0.719692	0.685097	0.112632
17463		0.015778	0.184460	-0.982713	-0.697722	-0.701959	-0.142963	-0.716195	0.687916	0.117626
17464		0.010921	0.188827	-0.981950	-0.697075	-0.702621	-0.142866	-0.716915	0.686053	0.123953
17465		0.009898	0.188419	-0.982039	-0.689103	-0.710366	-0.143240	-0.724596	0.678144	0.122809
17466		0.006049	0.185273	-0.982668	-0.680508	-0.719280	-0.139803	-0.732715	0.669560	0.121729
17467		-0.001781	0.180354	-0.983600	-0.673063	-0.727673	-0.132208	-0.739583	0.661789	0.122685
17468		-0.009812	0.173178	-0.984842	-0.668461	-0.733616	-0.122342	-0.743682	0.657128	0.122961
17469		-0.015301	0.165424	-0.986104	-0.667084	-0.736336	-0.113173	-0.744826	0.656082	0.121619
17470		-0.016674	0.158168	-0.987271	-0.664363	-0.739671	-0.107280	-0.747224	0.654118	0.117414
17471		-0.015597	0.152924	-0.988115	-0.662821	-0.741479	-0.104291	-0.748615	0.653317	0.112926
17472		-0.013685	0.149422	-0.988679	-0.664506	-0.740196	-0.102670	-0.747157	0.655578	0.109422
17473		-0.012626	0.146551	-0.989123	-0.666859	-0.738324	-0.100879	-0.745077	0.658332	0.107051
17474		-0.014151	0.144191	-0.989449	-0.671025	-0.734994	-0.097513	-0.741300	0.662565	0.107157
17475		-0.016971	0.141783	-0.989752	-0.676162	-0.730847	-0.093100	-0.736558	0.667652	0.108271
17476		-0.019961	0.139148	-0.990070	-0.682121	-0.725892	-0.088268	-0.730967	0.673586	0.109405
17477		-0.022307	0.136252	-0.990423	-0.689095	-0.719844	-0.083508	-0.724328	0.680632	0.109949
17478		-0.023968	0.133089	-0.990814	-0.696020	-0.713661	-0.079024	-0.717623	0.687732	0.109738
17479		-0.025371	0.129723	-0.991226	-0.701557	-0.708678	-0.074789	-0.712162	0.693504	0.108988
17480		-0.026619	0.125995	-0.991674	-0.704090	-0.706565	-0.070872	-0.709612	0.696341	0.107519
17481		-0.027900	0.122287	-0.992102	-0.703187	-0.707796	-0.067469	-0.710457	0.695751	0.105739
17482		-0.029277	0.119112	-0.992449	-0.699431	-0.711757	-0.064791	-0.714100	0.692253	0.104149
17483		-0.030725	0.116506	-0.992715	-0.693849	-0.717384	-0.062718	-0.719465	0.686867	0.102879
17484		-0.032229	0.114213	-0.992933	-0.687498	-0.723627	-0.060921	-0.725471	0.680676	0.101843
17485		-0.033612	0.112030	-0.993136	-0.681087	-0.729799	-0.059274	-0.731431	0.674420	0.100832
17486		-0.034741	0.109736	-0.993353	-0.675055	-0.735512	-0.057643	-0.736949	0.668566	0.099631
17487		-0.035764	0.107591	-0.993552	-0.670402	-0.739882	-0.055990	-0.741135	0.664077	0.098591
17488		-0.036553	0.105430	-0.993755	-0.667744	-0.742415	-0.054203	-0.743493	0.661593	0.097538
17489		-0.037109	0.103437	-0.993944	-0.666460	-0.743689	-0.052512	-0.744617	0.660475	0.096534
17490		-0.037682	0.101746	-0.994097	-0.666445	-0.743817	-0.050867	-0.744601	0.660594	0.095837
17491		-0.038283	0.100416	-0.994209	-0.667652	-0.742838	-0.049319	-0.743489	0.661897	0.095481
17492		-0.038840	0.099337	-0.994296	-0.669610	-0.741167	-0.047891	-0.741696	0.663931	0.095304
17493		-0.039107	0.098510	-0.994367	-0.671227	-0.739768	-0.046889	-0.740220	0.665612	0.095053
17494		-0.039284	0.098168	-0.994394	-0.672503	-0.738641	-0.046353	-0.739051	0.666912	0.095035
17495		-0.039196	0.098165	-0.994398	-0.673285	-0.737931	-0.046308	-0.738343	0.667698	0.095017
17496		-0.038930	0.098298	-0.994395	-0.673192	-0.737998	-0.046598	-0.738442	0.667605	0.094904
17497		-0.038684	0.098427	-0.994392	-0.672410	-0.738688	-0.046959	-0.739167	0.666823	0.094759
17498		-0.038542	0.098383	-0.994402	-0.671036	-0.739921	-0.047197	-0.740422	0.665461	0.094536
17499		-0.038376	0.098091	-0.994437	-0.669403	-0.741392	-0.047298	-0.741907	0.663864	0.094114
17500		-0.038306	0.097795	-0.994469	-0.667672	-0.742949	-0.047342	-0.743469	0.662166	0.093754
17501		-0.038219	0.097741	-0.994478	-0.665731	-0.744672	-0.047605	-0.745212	0.660235	0.093530
17502		-0.038014	0.098130	-0.994447	-0.663914	-0.746250	-0.048259	-0.746842	0.658393	0.093518
17503		-0.037549	0.099013	-0.994377	-0.662483	-0.747446	-0.049409	-0.748135	0.656903	0.093660
17504		-0.036880	0.100357	-0.994268	-0.661532	-0.748182	-0.050980	-0.749009	0.655860	0.093982
17505		-0.036088	0.102168	-0.994112	-0.660975	-0.748539	-0.052935	-0.749540	0.655173	0.094544
17506		-0.034970	0.104327	-0.993928	-0.660285	-0.748971	-0.055384	-0.750201	0.654339	0.095077
17507		-0.033727	0.106697	-0.993719	-0.659626	-0.749347	-0.058070	-0.750837	0.653525	0.095653
17508		-0.032346	0.108955	-0.993520	-0.658799	-0.749859	-0.060785	-0.751623	0.652565	0.096034
17509		-0.030976	0.110936	-0.993345	-0.657653	-0.750655	-0.063325	-0.752684	0.651314	0.096210
17510		-0.029748	0.112714	-0.993182	-0.656202	-0.751723	-0.065657	-0.753998	0.649775	0.096326
17511		-0.028723	0.114409	-0.993018	-0.655016	-0.752570	-0.067759	-0.755069	0.648497	0.096556
17512		-0.027634	0.115907	-0.992876	-0.654015	-0.753261	-0.069732	-0.755977	0.647428	0.096620
17513		-0.026667	0.117363	-0.992731	-0.653640	-0.753419	-0.071513	-0.756336	0.646981	0.096804
17514		-0.025743	0.118829	-0.992581	-0.653809	-0.753110	-0.073203	-0.756221	0.647074	0.097079
17515		-0.024800	0.120315	-0.992426	-0.654340	-0.752485	-0.074875	-0.755794	0.647527	0.097388
17516		-0.023884	0.121833	-0.992263	-0.654940	-0.751795	-0.076543	-0.755304	0.648044	0.097749
17517		-0.022951	0.123538	-0.992074	-0.655737	-0.750914	-0.078337	-0.754640	0.648742	0.098243
17518		-0.021847	0.125228	-0.991887	-0.656783	-0.749802	-0.080198	-0.753763	0.649703	0.098629
17519		-0.020684	0.126811	-0.991711	-0.657476	-0.748993	-0.082062	-0.753191	0.650329	0.098867
17520		-0.019599	0.128138	-0.991563	-0.658038	-0.748319	-0.083698	-0.752730	0.650845	0.098986
17521		-0.018741	0.128906	-0.991480	-0.658500	-0.747791	-0.084776	-0.752348	0.651300	0.098899
17522		-0.018086	0.129196	-0.991454	-0.658598	-0.747632	-0.085410	-0.752278	0.651425	0.098610
17523		-0.017774	0.129302	-0.991446	-0.658330	-0.747832	-0.085729	-0.752520	0.651174	0.098415
17524		-0.017500	0.129315	-0.991449	-0.658071	-0.748034	-0.085951	-0.752753	0.650940	0.098189
17525		-0.017102	0.129390	-0.991446	-0.657878	-0.748165	-0.086292	-0.752931	0.650775	0.097918
17526		-0.016586	0.129522	-0.991438	-0.658090	-0.747931	-0.086700	-0.752756	0.651018	0.097642
17527		-0.016009	0.129782	-0.991413	-0.658596	-0.747426	-0.087208	-0.752327	0.651545	0.097439
17528		-0.015360	0.130086	-0.991384	-0.658836	-0.747142	-0.087830	-0.752130	0.651810	0.097181
17529		-0.014781	0.130423	-0.991348	-0.659181	-0.746768	-0.088417	-0.751839	0.652171	0.097011
17530		-0.014145	0.130603	-0.991334	-0.659538	-0.746393	-0.088922	-0.751538	0.652564	0.096695
17531		-0.013546	0.130462	-0.991361	-0.659814	-0.746119	-0.089173	-0.751307	0.652906	0.096188
17532		-0.012955	0.130059	-0.991422	-0.659991	-0.745955	-0.089233	-0.751162	0.653173	0.095502
17533		-0.012402	0.129677	-0.991479	-0.660074	-0.745874	-0.089297	-0.751098	0.653342	0.094847
17534		-0.011850	0.129437	-0.991517	-0.659990	-0.745925	-0.089489	-0.751181	0.653331	0.094266
17535		-0.011229	0.129331	-0.991538	-0.659903	-0.745962	-0.089826	-0.751267	0.653310	0.093722
17536		-0.010521	0.129298	-0.991550	-0.660053	-0.745779	-0.090245	-0.751145	0.653526	0.093190
17537		-0.009849	0.129414	-0.991542	-0.660584	-0.745253	-0.090708	-0.750688	0.654103	0.092829
17538		-0.009193	0.129621	-0.991521	-0.661475	-0.744404	-0.091183	-0.749911	0.655028	0.092584
17539		-0.008560	0.129817	-0.991501	-0.662553	-0.743392	-0.091612	-0.748966	0.656138	0.092374
17540		-0.007953	0.129907	-0.991494	-0.663674	-0.742350	-0.091941	-0.747979	0.657298	0.092120
17541		-0.007327	0.129757	-0.991519	-0.664633	-0.741469	-0.092123	-0.747134	0.658321	0.091673
17542		-0.006658	0.129500	-0.991557	-0.665051	-0.741069	-0.092320	-0.746768	0.658822	0.091059
17543		-0.006028	0.129208	-0.991599	-0.665241	-0.740877	-0.092494	-0.746604	0.659095	0.090420
17544		-0.005386	0.128974	-0.991633	-0.665152	-0.740925	-0.092754	-0.746689	0.659087	0.089778
17545		-0.004831	0.128840	-0.991654	-0.664796	-0.741206	-0.093062	-0.747010	0.658797	0.089233
17546		-0.004270	0.128759	-0.991667	-0.664431	-0.741489	-0.093415	-0.747338	0.658495	0.088718
17547		-0.003570	0.128650	-0.991684	-0.664500	-0.741380	-0.093786	-0.747280	0.658639	0.088135
17548		-0.002840	0.128623	-0.991689	-0.665061	-0.740826	-0.094182	-0.746783	0.659267	0.087646
17549		-0.002148	0.128536	-0.991703	-0.665945	-0.739995	-0.094469	-0.745998	0.660216	0.087187
17550		-0.001489	0.128469	-0.991712	-0.666978	-0.739030	-0.094735	-0.745076	0.661310	0.086787
17551		-0.000924	0.128401	-0.991722	-0.667923	-0.738149	-0.094948	-0.744230	0.662306	0.086444
17552		-0.000395	0.128283	-0.991738	-0.668551	-0.737555	-0.095138	-0.743666	0.662990	0.086055
17553		0.000115	0.128086	-0.991763	-0.668938	-0.737186	-0.095285	-0.743319	0.663438	0.085597
17554		0.000582	0.127742	-0.991807	-0.669024	-0.737102	-0.095329	-0.743241	0.663598	0.085034
17555		0.001118	0.127276	-0.991867	-0.668566	-0.737510	-0.095391	-0.743652	0.663235	0.084267
17556		0.001531	0.126823	-0.991924	-0.668204	-0.737841	-0.095368	-0.743977	0.662953	0.083614
17557		0.001851	0.126462	-0.991970	-0.668080	-0.737958	-0.095326	-0.744087	0.662891	0.083121
17558		0.002107	0.126176	-0.992006	-0.668086	-0.737959	-0.095282	-0.744081	0.662946	0.082741
17559		0.002324	0.125853	-0.992046	-0.668040	-0.738012	-0.095191	-0.744122	0.662948	0.082359
17560		0.002601	0.125415	-0.992101	-0.667799	-0.738245	-0.095075	-0.744337	0.662771	0.081832
17561		0.002917	0.124919	-0.992163	-0.667556	-0.738481	-0.094942	-0.744554	0.662601	0.081237
17562		0.003235	0.124399	-0.992227	-0.667240	-0.738786	-0.094799	-0.744836	0.662360	0.080614
17563		0.003657	0.123845	-0.992295	-0.667046	-0.738975	-0.094688	-0.745007	0.662253	0.079908
17564		0.004013	0.123306	-0.992361	-0.667307	-0.738764	-0.094494	-0.744772	0.662589	0.079318
17565		0.004298	0.122760	-0.992427	-0.667706	-0.738437	-0.094234	-0.744413	0.663054	0.078794
17566		0.004543	0.122252	-0.992489	-0.668162	-0.738058	-0.093970	-0.744002	0.663570	0.078331
17567		0.004686	0.121776	-0.992547	-0.668473	-0.737813	-0.093679	-0.743721	0.663930	0.077947
17568		0.004926	0.121011	-0.992639	-0.668118	-0.738182	-0.093306	-0.744039	0.663659	0.077213
17569		0.005440	0.119717	-0.992793	-0.667454	-0.738852	-0.092753	-0.744632	0.663148	0.075886
17570		0.005944	0.118123	-0.992981	-0.666795	-0.739545	-0.091966	-0.745218	0.662661	0.074368
17571		0.006271	0.116353	-0.993188	-0.666214	-0.740197	-0.090921	-0.745734	0.662247	0.072874
17572		0.006416	0.114571	-0.993394	-0.665783	-0.740730	-0.089731	-0.746118	0.661961	0.071527
17573		0.006408	0.113048	-0.993569	-0.665448	-0.741165	-0.088621	-0.746417	0.661736	0.070478
17574		0.006349	0.111610	-0.993732	-0.665067	-0.741635	-0.087545	-0.746757	0.661454	0.069519
17575		0.006248	0.110227	-0.993887	-0.664630	-0.742150	-0.086487	-0.747147	0.661107	0.068623
17576		0.006161	0.108749	-0.994050	-0.664112	-0.742743	-0.085372	-0.747608	0.660686	0.067646
17577		0.006006	0.107004	-0.994240	-0.663518	-0.743428	-0.084018	-0.748136	0.660201	0.066534
17578		0.005844	0.105072	-0.994447	-0.662595	-0.744415	-0.082548	-0.748955	0.659399	0.065270
17579		0.005631	0.103112	-0.994654	-0.661678	-0.745398	-0.081018	-0.749767	0.658597	0.064030
17580		0.005400	0.101181	-0.994853	-0.661020	-0.746148	-0.079474	-0.750349	0.658047	0.062853
17581		0.005173	0.099357	-0.995038	-0.660289	-0.746948	-0.078018	-0.750994	0.657416	0.061740
17582		0.004843	0.097635	-0.995210	-0.659651	-0.747662	-0.076560	-0.751556	0.656862	0.060784
17583		0.004493	0.095965	-0.995375	-0.658969	-0.748408	-0.075130	-0.752156	0.656259	0.059876
17584		0.004138	0.094355	-0.995530	-0.658409	-0.749041	-0.073730	-0.752649	0.655771	0.059024
17585		0.003801	0.092748	-0.995682	-0.658006	-0.749531	-0.072330	-0.753003	0.655439	0.058180
17586		0.003461	0.091146	-0.995832	-0.657576	-0.750041	-0.070935	-0.753380	0.655081	0.057339
17587		0.003143	0.089587	-0.995974	-0.657249	-0.750455	-0.069577	-0.753667	0.654822	0.056522
17588		0.002844	0.088070	-0.996110	-0.656937	-0.750849	-0.068261	-0.753940	0.654576	0.055721
17589		0.002547	0.086618	-0.996238	-0.656524	-0.751323	-0.067003	-0.754301	0.654225	0.054953
17590		0.002227	0.085291	-0.996354	-0.655927	-0.751948	-0.065835	-0.754821	0.653682	0.054270
17591		0.001903	0.084102	-0.996455	-0.655260	-0.752621	-0.064774	-0.755401	0.653061	0.053676
17592		0.001657	0.082977	-0.996550	-0.654423	-0.753430	-0.063822	-0.756127	0.652271	0.053054
17593		0.001400	0.081966	-0.996634	-0.653596	-0.754221	-0.062947	-0.756842	0.651484	0.052516
17594		0.001184	0.081051	-0.996709	-0.652719	-0.755044	-0.062174	-0.757599	0.650645	0.052009
17595		0.000954	0.080189	-0.996779	-0.651883	-0.755828	-0.061428	-0.758319	0.649842	0.051553
17596		0.000770	0.079487	-0.996836	-0.651015	-0.756623	-0.060836	-0.759064	0.649002	0.051165
17597		0.000598	0.078875	-0.996884	-0.650133	-0.757422	-0.060318	-0.759820	0.648144	0.050827
17598		0.000494	0.078403	-0.996922	-0.649269	-0.758192	-0.059950	-0.760558	0.647300	0.050531
17599		0.000362	0.078053	-0.996949	-0.648645	-0.758751	-0.059639	-0.761091	0.646687	0.050354
17600		0.000270	0.077824	-0.996967	-0.648119	-0.759216	-0.059441	-0.761539	0.646169	0.050235
17601		0.000287	0.077624	-0.996983	-0.647728	-0.759559	-0.059325	-0.761872	0.645790	0.050061
17602		0.000290	0.077528	-0.996990	-0.647538	-0.759725	-0.059267	-0.762033	0.645607	0.049982
17603		0.000356	0.077616	-0.996983	-0.647374	-0.759856	-0.059387	-0.762173	0.645442	0.049976
17604		0.000410	0.077828	-0.996967	-0.647219	-0.759971	-0.059592	-0.762304	0.645281	0.050060
17605		0.000574	0.078066	-0.996948	-0.647188	-0.759975	-0.059883	-0.762330	0.645247	0.050087
17606		0.000757	0.078299	-0.996930	-0.647205	-0.759937	-0.060176	-0.762315	0.645264	0.050100
17607		0.000901	0.078485	-0.996915	-0.647312	-0.759828	-0.060405	-0.762225	0.645369	0.050120
17608		0.000999	0.078712	-0.996897	-0.647297	-0.759822	-0.060643	-0.762238	0.645349	0.050191
17609		0.001150	0.078936	-0.996879	-0.647007	-0.760046	-0.060930	-0.762483	0.645058	0.050198
17610		0.001397	0.079111	-0.996865	-0.646406	-0.760530	-0.061261	-0.762992	0.644465	0.050076
17611		0.001646	0.079232	-0.996855	-0.645836	-0.760991	-0.061551	-0.763475	0.643906	0.049918
17612		0.001828	0.079456	-0.996837	-0.645330	-0.761394	-0.061873	-0.763902	0.643401	0.049884
17613		0.002014	0.079686	-0.996818	-0.644897	-0.761734	-0.062197	-0.764267	0.642971	0.049855
17614		0.002228	0.079877	-0.996802	-0.644366	-0.762158	-0.062515	-0.764714	0.642445	0.049772
17615		0.002463	0.079912	-0.996799	-0.643869	-0.762560	-0.062724	-0.765132	0.641963	0.049575
17616		0.002733	0.079878	-0.996801	-0.643527	-0.762835	-0.062894	-0.765419	0.641640	0.049319
17617		0.002966	0.079839	-0.996803	-0.643303	-0.763013	-0.063028	-0.765606	0.641433	0.049097
17618		0.003245	0.079815	-0.996804	-0.643242	-0.763051	-0.063192	-0.765656	0.641392	0.048864
17619		0.003545	0.079809	-0.996804	-0.643307	-0.762981	-0.063376	-0.765600	0.641476	0.048637
17620		0.003832	0.079869	-0.996798	-0.643341	-0.762933	-0.063604	-0.765570	0.641524	0.048460
17621		0.004080	0.079863	-0.996798	-0.643389	-0.762880	-0.063755	-0.765529	0.641588	0.048270
17622		0.004350	0.079815	-0.996800	-0.643422	-0.762841	-0.063890	-0.765499	0.641641	0.048036
17623		0.004654	0.079658	-0.996811	-0.643533	-0.762741	-0.063958	-0.765404	0.641779	0.047713
17624		0.004914	0.079450	-0.996827	-0.643684	-0.762614	-0.063956	-0.765275	0.641956	0.047393
17625		0.005136	0.079310	-0.996837	-0.643838	-0.762482	-0.063981	-0.765144	0.642130	0.047147
17626		0.005329	0.079244	-0.996841	-0.643985	-0.762353	-0.064046	-0.765020	0.642292	0.046970
17627		0.005587	0.079246	-0.996839	-0.644047	-0.762287	-0.064209	-0.764966	0.642370	0.046779
17628		0.005838	0.079183	-0.996843	-0.644052	-0.762272	-0.064322	-0.764959	0.642395	0.046548
17629		0.006134	0.079117	-0.996847	-0.644159	-0.762171	-0.064455	-0.764867	0.642523	0.046289
17630		0.006427	0.078954	-0.996858	-0.644476	-0.761899	-0.064500	-0.764598	0.642865	0.045987
17631		0.006718	0.078772	-0.996870	-0.644899	-0.761539	-0.064522	-0.764238	0.643314	0.045684
17632		0.006964	0.078634	-0.996879	-0.645384	-0.761126	-0.064546	-0.763827	0.643819	0.045448
17633		0.007189	0.078576	-0.996882	-0.645850	-0.760725	-0.064619	-0.763431	0.644301	0.045279
17634		0.007413	0.078535	-0.996884	-0.646292	-0.760342	-0.064706	-0.763054	0.644758	0.045121
17635		0.007671	0.078578	-0.996878	-0.646649	-0.760023	-0.064884	-0.762749	0.645128	0.044982
17636		0.007958	0.078641	-0.996871	-0.647070	-0.759646	-0.065093	-0.762389	0.645564	0.044841
17637		0.008192	0.078725	-0.996863	-0.647671	-0.759119	-0.065272	-0.761876	0.646174	0.044769
17638		0.008438	0.078722	-0.996861	-0.648336	-0.758541	-0.065390	-0.761307	0.646853	0.044638
17639		0.008667	0.078687	-0.996862	-0.648924	-0.758031	-0.065477	-0.760804	0.647455	0.044492
17640		0.008874	0.078632	-0.996864	-0.649326	-0.757681	-0.065546	-0.760459	0.647871	0.044335
17641		0.009122	0.078510	-0.996872	-0.649470	-0.757551	-0.065605	-0.760332	0.648037	0.044080
17642		0.009407	0.078396	-0.996878	-0.649619	-0.757416	-0.065694	-0.760202	0.648209	0.043803
17643		0.009669	0.078266	-0.996886	-0.649800	-0.757255	-0.065755	-0.760043	0.648412	0.043535
17644		0.009900	0.078171	-0.996891	-0.650152	-0.756949	-0.065812	-0.759740	0.648782	0.043329
17645		0.010099	0.078208	-0.996886	-0.650657	-0.756503	-0.065941	-0.759304	0.649297	0.043246
