// Start Time: Unknown
// Update Rate: 100.0Hz
// Filter Profile: human (46.1)
// Option Flags: AHS Disabled ICC Disabled 
// Firmware Version: 4.0.2
PacketCounter	SampleTimeFine	Mat[1][1]	Mat[2][1]	Mat[3][1]	Mat[1][2]	Mat[2][2]	Mat[3][2]	Mat[1][3]	Mat[2][3]	Mat[3][3]
10104		-0.121545	0.027675	-0.992200	0.739659	-0.664075	-0.109131	-0.661915	-0.747154	0.060244
10105		-0.121645	0.027755	-0.992186	0.739647	-0.664067	-0.109259	-0.661910	-0.747158	0.060251
10106		-0.121726	0.027859	-0.992173	0.739606	-0.664092	-0.109386	-0.661941	-0.747132	0.060232
10107		-0.121906	0.028021	-0.992146	0.739314	-0.664381	-0.109604	-0.662234	-0.746869	0.060276
10108		-0.121986	0.028101	-0.992134	0.739232	-0.664455	-0.109711	-0.662311	-0.746800	0.060281
10109		-0.122082	0.028110	-0.992122	0.739373	-0.664282	-0.109803	-0.662135	-0.746954	0.060313
10110		-0.122190	0.028147	-0.992107	0.739264	-0.664387	-0.109899	-0.662237	-0.746858	0.060374
10111		-0.122326	0.028246	-0.992088	0.738999	-0.664659	-0.110043	-0.662508	-0.746613	0.060432
10112		-0.122404	0.028293	-0.992077	0.738931	-0.664720	-0.110128	-0.662569	-0.746557	0.060457
10113		-0.122478	0.028354	-0.992066	0.738770	-0.664885	-0.110210	-0.662735	-0.746407	0.060486
10114		-0.122507	0.028363	-0.992062	0.738690	-0.664971	-0.110230	-0.662819	-0.746331	0.060512
10115		-0.122568	0.028410	-0.992053	0.738443	-0.665237	-0.110286	-0.663083	-0.746092	0.060558
10116		-0.122533	0.028410	-0.992058	0.738461	-0.665220	-0.110261	-0.663069	-0.746107	0.060532
10117		-0.122517	0.028406	-0.992060	0.738546	-0.665127	-0.110254	-0.662977	-0.746190	0.060510
10118		-0.122501	0.028409	-0.992062	0.738439	-0.665249	-0.110233	-0.663100	-0.746080	0.060515
10119		-0.122547	0.028436	-0.992055	0.738226	-0.665480	-0.110267	-0.663328	-0.745874	0.060560
10120		-0.122529	0.028445	-0.992057	0.738175	-0.665539	-0.110255	-0.663389	-0.745821	0.060550
10121		-0.122548	0.028471	-0.992054	0.738172	-0.665536	-0.110287	-0.663388	-0.745822	0.060543
10122		-0.122526	0.028485	-0.992056	0.738288	-0.665407	-0.110290	-0.663263	-0.745937	0.060500
10123		-0.122545	0.028553	-0.992052	0.738342	-0.665337	-0.110354	-0.663200	-0.745997	0.060452
10124		-0.122557	0.028631	-0.992048	0.738512	-0.665136	-0.110431	-0.663009	-0.746173	0.060373
10125		-0.122576	0.028691	-0.992044	0.738538	-0.665097	-0.110488	-0.662975	-0.746206	0.060335
10126		-0.122586	0.028719	-0.992042	0.738640	-0.664978	-0.110524	-0.662861	-0.746310	0.060304
10127		-0.122671	0.028788	-0.992030	0.738538	-0.665074	-0.110625	-0.662958	-0.746223	0.060324
10128		-0.122702	0.028858	-0.992024	0.738554	-0.665044	-0.110697	-0.662934	-0.746246	0.060289
10129		-0.122739	0.028857	-0.992019	0.738755	-0.664814	-0.110743	-0.662704	-0.746452	0.060280
10130		-0.122797	0.028898	-0.992011	0.738841	-0.664705	-0.110821	-0.662597	-0.746547	0.060272
10131		-0.122899	0.028937	-0.991997	0.738906	-0.664614	-0.110931	-0.662505	-0.746626	0.060299
10132		-0.122929	0.028992	-0.991992	0.738922	-0.664586	-0.110992	-0.662482	-0.746649	0.060275
10133		-0.122957	0.029031	-0.991987	0.739092	-0.664387	-0.111054	-0.662287	-0.746825	0.060234
10134		-0.123001	0.029072	-0.991981	0.739095	-0.664374	-0.111115	-0.662276	-0.746835	0.060232
10135		-0.123078	0.029159	-0.991969	0.738956	-0.664511	-0.111219	-0.662417	-0.746710	0.060239
10136		-0.123125	0.029210	-0.991961	0.738888	-0.664576	-0.111282	-0.662484	-0.746650	0.060243
10137		-0.123190	0.029273	-0.991951	0.738805	-0.664654	-0.111366	-0.662564	-0.746578	0.060252
10138		-0.123225	0.029355	-0.991944	0.738736	-0.664718	-0.111442	-0.662635	-0.746517	0.060224
10139		-0.123285	0.029421	-0.991935	0.738565	-0.664896	-0.111515	-0.662814	-0.746357	0.060242
10140		-0.123361	0.029463	-0.991924	0.738539	-0.664911	-0.111598	-0.662829	-0.746341	0.060265
10141		-0.123314	0.029448	-0.991931	0.738938	-0.664469	-0.111589	-0.662393	-0.746736	0.060178
10142		-0.123341	0.029501	-0.991926	0.739066	-0.664315	-0.111657	-0.662245	-0.746871	0.060135
10143		-0.123350	0.029500	-0.991925	0.739345	-0.663999	-0.111688	-0.661932	-0.747151	0.060094
10144		-0.123375	0.029524	-0.991921	0.739461	-0.663863	-0.111734	-0.661798	-0.747271	0.060072
10145		-0.123451	0.029580	-0.991910	0.739355	-0.663966	-0.111819	-0.661902	-0.747178	0.060097
10146		-0.123459	0.029578	-0.991909	0.739457	-0.663850	-0.111833	-0.661786	-0.747281	0.060087
10147		-0.123425	0.029538	-0.991914	0.739674	-0.663614	-0.111800	-0.661551	-0.747492	0.060058
10148		-0.123433	0.029516	-0.991914	0.739706	-0.663578	-0.111795	-0.661512	-0.747524	0.060074
10149		-0.123474	0.029483	-0.991910	0.739624	-0.663670	-0.111796	-0.661597	-0.747444	0.060139
10150		-0.123470	0.029461	-0.991911	0.739573	-0.663731	-0.111773	-0.661655	-0.747391	0.060162
10151		-0.123509	0.029561	-0.991903	0.739204	-0.664131	-0.111836	-0.662060	-0.747031	0.060175
10152		-0.123448	0.029590	-0.991910	0.739151	-0.664195	-0.111804	-0.662130	-0.746974	0.060122
10153		-0.123434	0.029597	-0.991911	0.739077	-0.664280	-0.111792	-0.662216	-0.746898	0.060120
10154		-0.123400	0.029623	-0.991915	0.739122	-0.664230	-0.111788	-0.662171	-0.746941	0.060071
10155		-0.123344	0.029595	-0.991923	0.739348	-0.663985	-0.111747	-0.661929	-0.747160	0.060018
10156		-0.123309	0.029616	-0.991926	0.739422	-0.663904	-0.111742	-0.661853	-0.747231	0.059967
10157		-0.123406	0.029662	-0.991913	0.739395	-0.663917	-0.111843	-0.661865	-0.747218	0.060000
10158		-0.123369	0.029655	-0.991918	0.739456	-0.663854	-0.111817	-0.661804	-0.747274	0.059971
10159		-0.123449	0.029652	-0.991908	0.739449	-0.663852	-0.111874	-0.661798	-0.747276	0.060026
10160		-0.123473	0.029639	-0.991905	0.739509	-0.663783	-0.111889	-0.661726	-0.747338	0.060041
10161		-0.123493	0.029621	-0.991903	0.739601	-0.663678	-0.111901	-0.661619	-0.747432	0.060052
10162		-0.123490	0.029653	-0.991903	0.739688	-0.663576	-0.111927	-0.661522	-0.747521	0.060011
10163		-0.123545	0.029656	-0.991896	0.739791	-0.663453	-0.111980	-0.661397	-0.747630	0.060027
10164		-0.123539	0.029670	-0.991896	0.739893	-0.663337	-0.111995	-0.661284	-0.747732	0.059995
10165		-0.123602	0.029719	-0.991887	0.739827	-0.663397	-0.112069	-0.661346	-0.747677	0.060010
10166		-0.123614	0.029754	-0.991884	0.739886	-0.663326	-0.112107	-0.661278	-0.747739	0.059982
10167		-0.123623	0.029770	-0.991883	0.740056	-0.663130	-0.112140	-0.661086	-0.747912	0.059947
10168		-0.123605	0.029827	-0.991883	0.740184	-0.662981	-0.112176	-0.660946	-0.748042	0.059870
10169		-0.123657	0.029871	-0.991875	0.740252	-0.662893	-0.112250	-0.660860	-0.748118	0.059859
10170		-0.123679	0.029863	-0.991873	0.740381	-0.662744	-0.112274	-0.660711	-0.748250	0.059858
10171		-0.123679	0.029832	-0.991874	0.740611	-0.662488	-0.112274	-0.660454	-0.748478	0.059842
10172		-0.123690	0.029819	-0.991873	0.740587	-0.662515	-0.112271	-0.660479	-0.748455	0.059863
10173		-0.123683	0.029864	-0.991872	0.740598	-0.662498	-0.112296	-0.660467	-0.748468	0.059823
10174		-0.123651	0.029898	-0.991875	0.740587	-0.662511	-0.112295	-0.660485	-0.748456	0.059778
10175		-0.123610	0.029880	-0.991881	0.740670	-0.662424	-0.112259	-0.660400	-0.748533	0.059751
10176		-0.123623	0.029884	-0.991879	0.740632	-0.662465	-0.112268	-0.660441	-0.748496	0.059763
10177		-0.123673	0.029904	-0.991872	0.740537	-0.662565	-0.112311	-0.660538	-0.748408	0.059797
10178		-0.123656	0.029924	-0.991874	0.740512	-0.662592	-0.112309	-0.660569	-0.748382	0.059775
10179		-0.123638	0.029904	-0.991877	0.740607	-0.662490	-0.112291	-0.660466	-0.748474	0.059762
10180		-0.123521	0.029833	-0.991893	0.740642	-0.662472	-0.112158	-0.660448	-0.748492	0.059734
10181		-0.123477	0.029796	-0.991900	0.740556	-0.662580	-0.112092	-0.660553	-0.748398	0.059748
10182		-0.123331	0.029720	-0.991921	0.740549	-0.662615	-0.111929	-0.660588	-0.748371	0.059712
10183		-0.123232	0.029662	-0.991934	0.740317	-0.662898	-0.111795	-0.660867	-0.748122	0.059731
10184		-0.123007	0.029540	-0.991966	0.740257	-0.663008	-0.111538	-0.660976	-0.748029	0.059688
10185		-0.122754	0.029443	-0.992000	0.740105	-0.663223	-0.111268	-0.661193	-0.747843	0.059623
10186		-0.122456	0.029326	-0.992041	0.739961	-0.663436	-0.110951	-0.661409	-0.747658	0.059542
10187		-0.122219	0.029160	-0.992075	0.739869	-0.663589	-0.110653	-0.661556	-0.747529	0.059528
10188		-0.121994	0.028999	-0.992107	0.739669	-0.663860	-0.110358	-0.661821	-0.747294	0.059538
10189		-0.121793	0.028828	-0.992137	0.739562	-0.664026	-0.110081	-0.661978	-0.747154	0.059553
10190		-0.121609	0.028676	-0.992164	0.739573	-0.664054	-0.109842	-0.662000	-0.747135	0.059547
10191		-0.121438	0.028624	-0.992186	0.739454	-0.664215	-0.109667	-0.662164	-0.746994	0.059495
10192		-0.121137	0.028548	-0.992225	0.739533	-0.664171	-0.109396	-0.662131	-0.747035	0.059343
10193		-0.120883	0.028418	-0.992260	0.739597	-0.664145	-0.109123	-0.662106	-0.747063	0.059266
10194		-0.120689	0.028304	-0.992287	0.739564	-0.664219	-0.108897	-0.662178	-0.747002	0.059231
10195		-0.120482	0.028229	-0.992314	0.739404	-0.664433	-0.108677	-0.662394	-0.746814	0.059179
10196		-0.120343	0.028129	-0.992334	0.739046	-0.664864	-0.108472	-0.662818	-0.746434	0.059223
10197		-0.120115	0.027940	-0.992367	0.738722	-0.665277	-0.108145	-0.663221	-0.746073	0.059270
10198		-0.119967	0.027821	-0.992388	0.738084	-0.666026	-0.107897	-0.663958	-0.745410	0.059367
10199		-0.119791	0.027685	-0.992413	0.737408	-0.666820	-0.107613	-0.664740	-0.744704	0.059464
10200		-0.119494	0.027505	-0.992454	0.737068	-0.667257	-0.107237	-0.665171	-0.744320	0.059460
10201		-0.119103	0.027352	-0.992505	0.736598	-0.667846	-0.106798	-0.665762	-0.743797	0.059395
10202		-0.118608	0.026996	-0.992574	0.736334	-0.668237	-0.106163	-0.666141	-0.743458	0.059381
10203		-0.118109	0.026536	-0.992646	0.736167	-0.668532	-0.105464	-0.666414	-0.743210	0.059425
10204		-0.117652	0.025978	-0.992715	0.735698	-0.669168	-0.104703	-0.667013	-0.742657	0.059617
10205		-0.117186	0.025399	-0.992785	0.734940	-0.670126	-0.103895	-0.667930	-0.741812	0.059863
10206		-0.116807	0.024826	-0.992844	0.733890	-0.671394	-0.103130	-0.669150	-0.740685	0.060204
10207		-0.116561	0.024306	-0.992886	0.732739	-0.672748	-0.102490	-0.670453	-0.739473	0.060606
10208		-0.116605	0.023831	-0.992892	0.731596	-0.674050	-0.102097	-0.671693	-0.738301	0.061163
10209		-0.117034	0.023459	-0.992851	0.730440	-0.675309	-0.102058	-0.672875	-0.737162	0.061899
10210		-0.117906	0.023218	-0.992753	0.729183	-0.676610	-0.102427	-0.674085	-0.735975	0.062846
10211		-0.119475	0.023070	-0.992569	0.727470	-0.678314	-0.103331	-0.675657	-0.734410	0.064259
10212		-0.121627	0.023245	-0.992304	0.725575	-0.680106	-0.104866	-0.677309	-0.732745	0.065854
10213		-0.124764	0.024114	-0.991893	0.723238	-0.682172	-0.107555	-0.679235	-0.730794	0.067670
10214		-0.128986	0.025501	-0.991318	0.721097	-0.683816	-0.111417	-0.680721	-0.729208	0.069814
10215		-0.134457	0.027698	-0.990532	0.718226	-0.685958	-0.116675	-0.682695	-0.727114	0.072338
10216		-0.140429	0.030856	-0.989610	0.716520	-0.686622	-0.123085	-0.683285	-0.726360	0.074313
10217		-0.146877	0.034793	-0.988543	0.715152	-0.686692	-0.130426	-0.683362	-0.726115	0.075977
10218		-0.154008	0.040162	-0.987253	0.713320	-0.686872	-0.139218	-0.683708	-0.725668	0.077135
10219		-0.162861	0.046246	-0.985565	0.711108	-0.686951	-0.149742	-0.683960	-0.725231	0.078992
10220		-0.173669	0.053140	-0.983369	0.708359	-0.686958	-0.162223	-0.684154	-0.724752	0.081662
10221		-0.185416	0.061764	-0.980717	0.705282	-0.686583	-0.176581	-0.684250	-0.724423	0.083743
10222		-0.197824	0.072006	-0.977589	0.702426	-0.685200	-0.192612	-0.683713	-0.724787	0.084971
10223		-0.211129	0.084110	-0.973833	0.698586	-0.683856	-0.210519	-0.683668	-0.724752	0.085624
10224		-0.225704	0.098279	-0.969226	0.693278	-0.682755	-0.230675	-0.684414	-0.724008	0.085966
10225		-0.240459	0.114054	-0.963935	0.685413	-0.683224	-0.251820	-0.687305	-0.721246	0.086113
10226		-0.255809	0.130489	-0.957880	0.676329	-0.683832	-0.273775	-0.690754	-0.717876	0.086677
10227		-0.271867	0.147716	-0.950930	0.662320	-0.688162	-0.296253	-0.698155	-0.710362	0.089253
10228		-0.290197	0.163660	-0.942869	0.647635	-0.691773	-0.319405	-0.704525	-0.703325	0.094758
10229		-0.310281	0.178766	-0.933685	0.633205	-0.693710	-0.343245	-0.709068	-0.697717	0.102049
10230		-0.329988	0.191110	-0.924438	0.619755	-0.694820	-0.364869	-0.712047	-0.693327	0.110841
10231		-0.349780	0.200406	-0.915145	0.611462	-0.691249	-0.385084	-0.709767	-0.694271	0.119245
10232		-0.368639	0.210561	-0.905411	0.610488	-0.679676	-0.406626	-0.701006	-0.702641	0.122010
10233		-0.385258	0.223263	-0.895394	0.612955	-0.663411	-0.429153	-0.689828	-0.714170	0.118734
10234		-0.399238	0.238184	-0.885368	0.615067	-0.646553	-0.451289	-0.679928	-0.724732	0.111630
10235		-0.414105	0.250720	-0.875018	0.611651	-0.635278	-0.471493	-0.674092	-0.730453	0.109718
10236		-0.429452	0.261422	-0.864424	0.607302	-0.624836	-0.490677	-0.668398	-0.735689	0.109575
10237		-0.444031	0.270206	-0.854298	0.598264	-0.620369	-0.507171	-0.667021	-0.736296	0.113808
10238		-0.457535	0.277732	-0.844705	0.586227	-0.620063	-0.521401	-0.668580	-0.733748	0.120886
10239		-0.469158	0.284321	-0.836093	0.571942	-0.623551	-0.532979	-0.672884	-0.728248	0.129929
10240		-0.478997	0.288825	-0.828941	0.554943	-0.632042	-0.540889	-0.680147	-0.719099	0.142465
10241		-0.486377	0.290157	-0.824164	0.537908	-0.643878	-0.544129	-0.688544	-0.707976	0.157090
10242		-0.490222	0.288465	-0.822478	0.524109	-0.656419	-0.542609	-0.696414	-0.697067	0.170604
10243		-0.488992	0.285818	-0.824133	0.517135	-0.665866	-0.537767	-0.702466	-0.689152	0.177796
10244		-0.482160	0.282902	-0.829149	0.516115	-0.673035	-0.529764	-0.707917	-0.683367	0.178500
10245		-0.470958	0.277306	-0.837436	0.519043	-0.680488	-0.517234	-0.713298	-0.678261	0.176547
10246		-0.456415	0.268140	-0.848402	0.525340	-0.688362	-0.500176	-0.718125	-0.673987	0.173314
10247		-0.438161	0.257287	-0.861289	0.537484	-0.693018	-0.480454	-0.720504	-0.673445	0.165366
10248		-0.416461	0.245132	-0.875483	0.555721	-0.693489	-0.458527	-0.719538	-0.677483	0.152586
10249		-0.392586	0.230839	-0.890275	0.577143	-0.691841	-0.433892	-0.716088	-0.684155	0.138380
10250		-0.367512	0.213726	-0.905128	0.601478	-0.687677	-0.406600	-0.709337	-0.693845	0.124178
10251		-0.341747	0.194728	-0.919396	0.624886	-0.683621	-0.377066	-0.701944	-0.703380	0.111943
10252		-0.316192	0.174737	-0.932464	0.645935	-0.680224	-0.346501	-0.694831	-0.711872	0.102212
10253		-0.291951	0.155158	-0.943764	0.664023	-0.677299	-0.316764	-0.688359	-0.719160	0.094710
10254		-0.269872	0.136523	-0.953169	0.679197	-0.674689	-0.288939	-0.682539	-0.725366	0.089354
10255		-0.251501	0.121526	-0.960197	0.689420	-0.673811	-0.265857	-0.679300	-0.728842	0.085681
10256		-0.235110	0.118382	-0.964732	0.695839	-0.672498	-0.252102	-0.678625	-0.730570	0.075736
10257		-0.221239	0.131898	-0.966259	0.709580	-0.657915	-0.252277	-0.668991	-0.741452	0.051964
10258		-0.212783	0.151318	-0.965312	0.717083	-0.646891	-0.259469	-0.663713	-0.747419	0.029140
10259		-0.208782	0.155596	-0.965505	0.712676	-0.651865	-0.259161	-0.669704	-0.742200	0.025208
10260		-0.202927	0.147849	-0.967968	0.697633	-0.671842	-0.248872	-0.687117	-0.725789	0.033190
10261		-0.191940	0.141610	-0.971136	0.692137	-0.682008	-0.236247	-0.695777	-0.717504	0.032891
10262		-0.176954	0.142274	-0.973882	0.707514	-0.669467	-0.226357	-0.684186	-0.729090	0.017803
10263		-0.169026	0.140549	-0.975539	0.719972	-0.658346	-0.219595	-0.673106	-0.739478	0.010086
10264		-0.163902	0.142490	-0.976131	0.723174	-0.655646	-0.217136	-0.670936	-0.741502	0.004417
10265		-0.161790	0.144782	-0.976147	0.722786	-0.656083	-0.217107	-0.671866	-0.740671	0.001501
10266		-0.163619	0.144355	-0.975905	0.723991	-0.654396	-0.218181	-0.670124	-0.742245	0.002560
10267		-0.166898	0.144765	-0.975289	0.732170	-0.644296	-0.220929	-0.660357	-0.750950	0.001539
10268		-0.171723	0.147689	-0.974012	0.743160	-0.629615	-0.226491	-0.646703	-0.762740	-0.001637
10269		-0.178040	0.149927	-0.972535	0.751460	-0.617365	-0.232742	-0.635303	-0.772258	-0.002748
10270		-0.184172	0.151401	-0.971163	0.754649	-0.611282	-0.238409	-0.629750	-0.776796	-0.001673
10271		-0.188898	0.152286	-0.970117	0.751580	-0.613397	-0.242635	-0.632016	-0.774954	0.001414
10272		-0.189615	0.155137	-0.969525	0.742549	-0.623385	-0.244974	-0.642392	-0.766370	0.003007
10273		-0.188869	0.160121	-0.968860	0.728854	-0.638339	-0.247579	-0.658104	-0.752917	0.003858
10274		-0.190812	0.166516	-0.967400	0.708065	-0.659218	-0.253130	-0.679878	-0.733283	0.007882
10275		-0.197982	0.173822	-0.964670	0.681838	-0.682614	-0.262935	-0.704201	-0.709806	0.016627
10276		-0.207937	0.183428	-0.960789	0.656069	-0.702389	-0.276084	-0.725490	-0.687752	0.025712
10277		-0.218853	0.195149	-0.956044	0.632937	-0.717309	-0.291307	-0.742627	-0.668869	0.033468
10278		-0.230632	0.206863	-0.950798	0.611890	-0.728926	-0.307015	-0.756571	-0.652591	0.041536
10279		-0.242557	0.217805	-0.945372	0.597452	-0.734220	-0.322447	-0.764341	-0.643026	0.047962
10280		-0.254656	0.229675	-0.939361	0.594128	-0.729272	-0.339373	-0.762995	-0.644525	0.049257
10281		-0.268520	0.242766	-0.932181	0.603196	-0.712125	-0.359211	-0.751034	-0.658743	0.044785
10282		-0.284462	0.259111	-0.923007	0.619341	-0.685234	-0.383237	-0.731777	-0.680673	0.034445
10283		-0.299509	0.280562	-0.911910	0.639674	-0.650099	-0.410107	-0.707892	-0.706156	0.015242
10284		-0.316582	0.304014	-0.898527	0.646647	-0.623858	-0.438917	-0.693991	-0.719984	0.000912
10285		-0.339404	0.323896	-0.883117	0.636022	-0.612679	-0.469149	-0.693023	-0.720913	0.001941
10286		-0.366685	0.339886	-0.866037	0.611796	-0.613198	-0.499694	-0.700891	-0.713068	0.016910
10287		-0.394949	0.351531	-0.848788	0.579826	-0.621264	-0.527098	-0.712613	-0.700326	0.041541
10288		-0.422544	0.359298	-0.832082	0.546250	-0.631632	-0.550137	-0.723233	-0.686983	0.070626
10289		-0.448175	0.362071	-0.817340	0.516339	-0.641523	-0.567312	-0.729749	-0.676279	0.100563
10290		-0.472123	0.360167	-0.804599	0.491301	-0.650327	-0.579394	-0.731931	-0.668846	0.130084
10291		-0.493722	0.354642	-0.794020	0.473139	-0.656547	-0.587439	-0.729642	-0.665714	0.156357
10292		-0.512651	0.347643	-0.785069	0.461929	-0.659081	-0.593494	-0.723748	-0.666901	0.177292
10293		-0.528817	0.339673	-0.777801	0.456802	-0.658462	-0.598130	-0.715321	-0.671603	0.193042
10294		-0.541071	0.330658	-0.773245	0.458385	-0.654914	-0.600808	-0.705071	-0.679524	0.202786
10295		-0.550323	0.319480	-0.771412	0.465405	-0.649687	-0.601086	-0.693212	-0.689811	0.208850
10296		-0.558195	0.305952	-0.771241	0.474455	-0.644858	-0.599208	-0.680670	-0.700394	0.214796
10297		-0.563872	0.291903	-0.772555	0.482954	-0.642278	-0.595176	-0.669929	-0.708711	0.221187
10298		-0.565707	0.280317	-0.775498	0.491178	-0.640859	-0.589952	-0.662359	-0.714648	0.224853
10299		-0.563789	0.272351	-0.779723	0.498182	-0.640849	-0.584061	-0.658754	-0.717731	0.225622
10300		-0.559159	0.267131	-0.784845	0.504936	-0.641106	-0.577947	-0.657557	-0.719461	0.223596
10301		-0.552823	0.263420	-0.790567	0.510769	-0.642489	-0.571248	-0.658408	-0.719596	0.220636
10302		-0.545272	0.259809	-0.796981	0.514797	-0.646557	-0.562982	-0.661561	-0.717261	0.218801
10303		-0.536092	0.256097	-0.804375	0.517085	-0.653561	-0.552703	-0.667254	-0.712230	0.217945
10304		-0.524670	0.252338	-0.813048	0.519419	-0.661796	-0.540583	-0.674482	-0.705940	0.216156
10305		-0.510771	0.249819	-0.822620	0.522825	-0.669318	-0.527889	-0.682471	-0.699717	0.211257
10306		-0.494564	0.249094	-0.832682	0.528604	-0.674286	-0.515670	-0.689916	-0.695191	0.201806
10307		-0.476990	0.249707	-0.842690	0.535484	-0.677729	-0.503926	-0.696949	-0.691614	0.189556
10308		-0.459987	0.249344	-0.852197	0.542594	-0.680782	-0.492064	-0.702854	-0.688740	0.177859
10309		-0.443145	0.248727	-0.861253	0.551722	-0.681556	-0.480711	-0.706559	-0.688197	0.164800
10310		-0.426727	0.246725	-0.870076	0.562088	-0.681331	-0.468877	-0.708493	-0.689141	0.152061
10311		-0.411447	0.242965	-0.878453	0.571575	-0.681957	-0.456330	-0.709939	-0.689857	0.141717
10312		-0.396195	0.237917	-0.886806	0.581193	-0.682731	-0.442824	-0.710805	-0.690850	0.132219
10313		-0.380907	0.232277	-0.894962	0.591692	-0.682552	-0.428980	-0.710500	-0.692943	0.122552
10314		-0.365087	0.226551	-0.902987	0.604234	-0.680227	-0.414961	-0.708246	-0.697112	0.111452
10315		-0.348675	0.222014	-0.910569	0.618598	-0.675355	-0.401538	-0.704104	-0.703282	0.098142
10316		-0.332286	0.218117	-0.917612	0.633502	-0.669157	-0.388463	-0.698757	-0.710390	0.084174
10317		-0.315924	0.215488	-0.923990	0.646434	-0.663962	-0.375870	-0.694489	-0.716045	0.070463
10318		-0.300313	0.213398	-0.929663	0.652293	-0.665173	-0.363400	-0.695935	-0.715546	0.060562
10319		-0.285817	0.212259	-0.934481	0.651285	-0.672302	-0.351907	-0.702949	-0.709194	0.053914
10320		-0.266136	0.218264	-0.938900	0.650204	-0.678425	-0.342015	-0.711623	-0.701498	0.038637
10321		-0.237201	0.242296	-0.940759	0.662239	-0.668185	-0.339069	-0.710757	-0.703435	-0.001964
10322		-0.224199	0.262524	-0.938518	0.659122	-0.668514	-0.344453	-0.717839	-0.695824	-0.023155
10323		-0.234460	0.246263	-0.940416	0.610609	-0.715431	-0.339581	-0.756429	-0.653845	0.017370
10324		-0.261418	0.213124	-0.941402	0.554966	-0.764800	-0.327252	-0.789730	-0.607996	0.081656
10325		-0.268480	0.205132	-0.941190	0.589162	-0.738039	-0.328917	-0.762107	-0.642821	0.077292
10326		-0.261359	0.216190	-0.940720	0.635141	-0.695358	-0.336263	-0.726834	-0.685375	0.044426
10327		-0.261516	0.224479	-0.938732	0.676672	-0.650898	-0.344160	-0.688276	-0.725217	0.018322
10328		-0.252485	0.241037	-0.937098	0.718603	-0.601842	-0.348419	-0.647967	-0.761372	-0.021254
10329		-0.244042	0.256333	-0.935274	0.746810	-0.565566	-0.349872	-0.618642	-0.783855	-0.053410
10330		-0.242598	0.262015	-0.934074	0.750309	-0.559669	-0.351862	-0.614966	-0.786205	-0.060818
10331		-0.248749	0.258626	-0.933400	0.739649	-0.571464	-0.355456	-0.625335	-0.778808	-0.049141
10332		-0.257757	0.251149	-0.932998	0.721573	-0.592145	-0.358744	-0.642568	-0.765695	-0.028593
10333		-0.264514	0.241707	-0.933601	0.701514	-0.616061	-0.358254	-0.661748	-0.749697	-0.006604
10334		-0.264827	0.232150	-0.935934	0.690340	-0.632024	-0.352103	-0.673274	-0.739359	0.007114
10335		-0.259145	0.223619	-0.939595	0.691106	-0.636648	-0.342130	-0.674698	-0.738020	0.010440
10336		-0.252041	0.214869	-0.943561	0.699544	-0.633270	-0.331069	-0.668665	-0.743505	0.009300
10337		-0.245617	0.205791	-0.947271	0.709261	-0.627965	-0.320327	-0.660773	-0.750540	0.008279
10338		-0.240287	0.197172	-0.950466	0.716400	-0.624688	-0.310703	-0.655007	-0.755571	0.008851
10339		-0.235972	0.188709	-0.953261	0.717370	-0.627893	-0.301878	-0.655513	-0.755076	0.012791
10340		-0.232536	0.181260	-0.955548	0.713257	-0.636148	-0.294246	-0.661205	-0.749974	0.018642
10341		-0.230448	0.175690	-0.957093	0.706102	-0.646583	-0.288705	-0.669562	-0.742337	0.024949
10342		-0.230189	0.173139	-0.957620	0.696841	-0.657565	-0.286392	-0.679283	-0.733233	0.030714
10343		-0.232312	0.174321	-0.956893	0.685611	-0.668477	-0.288230	-0.689905	-0.723015	0.035779
10344		-0.236737	0.181142	-0.954538	0.673613	-0.677391	-0.295612	-0.700143	-0.712972	0.038344
10345		-0.245240	0.194898	-0.949670	0.659325	-0.684627	-0.310766	-0.710738	-0.702353	0.039397
10346		-0.258894	0.216713	-0.941281	0.644502	-0.687086	-0.335456	-0.719438	-0.693505	0.038210
10347		-0.277137	0.244155	-0.929292	0.641438	-0.673080	-0.368132	-0.715369	-0.698106	0.029925
10348		-0.299578	0.274235	-0.913810	0.645691	-0.646846	-0.405799	-0.702379	-0.711607	0.016710
10349		-0.327131	0.303543	-0.894900	0.646406	-0.618906	-0.446222	-0.689307	-0.724442	0.006251
10350		-0.360151	0.330613	-0.872345	0.637769	-0.595188	-0.488878	-0.680839	-0.732425	0.003502
10351		-0.395777	0.354911	-0.846994	0.620533	-0.576542	-0.531543	-0.676979	-0.735960	0.007948
10352		-0.433065	0.376799	-0.818826	0.594848	-0.563046	-0.573703	-0.677208	-0.735528	0.019698
10353		-0.470638	0.395249	-0.788846	0.557447	-0.559814	-0.613075	-0.683924	-0.728276	0.043139
10354		-0.505592	0.411559	-0.758285	0.514748	-0.561441	-0.647934	-0.692395	-0.717916	0.072011
10355		-0.536428	0.424689	-0.729304	0.473661	-0.563719	-0.676658	-0.698492	-0.708421	0.101236
10356		-0.561211	0.435353	-0.703924	0.437916	-0.565506	-0.698879	-0.702333	-0.700479	0.126720
10357		-0.579890	0.442700	-0.683918	0.413181	-0.563695	-0.715213	-0.702146	-0.697327	0.143966
10358		-0.592382	0.447513	-0.669937	0.397673	-0.560764	-0.726223	-0.700671	-0.696617	0.154222
10359		-0.600965	0.449295	-0.661041	0.389334	-0.557743	-0.733036	-0.698040	-0.697895	0.160258
10360		-0.608829	0.443466	-0.657773	0.385759	-0.559027	-0.733948	-0.693194	-0.700590	0.169281
10361		-0.613355	0.431120	-0.661764	0.392353	-0.560861	-0.729036	-0.685460	-0.706803	0.174856
10362		-0.613473	0.416655	-0.670858	0.404885	-0.563404	-0.720169	-0.678026	-0.713424	0.176936
10363		-0.612280	0.398655	-0.682779	0.418805	-0.568940	-0.707750	-0.670609	-0.719292	0.181392
10364		-0.610182	0.377280	-0.696662	0.434976	-0.575415	-0.692598	-0.662173	-0.725643	0.187000
10365		-0.607996	0.353103	-0.711097	0.450287	-0.584311	-0.675146	-0.653898	-0.730684	0.196261
10366		-0.606702	0.325949	-0.725031	0.462319	-0.597275	-0.655381	-0.646663	-0.732817	0.211675
10367		-0.603074	0.300046	-0.739104	0.472302	-0.612377	-0.633976	-0.642832	-0.731414	0.227596
10368		-0.597852	0.276664	-0.752349	0.479271	-0.628955	-0.612140	-0.642551	-0.726548	0.243425
10369		-0.593752	0.254208	-0.763438	0.480854	-0.648637	-0.589958	-0.645166	-0.717390	0.262893
10370		-0.591517	0.231931	-0.772215	0.477701	-0.670739	-0.567372	-0.649546	-0.704498	0.285960
10371		-0.589870	0.212024	-0.779166	0.472615	-0.691731	-0.546026	-0.654743	-0.690329	0.307825
10372		-0.586912	0.196526	-0.785437	0.468666	-0.708585	-0.527504	-0.660217	-0.677706	0.323772
10373		-0.582759	0.183776	-0.791593	0.466127	-0.722327	-0.510851	-0.665671	-0.666686	0.335279
10374		-0.577980	0.172195	-0.797676	0.464474	-0.734288	-0.495060	-0.670971	-0.656635	0.344424
10375		-0.570894	0.163728	-0.804533	0.467164	-0.741040	-0.482305	-0.675157	-0.651194	0.346567
10376		-0.560629	0.159431	-0.812574	0.475498	-0.741397	-0.473531	-0.677936	-0.651853	0.339839
10377		-0.548912	0.158779	-0.820661	0.486174	-0.737996	-0.467971	-0.679949	-0.655859	0.327900
10378		-0.537027	0.161749	-0.827913	0.497506	-0.731860	-0.465691	-0.681241	-0.661981	0.312557
10379		-0.524717	0.169433	-0.834245	0.508174	-0.723879	-0.466645	-0.682958	-0.668798	0.293731
10380		-0.511808	0.180773	-0.839865	0.514014	-0.718885	-0.467969	-0.688362	-0.671212	0.275011
10381		-0.499565	0.192569	-0.844602	0.512320	-0.720523	-0.467305	-0.698544	-0.666156	0.261291
10382		-0.487968	0.201775	-0.849220	0.506332	-0.727061	-0.463692	-0.710996	-0.656254	0.252617
10383		-0.476939	0.206500	-0.854334	0.497609	-0.737791	-0.456124	-0.724510	-0.642668	0.249126
10384		-0.465609	0.207666	-0.860281	0.490500	-0.748560	-0.446171	-0.736626	-0.629709	0.246676
10385		-0.452576	0.208103	-0.867103	0.489865	-0.754502	-0.436759	-0.745123	-0.622430	0.239527
10386		-0.438812	0.207833	-0.874214	0.492675	-0.757970	-0.427496	-0.751475	-0.618294	0.230212
10387		-0.425181	0.206436	-0.881252	0.497570	-0.760011	-0.418099	-0.756072	-0.616253	0.220426
10388		-0.412302	0.203424	-0.888046	0.504798	-0.760433	-0.408559	-0.758410	-0.616733	0.210840
10389		-0.399131	0.200273	-0.894754	0.514115	-0.759133	-0.399253	-0.759197	-0.619361	0.200030
10390		-0.387072	0.198044	-0.900529	0.525741	-0.754936	-0.392004	-0.757477	-0.625180	0.188095
10391		-0.375941	0.197327	-0.905390	0.536698	-0.750132	-0.386339	-0.755397	-0.631161	0.176100
10392		-0.365501	0.197312	-0.909657	0.546827	-0.745336	-0.381385	-0.753252	-0.636822	0.164525
10393		-0.355922	0.197344	-0.913441	0.555658	-0.741203	-0.376645	-0.751374	-0.641617	0.154154
10394		-0.346432	0.197296	-0.917093	0.564059	-0.737344	-0.371700	-0.749548	-0.646063	0.144153
10395		-0.336492	0.196988	-0.920852	0.571508	-0.734476	-0.365955	-0.748433	-0.649415	0.134565
10396		-0.325649	0.195884	-0.924977	0.576910	-0.733915	-0.358530	-0.749085	-0.650383	0.125991
10397		-0.313102	0.193648	-0.929768	0.580663	-0.735661	-0.348760	-0.751530	-0.649079	0.117893
10398		-0.297919	0.190103	-0.935470	0.583423	-0.739381	-0.336057	-0.755554	-0.645893	0.109365
10399		-0.280912	0.185911	-0.941555	0.587082	-0.742809	-0.321823	-0.759225	-0.643174	0.099519
10400		-0.264789	0.182810	-0.946819	0.586340	-0.748985	-0.308590	-0.765567	-0.636869	0.091134
10401		-0.247492	0.187298	-0.950614	0.585481	-0.752832	-0.300759	-0.771985	-0.631001	0.076660
10402		-0.220537	0.213376	-0.951753	0.607159	-0.733643	-0.305167	-0.763362	-0.645166	0.032242
10403		-0.198099	0.254245	-0.946634	0.634353	-0.702992	-0.321557	-0.747230	-0.664200	-0.022019
10404		-0.218321	0.259359	-0.940781	0.591734	-0.731408	-0.338958	-0.776007	-0.630694	0.006210
10405		-0.261361	0.240754	-0.934734	0.541081	-0.765394	-0.348430	-0.799326	-0.596833	0.069777
10406		-0.284643	0.237880	-0.928650	0.543663	-0.757815	-0.360759	-0.789563	-0.607560	0.086380
10407		-0.284572	0.249569	-0.925599	0.584088	-0.720477	-0.373838	-0.760171	-0.647015	0.059257
10408		-0.287564	0.261912	-0.921254	0.608210	-0.693102	-0.386898	-0.739857	-0.671573	0.040014
10409		-0.285986	0.279038	-0.916706	0.633432	-0.662780	-0.399358	-0.719010	-0.694882	0.012794
10410		-0.276247	0.300787	-0.912806	0.652884	-0.638248	-0.407900	-0.705287	-0.708638	-0.020065
10411		-0.269484	0.316592	-0.909477	0.661916	-0.625064	-0.413717	-0.699461	-0.713488	-0.041112
10412		-0.275624	0.325733	-0.904394	0.648671	-0.631305	-0.425065	-0.709406	-0.703813	-0.037291
10413		-0.294601	0.330788	-0.896543	0.624086	-0.643884	-0.442640	-0.723690	-0.689922	-0.016751
10414		-0.317832	0.331308	-0.888379	0.595194	-0.659634	-0.458941	-0.738056	-0.674625	0.012460
10415		-0.338277	0.329420	-0.881505	0.569261	-0.674269	-0.470430	-0.749340	-0.660942	0.040564
10416		-0.351730	0.328067	-0.876731	0.554741	-0.681356	-0.477511	-0.754022	-0.654314	0.057661
10417		-0.357252	0.327596	-0.874673	0.552624	-0.680828	-0.480708	-0.752980	-0.655098	0.062190
10418		-0.355346	0.328149	-0.875241	0.563865	-0.671548	-0.480707	-0.745510	-0.664336	0.053600
10419		-0.346902	0.329924	-0.877957	0.584330	-0.656187	-0.477469	-0.733633	-0.678652	0.034848
10420		-0.336473	0.329349	-0.882222	0.606308	-0.641063	-0.470562	-0.720539	-0.693230	0.016013
10421		-0.327394	0.324543	-0.887404	0.626479	-0.628502	-0.460987	-0.707345	-0.706865	0.002449
10422		-0.322822	0.315369	-0.892372	0.641161	-0.620681	-0.451296	-0.696203	-0.717843	-0.001832
10423		-0.321980	0.304367	-0.896487	0.649674	-0.617750	-0.443068	-0.688660	-0.725083	0.001164
10424		-0.321467	0.291820	-0.900833	0.653014	-0.620606	-0.434074	-0.685734	-0.727797	0.008942
10425		-0.319123	0.277066	-0.906309	0.653525	-0.628233	-0.422170	-0.686342	-0.727019	0.019414
10426		-0.313728	0.259984	-0.913227	0.652564	-0.639613	-0.406270	-0.689735	-0.723397	0.031008
10427		-0.305096	0.240455	-0.921465	0.649943	-0.654645	-0.386024	-0.696053	-0.716674	0.043448
10428		-0.292887	0.219352	-0.930646	0.647777	-0.670397	-0.361875	-0.703280	-0.708839	0.054259
10429		-0.277610	0.197065	-0.940265	0.648097	-0.684058	-0.334716	-0.709157	-0.702303	0.062184
10430		-0.260603	0.173890	-0.949657	0.651312	-0.694425	-0.305886	-0.712656	-0.698238	0.067712
10431		-0.246259	0.151528	-0.957286	0.655728	-0.701281	-0.279689	-0.713707	-0.696595	0.073336
10432		-0.235942	0.133190	-0.962596	0.661319	-0.703796	-0.259477	-0.712031	-0.697805	0.077974
10433		-0.223076	0.121748	-0.967168	0.671785	-0.699744	-0.243031	-0.706359	-0.703943	0.074307
10434		-0.208666	0.116512	-0.971022	0.682176	-0.694112	-0.229880	-0.700782	-0.710376	0.065356
10435		-0.197118	0.113410	-0.973798	0.688402	-0.691209	-0.219847	-0.698031	-0.713701	0.058178
10436		-0.191147	0.111276	-0.975234	0.687632	-0.693823	-0.213943	-0.700447	-0.711496	0.056105
10437		-0.192050	0.115580	-0.974555	0.675680	-0.704620	-0.216719	-0.711739	-0.700108	0.057228
10438		-0.205271	0.129156	-0.970146	0.647063	-0.725790	-0.233535	-0.734284	-0.675683	0.065412
10439		-0.228325	0.152586	-0.961554	0.617886	-0.740539	-0.264233	-0.752386	-0.654461	0.074803
10440		-0.253904	0.186788	-0.949022	0.611581	-0.729135	-0.307133	-0.749334	-0.658386	0.070894
10441		-0.282295	0.224429	-0.932706	0.609762	-0.708608	-0.355058	-0.740608	-0.668959	0.063188
10442		-0.317562	0.259150	-0.912138	0.602687	-0.687477	-0.405147	-0.732068	-0.678393	0.062130
10443		-0.355348	0.295416	-0.886824	0.597210	-0.658099	-0.458525	-0.719074	-0.692556	0.057428
10444		-0.392112	0.333272	-0.857425	0.587977	-0.626029	-0.512221	-0.707482	-0.704994	0.049518
10445		-0.426472	0.368337	-0.826105	0.565801	-0.603933	-0.561368	-0.705685	-0.706819	0.049155
10446		-0.457610	0.398850	-0.794677	0.531958	-0.593342	-0.604124	-0.712470	-0.699188	0.059348
10447		-0.486610	0.424821	-0.763373	0.492522	-0.588298	-0.641348	-0.721549	-0.688064	0.077038
10448		-0.513118	0.447465	-0.732452	0.451887	-0.584679	-0.673757	-0.729731	-0.676702	0.097805
10449		-0.537992	0.466220	-0.702284	0.411311	-0.582028	-0.701475	-0.735791	-0.666245	0.121365
10450		-0.560926	0.481185	-0.673664	0.370836	-0.581488	-0.724122	-0.740164	-0.655997	0.147731
10451		-0.580503	0.493075	-0.647992	0.333092	-0.582375	-0.741545	-0.743012	-0.646310	0.173831
10452		-0.595698	0.501464	-0.627438	0.299376	-0.586255	-0.752781	-0.745331	-0.636270	0.199105
10453		-0.605697	0.507043	-0.613219	0.273380	-0.591148	-0.758820	-0.747258	-0.627257	0.219441
10454		-0.611354	0.508671	-0.606218	0.262119	-0.592644	-0.761621	-0.746686	-0.624521	0.228982
10455		-0.615252	0.504546	-0.605721	0.268962	-0.587909	-0.762904	-0.741029	-0.632294	0.226009
10456		-0.616887	0.495686	-0.611347	0.289977	-0.578972	-0.762040	-0.731686	-0.647369	0.213423
10457		-0.623331	0.477862	-0.618956	0.314541	-0.571460	-0.757956	-0.715907	-0.667144	0.205901
10458		-0.638332	0.447080	-0.626619	0.334922	-0.571640	-0.749036	-0.693080	-0.688002	0.215159
10459		-0.655468	0.404558	-0.637726	0.350540	-0.584976	-0.731386	-0.668942	-0.702948	0.241619
10460		-0.665338	0.359353	-0.654362	0.367764	-0.605019	-0.706188	-0.649673	-0.710505	0.270385
10461		-0.669039	0.314602	-0.673359	0.385748	-0.627424	-0.676415	-0.635283	-0.712295	0.298414
10462		-0.670747	0.272753	-0.689714	0.395753	-0.654865	-0.643841	-0.627279	-0.704811	0.331306
10463		-0.672220	0.233483	-0.702571	0.394651	-0.689896	-0.606872	-0.626396	-0.685222	0.371618
10464		-0.673770	0.194743	-0.712818	0.385304	-0.730541	-0.563782	-0.630535	-0.654511	0.417181
10465		-0.674260	0.155964	-0.721837	0.375136	-0.769609	-0.516697	-0.636118	-0.619175	0.460409
10466		-0.670119	0.120345	-0.732433	0.372279	-0.799187	-0.471920	-0.642144	-0.588912	0.490748
10467		-0.661622	0.087803	-0.744679	0.375803	-0.820562	-0.430638	-0.648867	-0.564773	0.509905
10468		-0.650214	0.056906	-0.757617	0.380525	-0.838708	-0.389576	-0.657589	-0.541600	0.523685
10469		-0.637578	0.029214	-0.769831	0.386620	-0.852198	-0.352539	-0.666348	-0.522403	0.532048
10470		-0.621951	0.007894	-0.783016	0.398326	-0.857722	-0.325038	-0.674176	-0.514054	0.530317
10471		-0.604411	-0.008860	-0.796623	0.415069	-0.857004	-0.305389	-0.680003	-0.515234	0.521660
10472		-0.587703	-0.023232	-0.808743	0.435643	-0.851400	-0.292118	-0.681777	-0.524002	0.510491
10473		-0.573958	-0.034210	-0.818170	0.455462	-0.843661	-0.284237	-0.680535	-0.535785	0.499807
10474		-0.562899	-0.041882	-0.825464	0.472872	-0.835435	-0.280073	-0.677891	-0.547991	0.490070
10475		-0.554996	-0.047308	-0.830507	0.485320	-0.829270	-0.277083	-0.675606	-0.556842	0.483201
10476		-0.548358	-0.048935	-0.834810	0.493518	-0.824840	-0.275824	-0.675088	-0.563244	0.476458
10477		-0.541536	-0.046287	-0.839402	0.498380	-0.821781	-0.276212	-0.677020	-0.567920	0.468093
10478		-0.534016	-0.040315	-0.844513	0.501295	-0.819446	-0.277869	-0.680830	-0.571737	0.457807
10479		-0.526499	-0.032045	-0.849572	0.504473	-0.816129	-0.281850	-0.684329	-0.576980	0.445857
10480		-0.517721	-0.021539	-0.855279	0.509860	-0.810539	-0.288218	-0.687028	-0.585289	0.430615
10481		-0.508994	-0.010797	-0.860703	0.517855	-0.802562	-0.296177	-0.687569	-0.596471	0.414090
10482		-0.499830	-0.000419	-0.866123	0.526209	-0.794432	-0.303286	-0.687949	-0.607353	0.397301
10483		-0.490540	0.009413	-0.871368	0.534286	-0.786694	-0.309276	-0.688411	-0.617272	0.380876
10484		-0.479902	0.020198	-0.877090	0.542212	-0.779117	-0.314615	-0.689710	-0.626553	0.362948
10485		-0.467127	0.032873	-0.883579	0.551082	-0.770649	-0.320016	-0.691449	-0.636412	0.341875
10486		-0.453076	0.046038	-0.890282	0.559576	-0.762730	-0.324218	-0.693972	-0.645076	0.319813
10487		-0.438444	0.058525	-0.896851	0.567020	-0.756211	-0.326547	-0.697320	-0.651705	0.298371
10488		-0.423770	0.069254	-0.903119	0.573072	-0.751638	-0.326540	-0.701433	-0.655930	0.278834
10489		-0.409031	0.077209	-0.909248	0.577067	-0.749988	-0.323283	-0.706886	-0.656930	0.262214
10490		-0.394875	0.080535	-0.915198	0.581037	-0.749743	-0.316672	-0.711666	-0.656810	0.249261
10491		-0.382405	0.079476	-0.920570	0.581940	-0.753156	-0.306761	-0.717713	-0.653024	0.241760
10492		-0.369159	0.076751	-0.926192	0.578334	-0.761142	-0.293585	-0.727497	-0.644028	0.236595
10493		-0.353658	0.074246	-0.932424	0.573015	-0.770699	-0.278706	-0.739311	-0.632859	0.230020
10494		-0.336276	0.071558	-0.939041	0.568000	-0.779931	-0.262838	-0.751195	-0.621762	0.221627
10495		-0.319007	0.067224	-0.945365	0.566580	-0.786089	-0.247086	-0.759751	-0.614447	0.212680
10496		-0.305716	0.061526	-0.950133	0.570260	-0.787292	-0.234469	-0.762458	-0.613503	0.205602
10497		-0.300516	0.059725	-0.951905	0.576150	-0.783998	-0.231081	-0.760093	-0.617884	0.201193
10498		-0.299519	0.065983	-0.951806	0.587274	-0.773474	-0.238427	-0.751929	-0.630384	0.192920
10499		-0.297135	0.077746	-0.951665	0.598895	-0.761078	-0.249168	-0.743663	-0.643984	0.179581
10500		-0.293160	0.088718	-0.951938	0.607703	-0.751371	-0.257175	-0.738075	-0.653889	0.166357
10501		-0.288458	0.094798	-0.952788	0.614095	-0.745156	-0.260058	-0.734629	-0.660119	0.156730
10502		-0.284565	0.093965	-0.954041	0.620539	-0.740510	-0.258024	-0.730722	-0.665444	0.152414
10503		-0.280192	0.087580	-0.955941	0.626471	-0.737849	-0.251222	-0.727342	-0.669260	0.151872
10504		-0.276104	0.078729	-0.957898	0.630544	-0.737347	-0.242350	-0.725383	-0.670911	0.153942
10505		-0.274606	0.070943	-0.958936	0.629156	-0.740909	-0.234982	-0.727155	-0.667848	0.158824
10506		-0.273341	0.073414	-0.959112	0.650645	-0.720271	-0.240562	-0.708481	-0.689797	0.149114
10507		-0.254357	0.133975	-0.957785	0.716878	-0.638629	-0.279712	-0.649144	-0.757762	0.066396
10508		-0.244978	0.167566	-0.954938	0.706588	-0.643570	-0.294196	-0.663867	-0.746819	0.039260
10509		-0.275837	0.146097	-0.950037	0.674485	-0.674768	-0.299598	-0.684824	-0.723425	0.087586
10510		-0.305649	0.159077	-0.938761	0.711501	-0.617030	-0.336214	-0.632728	-0.770694	0.075411
10511		-0.298152	0.177033	-0.937958	0.723433	-0.599137	-0.343043	-0.622696	-0.780829	0.050562
10512		-0.304231	0.187730	-0.933917	0.740830	-0.569688	-0.355846	-0.598844	-0.800133	0.034241
10513		-0.294126	0.213607	-0.931591	0.772701	-0.520517	-0.363312	-0.562515	-0.826701	-0.011956
10514		-0.298065	0.225155	-0.927611	0.769715	-0.518033	-0.373069	-0.564532	-0.825195	-0.018897
10515		-0.315331	0.236479	-0.919045	0.757888	-0.520078	-0.393858	-0.571115	-0.820729	-0.015228
10516		-0.341446	0.241960	-0.908223	0.729249	-0.541420	-0.418401	-0.592967	-0.805183	0.008417
10517		-0.371315	0.242719	-0.896221	0.701987	-0.558384	-0.442066	-0.607733	-0.793281	0.036950
10518		-0.399195	0.239881	-0.884930	0.673708	-0.577920	-0.460571	-0.621901	-0.780042	0.069093
10519		-0.419658	0.238025	-0.875917	0.658175	-0.584730	-0.474233	-0.625055	-0.775522	0.088725
10520		-0.434696	0.236482	-0.868974	0.654191	-0.580223	-0.485154	-0.618929	-0.779370	0.097516
10521		-0.443752	0.236992	-0.864245	0.660933	-0.564726	-0.494219	-0.605187	-0.790518	0.093963
10522		-0.449519	0.235769	-0.861595	0.669500	-0.549613	-0.499695	-0.591356	-0.801461	0.089214
10523		-0.452010	0.231560	-0.861433	0.676872	-0.539942	-0.500308	-0.580975	-0.809224	0.087322
10524		-0.449510	0.226570	-0.864064	0.681915	-0.537781	-0.495765	-0.577003	-0.812070	0.087236
10525		-0.440439	0.226524	-0.868735	0.686791	-0.538197	-0.488532	-0.578214	-0.811807	0.081468
10526		-0.426399	0.229857	-0.874843	0.694428	-0.536568	-0.479443	-0.579616	-0.811949	0.069173
10527		-0.406394	0.234386	-0.883123	0.706784	-0.531897	-0.466415	-0.579052	-0.813725	0.050499
10528		-0.378439	0.232255	-0.896014	0.723832	-0.529094	-0.442862	-0.576933	-0.816160	0.032117
10529		-0.360133	0.214550	-0.907894	0.737613	-0.530350	-0.417918	-0.571166	-0.820181	0.032742
10530		-0.360114	0.195839	-0.912121	0.739957	-0.535467	-0.407110	-0.568139	-0.821536	0.047917
10531		-0.365792	0.180713	-0.912984	0.738804	-0.540199	-0.402931	-0.566008	-0.821905	0.064089
10532		-0.369663	0.164689	-0.914454	0.737935	-0.546012	-0.396640	-0.564625	-0.821431	0.080311
10533		-0.366542	0.147358	-0.918658	0.739452	-0.553117	-0.383762	-0.564675	-0.819968	0.093776
10534		-0.355131	0.130240	-0.925700	0.743149	-0.561403	-0.364083	-0.567109	-0.817230	0.102584
10535		-0.335991	0.113251	-0.935032	0.747756	-0.571550	-0.337922	-0.572688	-0.812714	0.107351
10536		-0.310927	0.096214	-0.945551	0.752180	-0.583239	-0.306688	-0.580990	-0.806582	0.108975
10537		-0.282894	0.078227	-0.955956	0.755301	-0.596133	-0.272297	-0.591178	-0.799066	0.109558
10538		-0.255989	0.057543	-0.964965	0.756758	-0.609187	-0.237082	-0.601487	-0.790936	0.112399
10539		-0.237655	0.035477	-0.970701	0.753609	-0.623778	-0.207303	-0.612856	-0.780796	0.121508
10540		-0.221640	0.021204	-0.974898	0.754190	-0.630008	-0.185166	-0.618120	-0.776299	0.123644
10541		-0.203882	0.012297	-0.978918	0.759541	-0.628896	-0.166091	-0.617681	-0.777392	0.118881
10542		-0.188857	0.004933	-0.981992	0.764637	-0.626713	-0.150203	-0.616169	-0.779234	0.114587
10543		-0.178667	0.000464	-0.983910	0.764946	-0.628873	-0.139202	-0.618819	-0.777508	0.112003
10544		-0.179096	0.000677	-0.983831	0.753351	-0.643066	-0.137582	-0.632762	-0.765810	0.114661
10545		-0.194540	0.009893	-0.980845	0.725466	-0.671565	-0.150662	-0.660191	-0.740880	0.123469
10546		-0.215240	0.036864	-0.975865	0.708257	-0.682095	-0.181982	-0.672342	-0.730334	0.120704
10547		-0.238347	0.075521	-0.968239	0.694275	-0.683882	-0.224248	-0.679097	-0.725673	0.110569
10548		-0.268815	0.117079	-0.956050	0.672358	-0.687928	-0.273293	-0.689690	-0.716273	0.106206
10549		-0.308603	0.156390	-0.938246	0.647283	-0.688251	-0.327621	-0.696985	-0.708416	0.111167
10550		-0.355054	0.195020	-0.914278	0.618294	-0.684556	-0.386130	-0.701177	-0.702389	0.122475
10551		-0.402547	0.234433	-0.884871	0.585653	-0.676972	-0.445779	-0.703539	-0.697675	0.135217
10552		-0.451629	0.269164	-0.850637	0.539406	-0.677063	-0.500627	-0.710685	-0.684936	0.160592
10553		-0.500803	0.297408	-0.812862	0.483100	-0.683189	-0.547601	-0.718199	-0.666934	0.198466
10554		-0.547081	0.322061	-0.772644	0.426780	-0.686732	-0.588437	-0.720112	-0.651672	0.238249
10555		-0.590541	0.342830	-0.730568	0.375223	-0.684830	-0.624672	-0.714471	-0.643020	0.275783
10556		-0.632576	0.358644	-0.686456	0.329406	-0.677577	-0.657557	-0.700955	-0.642078	0.310479
10557		-0.672706	0.369174	-0.641231	0.290972	-0.664817	-0.688007	-0.680295	-0.649407	0.339807
10558		-0.709753	0.375791	-0.595846	0.258713	-0.647674	-0.716649	-0.655224	-0.662797	0.362466
10559		-0.741810	0.380681	-0.552086	0.232491	-0.626213	-0.744181	-0.629019	-0.680396	0.376026
10560		-0.768006	0.385908	-0.511118	0.211633	-0.600316	-0.771254	-0.604465	-0.700497	0.379376
10561		-0.789300	0.391374	-0.473108	0.194624	-0.571321	-0.797317	-0.582346	-0.721400	0.374773
10562		-0.807138	0.395939	-0.437905	0.180022	-0.541361	-0.821292	-0.562246	-0.741728	0.365676
10563		-0.823340	0.398260	-0.404353	0.164155	-0.514896	-0.841389	-0.543291	-0.759125	0.358558
10564		-0.841282	0.394388	-0.369732	0.143442	-0.496565	-0.856065	-0.521218	-0.773228	0.361179
10565		-0.859800	0.384740	-0.335736	0.118133	-0.489784	-0.863804	-0.496778	-0.782360	0.375666
10566		-0.878939	0.368096	-0.303267	0.087100	-0.501289	-0.860885	-0.468913	-0.783080	0.408542
10567		-0.898602	0.343290	-0.273251	0.053860	-0.531760	-0.845181	-0.435446	-0.774198	0.459351
10568		-0.915574	0.314932	-0.250086	0.026615	-0.573055	-0.819084	-0.401269	-0.756588	0.516292
10569		-0.929891	0.285753	-0.231622	0.008910	-0.612005	-0.790804	-0.367728	-0.737425	0.566552
10570		-0.941773	0.257777	-0.215904	-0.003244	-0.649031	-0.760755	-0.336233	-0.715758	0.612076
10571		-0.951776	0.230699	-0.202237	-0.012638	-0.688120	-0.725487	-0.306532	-0.687946	0.657852
10572		-0.959611	0.203954	-0.193779	-0.015979	-0.727191	-0.686249	-0.280878	-0.655436	0.701079
10573		-0.966330	0.173668	-0.189855	-0.012305	-0.768210	-0.640079	-0.257010	-0.616192	0.744482
10574		-0.973046	0.135646	-0.186496	-0.000336	-0.809541	-0.587063	-0.230609	-0.571177	0.787767
10575		-0.978491	0.092193	-0.184540	0.020567	-0.846519	-0.531961	-0.205260	-0.524315	0.826415
10576		-0.981304	0.048854	-0.186159	0.047371	-0.876182	-0.479648	-0.186542	-0.479499	0.857486
10577		-0.980830	0.011234	-0.194539	0.076958	-0.894850	-0.439682	-0.179023	-0.446225	0.876832
10578		-0.978071	-0.022014	-0.207104	0.107235	-0.905688	-0.410158	-0.178542	-0.423372	0.888188
10579		-0.974094	-0.055038	-0.219342	0.138533	-0.911861	-0.386416	-0.178742	-0.406792	0.895864
10580		-0.968693	-0.086917	-0.232548	0.170688	-0.913367	-0.369631	-0.180274	-0.397752	0.899608
10581		-0.961544	-0.115123	-0.249357	0.203017	-0.909404	-0.363000	-0.184977	-0.399664	0.897804
10582		-0.952653	-0.138440	-0.270715	0.234554	-0.901153	-0.364565	-0.193485	-0.410802	0.890958
10583		-0.942795	-0.155769	-0.294742	0.262451	-0.891976	-0.368101	-0.205564	-0.424399	0.881833
10584		-0.932519	-0.165837	-0.320791	0.284041	-0.885390	-0.367974	-0.223001	-0.434260	0.872748
10585		-0.921638	-0.169879	-0.348890	0.300518	-0.881274	-0.364754	-0.245503	-0.441019	0.863267
10586		-0.910787	-0.167972	-0.377162	0.310920	-0.880079	-0.358873	-0.271652	-0.444124	0.853791
10587		-0.900708	-0.161271	-0.403381	0.315385	-0.881316	-0.351874	-0.298759	-0.444156	0.844671
10588		-0.891727	-0.150728	-0.426736	0.314889	-0.883891	-0.345807	-0.325065	-0.442740	0.835652
10589		-0.883526	-0.137505	-0.447744	0.311981	-0.885781	-0.343599	-0.349357	-0.443266	0.825509
10590		-0.875259	-0.122009	-0.468012	0.309516	-0.884862	-0.348165	-0.371647	-0.449592	0.812247
10591		-0.866914	-0.104741	-0.487329	0.307971	-0.881292	-0.358439	-0.391936	-0.460819	0.796261
10592		-0.858049	-0.086626	-0.506209	0.307163	-0.876505	-0.370663	-0.411585	-0.473535	0.778692
10593		-0.848293	-0.069621	-0.524931	0.306312	-0.873144	-0.379200	-0.431940	-0.482465	0.762007
10594		-0.836705	-0.055851	-0.544799	0.307163	-0.871445	-0.382405	-0.453405	-0.487303	0.746298
10595		-0.822523	-0.045447	-0.566913	0.313161	-0.868271	-0.384754	-0.474748	-0.494004	0.728405
10596		-0.806096	-0.037437	-0.590599	0.326017	-0.860989	-0.390398	-0.493884	-0.507244	0.706245
10597		-0.788333	-0.030794	-0.614478	0.344086	-0.850018	-0.398841	-0.510035	-0.525853	0.680693
10598		-0.769336	-0.025671	-0.638328	0.365772	-0.836906	-0.407185	-0.523768	-0.546745	0.653252
10599		-0.748855	-0.021542	-0.662384	0.391560	-0.820755	-0.415984	-0.534694	-0.570875	0.623061
10600		-0.726237	-0.018052	-0.687207	0.419873	-0.803180	-0.422621	-0.544322	-0.595463	0.590879
10601		-0.701316	-0.015363	-0.712685	0.450193	-0.784710	-0.426096	-0.552704	-0.619673	0.557246
10602		-0.674100	-0.013317	-0.738520	0.481746	-0.765844	-0.425915	-0.559919	-0.642888	0.522671
10603		-0.644795	-0.010717	-0.764281	0.510865	-0.749807	-0.420484	-0.568557	-0.661570	0.488946
10604		-0.612631	-0.006259	-0.790345	0.536578	-0.737505	-0.410085	-0.580317	-0.675312	0.455177
10605		-0.578200	-0.000079	-0.815895	0.558977	-0.728479	-0.396060	-0.594331	-0.685069	0.421250
10606		-0.542845	0.006624	-0.839807	0.577623	-0.722949	-0.379073	-0.609648	-0.690870	0.388623
10607		-0.507363	0.013858	-0.861621	0.590443	-0.722688	-0.359304	-0.627662	-0.691036	0.358483
10608		-0.472225	0.021643	-0.881212	0.597339	-0.727301	-0.337965	-0.648221	-0.685978	0.330522
10609		-0.437898	0.029696	-0.898534	0.598962	-0.735698	-0.316217	-0.670440	-0.676659	0.304374
10610		-0.404359	0.038186	-0.913803	0.597941	-0.744994	-0.295721	-0.692070	-0.665977	0.278412
10611		-0.373169	0.046854	-0.926580	0.596776	-0.752564	-0.278399	-0.710354	-0.656850	0.252872
10612		-0.345854	0.054556	-0.936701	0.595734	-0.758506	-0.264138	-0.724904	-0.649378	0.229832
10613		-0.324113	0.061816	-0.943997	0.596971	-0.760732	-0.254780	-0.733878	-0.646116	0.209660
10614		-0.306977	0.070120	-0.949130	0.601354	-0.758683	-0.250546	-0.737658	-0.647675	0.190732
10615		-0.292099	0.078679	-0.953146	0.607406	-0.754547	-0.248430	-0.738740	-0.651512	0.172612
10616		-0.276430	0.086300	-0.957151	0.613645	-0.750641	-0.244904	-0.739613	-0.655050	0.154542
10617		-0.260085	0.094227	-0.960977	0.617109	-0.749230	-0.240482	-0.742653	-0.655573	0.136715
10618		-0.247516	0.104761	-0.963203	0.607687	-0.757504	-0.238547	-0.754621	-0.644370	0.123833
10619		-0.230260	0.135779	-0.963610	0.617225	-0.745173	-0.252489	-0.752339	-0.652902	0.087778
10620		-0.205227	0.202754	-0.957482	0.667633	-0.686344	-0.288439	-0.715645	-0.698443	0.005492
10621		-0.234171	0.218025	-0.947433	0.610663	-0.725305	-0.317842	-0.756475	-0.652991	0.036705
10622		-0.307285	0.179590	-0.934518	0.513528	-0.795475	-0.321726	-0.801165	-0.578763	0.152213
10623		-0.327448	0.173124	-0.928873	0.523829	-0.784903	-0.330952	-0.786372	-0.594941	0.166327
10624		-0.301734	0.202456	-0.931648	0.619299	-0.701337	-0.352980	-0.724862	-0.683475	0.086237
10625		-0.317917	0.202237	-0.926298	0.635665	-0.679415	-0.366504	-0.703462	-0.705333	0.087443
10626		-0.305999	0.229009	-0.924078	0.696094	-0.608349	-0.381268	-0.649475	-0.759912	0.026742
10627		-0.292665	0.254274	-0.921787	0.735818	-0.555753	-0.386924	-0.610671	-0.791507	-0.024450
10628		-0.289971	0.268027	-0.918737	0.742192	-0.543091	-0.392688	-0.604209	-0.795747	-0.041447
10629		-0.299764	0.273345	-0.914015	0.716698	-0.567827	-0.404865	-0.629670	-0.776437	-0.025692
10630		-0.317041	0.272221	-0.908505	0.683024	-0.599062	-0.417855	-0.657999	-0.753008	0.003994
10631		-0.333647	0.272295	-0.902516	0.655226	-0.621328	-0.429686	-0.677760	-0.734715	0.028890
10632		-0.353573	0.272814	-0.894739	0.629958	-0.637639	-0.443362	-0.691476	-0.720409	0.053590
10633		-0.371899	0.275949	-0.886309	0.612828	-0.644165	-0.457704	-0.697233	-0.713374	0.070455
10634		-0.387587	0.277732	-0.879000	0.600034	-0.647868	-0.469282	-0.699811	-0.709318	0.084457
10635		-0.401865	0.276651	-0.872908	0.588332	-0.652475	-0.477642	-0.701691	-0.705507	0.099444
10636		-0.410593	0.276328	-0.868940	0.583245	-0.652927	-0.483231	-0.700884	-0.705216	0.106920
10637		-0.412010	0.277876	-0.867775	0.587309	-0.647147	-0.486075	-0.696647	-0.709919	0.103432
10638		-0.407578	0.280013	-0.869179	0.595029	-0.640576	-0.485389	-0.692690	-0.715022	0.094469
10639		-0.400536	0.280880	-0.872168	0.603881	-0.634965	-0.481817	-0.689129	-0.719671	0.084708
10640		-0.393022	0.279436	-0.876042	0.610864	-0.632753	-0.475887	-0.687298	-0.722176	0.077988
10641		-0.385976	0.275701	-0.880347	0.613835	-0.635617	-0.468186	-0.688643	-0.721096	0.076098
10642		-0.377717	0.271337	-0.885272	0.617028	-0.639105	-0.459153	-0.690367	-0.719667	0.073979
10643		-0.366710	0.266358	-0.891391	0.621311	-0.643035	-0.447748	-0.692457	-0.718024	0.070316
10644		-0.354097	0.258808	-0.898685	0.627308	-0.646972	-0.433488	-0.693614	-0.717249	0.066739
10645		-0.341872	0.247846	-0.906475	0.633353	-0.651843	-0.417091	-0.694253	-0.716710	0.065873
10646		-0.332605	0.233712	-0.913648	0.636906	-0.658819	-0.400386	-0.695503	-0.715078	0.070274
10647		-0.325108	0.218936	-0.919985	0.640525	-0.664723	-0.384540	-0.695725	-0.714290	0.075873
10648		-0.317295	0.203495	-0.926236	0.644191	-0.670522	-0.367991	-0.695946	-0.713435	0.081663
10649		-0.307246	0.187471	-0.932981	0.648748	-0.676011	-0.349479	-0.696222	-0.712646	0.086081
10650		-0.292958	0.171502	-0.940618	0.655630	-0.680031	-0.328187	-0.695935	-0.712843	0.086778
10651		-0.274411	0.155080	-0.949025	0.663039	-0.684284	-0.303537	-0.696475	-0.712535	0.084951
10652		-0.252132	0.137455	-0.957881	0.669773	-0.689662	-0.275263	-0.698451	-0.710966	0.081822
10653		-0.227770	0.119150	-0.966397	0.674526	-0.696465	-0.244848	-0.702236	-0.707630	0.078264
10654		-0.205581	0.100025	-0.973515	0.675317	-0.705465	-0.215094	-0.708296	-0.701651	0.077482
10655		-0.188548	0.082314	-0.978608	0.671411	-0.716416	-0.189621	-0.716698	-0.692801	0.079812
10656		-0.173085	0.069413	-0.982458	0.669589	-0.723234	-0.169063	-0.722282	-0.687106	0.078703
10657		-0.157659	0.058580	-0.985755	0.669300	-0.727634	-0.150287	-0.726073	-0.683459	0.075511
10658		-0.146422	0.046330	-0.988137	0.669515	-0.730709	-0.133469	-0.728224	-0.681115	0.075973
10659		-0.141271	0.035564	-0.989332	0.674879	-0.727684	-0.122527	-0.724279	-0.684989	0.078800
10660		-0.146266	0.027329	-0.988868	0.675683	-0.727353	-0.120044	-0.722536	-0.685719	0.087921
10661		-0.171686	0.019496	-0.984959	0.651389	-0.747810	-0.128344	-0.739064	-0.663627	0.115689
10662		-0.206559	0.023058	-0.978162	0.645544	-0.748045	-0.153954	-0.735260	-0.663247	0.139630
10663		-0.244139	0.038508	-0.968975	0.654646	-0.730624	-0.193978	-0.715426	-0.681693	0.153164
10664		-0.288260	0.059825	-0.955681	0.663088	-0.707554	-0.244298	-0.690811	-0.704123	0.164291
10665		-0.338392	0.081038	-0.937509	0.669246	-0.679649	-0.300312	-0.661514	-0.729047	0.175754
10666		-0.393092	0.100415	-0.914000	0.668877	-0.650844	-0.359174	-0.630937	-0.752542	0.188677
10667		-0.451032	0.118166	-0.884651	0.661573	-0.621054	-0.420254	-0.599076	-0.774809	0.201940
10668		-0.507386	0.134713	-0.851124	0.646902	-0.592961	-0.479494	-0.569277	-0.793883	0.213714
10669		-0.560262	0.145701	-0.815400	0.615616	-0.585377	-0.527589	-0.554187	-0.797562	0.238269
10670		-0.610215	0.148324	-0.778228	0.570189	-0.599762	-0.561400	-0.550021	-0.786311	0.281411
10671		-0.657755	0.141713	-0.739781	0.519463	-0.625872	-0.581758	-0.545451	-0.766943	0.338056
10672		-0.702250	0.126256	-0.700646	0.469037	-0.658323	-0.588740	-0.535583	-0.742072	0.403089
10673		-0.742722	0.104246	-0.661436	0.425224	-0.689629	-0.586171	-0.517251	-0.716620	0.467875
10674		-0.777460	0.079230	-0.623922	0.390449	-0.716911	-0.577571	-0.493058	-0.692648	0.526434
10675		-0.806281	0.052748	-0.589176	0.363396	-0.741738	-0.563709	-0.466749	-0.668612	0.578881
10676		-0.830036	0.026170	-0.557095	0.344807	-0.761031	-0.549491	-0.438347	-0.648187	0.622660
10677		-0.849195	-0.000474	-0.528080	0.335103	-0.773351	-0.538177	-0.408136	-0.633978	0.656884
10678		-0.864221	-0.026792	-0.502399	0.330459	-0.783199	-0.526685	-0.379367	-0.621194	0.685710
10679		-0.876375	-0.053313	-0.478669	0.324607	-0.799594	-0.505252	-0.355805	-0.598170	0.718050
10680		-0.887304	-0.085970	-0.453102	0.319100	-0.823771	-0.468590	-0.332967	-0.560366	0.758368
10681		-0.894116	-0.120615	-0.431288	0.322762	-0.841171	-0.433884	-0.310454	-0.527146	0.791034
10682		-0.897563	-0.152290	-0.413748	0.332599	-0.849912	-0.408691	-0.289410	-0.504438	0.813501
10683		-0.899599	-0.179828	-0.397973	0.342637	-0.855658	-0.387878	-0.270778	-0.485296	0.831365
10684		-0.900779	-0.201203	-0.384857	0.351145	-0.858882	-0.372852	-0.255528	-0.470998	0.844314
10685		-0.902794	-0.216767	-0.371450	0.355539	-0.862128	-0.361008	-0.241983	-0.457981	0.855393
10686		-0.906045	-0.230035	-0.355199	0.354448	-0.871070	-0.340005	-0.231190	-0.433960	0.870764
10687		-0.910887	-0.244732	-0.332250	0.349059	-0.886401	-0.304057	-0.220095	-0.392937	0.892838
10688		-0.915823	-0.262656	-0.303776	0.344079	-0.903276	-0.256323	-0.207069	-0.339270	0.917616
10689		-0.918734	-0.279108	-0.279333	0.342621	-0.915125	-0.212503	-0.196313	-0.290939	0.936384
10690		-0.919233	-0.289495	-0.266838	0.345358	-0.918320	-0.193434	-0.189044	-0.269966	0.944130
10691		-0.918562	-0.292464	-0.265913	0.350421	-0.913776	-0.205469	-0.182892	-0.281917	0.941846
10692		-0.918265	-0.288934	-0.270753	0.353848	-0.905659	-0.233611	-0.177712	-0.310322	0.933873
10693		-0.918810	-0.281533	-0.276636	0.353706	-0.898335	-0.260550	-0.175158	-0.337244	0.924979
10694		-0.920033	-0.272341	-0.281728	0.350640	-0.893139	-0.281698	-0.174904	-0.357957	0.917211
10695		-0.921715	-0.261685	-0.286289	0.344860	-0.890724	-0.296112	-0.177517	-0.371661	0.911239
10696		-0.923681	-0.249968	-0.290395	0.335925	-0.892854	-0.299943	-0.184305	-0.374603	0.908683
10697		-0.925642	-0.237557	-0.294538	0.324019	-0.899631	-0.292702	-0.195442	-0.366374	0.909710
10698		-0.927124	-0.224778	-0.299860	0.310498	-0.908773	-0.278788	-0.209840	-0.351577	0.912338
10699		-0.927899	-0.211992	-0.306695	0.296870	-0.917755	-0.263807	-0.225546	-0.335835	0.914518
10700		-0.927926	-0.199257	-0.315041	0.284745	-0.924318	-0.254080	-0.240570	-0.325474	0.914436
10701		-0.927368	-0.185779	-0.324767	0.274517	-0.927639	-0.253233	-0.254221	-0.323994	0.911262
10702		-0.926225	-0.171922	-0.335486	0.266392	-0.928188	-0.259812	-0.266727	-0.330015	0.905509
10703		-0.924065	-0.158282	-0.347923	0.260686	-0.926667	-0.270798	-0.279547	-0.340934	0.897562
10704		-0.920425	-0.144897	-0.363074	0.258096	-0.922812	-0.286014	-0.293607	-0.356963	0.886777
10705		-0.914744	-0.131316	-0.382100	0.258610	-0.916899	-0.304001	-0.310427	-0.376898	0.872687
10706		-0.906792	-0.117232	-0.404951	0.262500	-0.908640	-0.324756	-0.329882	-0.400786	0.854721
10707		-0.896438	-0.102296	-0.431200	0.269706	-0.897991	-0.347666	-0.351649	-0.427958	0.832583
10708		-0.883375	-0.086006	-0.460707	0.280606	-0.884406	-0.372942	-0.375377	-0.458725	0.805397
10709		-0.867781	-0.068775	-0.492164	0.294155	-0.869325	-0.397174	-0.400535	-0.489433	0.774614
10710		-0.850340	-0.051816	-0.523677	0.309393	-0.854203	-0.417867	-0.425674	-0.517351	0.742394
10711		-0.830759	-0.036057	-0.555463	0.325995	-0.840373	-0.433012	-0.451184	-0.540807	0.709902
10712		-0.809135	-0.022506	-0.587191	0.343569	-0.828790	-0.441664	-0.476718	-0.559106	0.678336
10713		-0.786066	-0.011268	-0.618039	0.361627	-0.819265	-0.445007	-0.501324	-0.573305	0.648071
10714		-0.762285	-0.002696	-0.647236	0.378976	-0.812507	-0.442955	-0.524690	-0.582945	0.620384
10715		-0.738220	0.003481	-0.674551	0.394873	-0.808519	-0.436317	-0.546906	-0.588460	0.595490
10716		-0.712792	0.008302	-0.701326	0.409645	-0.806726	-0.425893	-0.569314	-0.590868	0.571627
10717		-0.686077	0.012138	-0.727428	0.425189	-0.804642	-0.414446	-0.590349	-0.593636	0.546886
10718		-0.660052	0.014690	-0.751076	0.442213	-0.800629	-0.404279	-0.607272	-0.598980	0.521961
10719		-0.634148	0.019487	-0.772966	0.458530	-0.795454	-0.396236	-0.622580	-0.605700	0.495501
10720		-0.606434	0.028580	-0.794620	0.473791	-0.789579	-0.389983	-0.638561	-0.612983	0.465286
10721		-0.575310	0.043337	-0.816787	0.487518	-0.783663	-0.384966	-0.656768	-0.619673	0.429721
10722		-0.540924	0.061195	-0.838843	0.499780	-0.778786	-0.379094	-0.676477	-0.624298	0.390680
10723		-0.505657	0.079047	-0.859106	0.512597	-0.773441	-0.372872	-0.693942	-0.628920	0.350577
10724		-0.475177	0.094660	-0.874784	0.523411	-0.768755	-0.367500	-0.707282	-0.632499	0.315748
10725		-0.449537	0.110744	-0.886370	0.527237	-0.768106	-0.363365	-0.721067	-0.630673	0.286903
10726		-0.424541	0.131112	-0.895865	0.529490	-0.766669	-0.363124	-0.734442	-0.628513	0.256059
10727		-0.398476	0.154396	-0.904090	0.528651	-0.766850	-0.363962	-0.749496	-0.622978	0.223950
10728		-0.371592	0.177087	-0.911350	0.523321	-0.770872	-0.363169	-0.766847	-0.611880	0.193776
10729		-0.344211	0.196535	-0.918092	0.513362	-0.779334	-0.359301	-0.786116	-0.594989	0.167362
10730		-0.317240	0.209564	-0.924901	0.496880	-0.793966	-0.350326	-0.807756	-0.570702	0.147749
10731		-0.291759	0.215813	-0.931827	0.475995	-0.812253	-0.337156	-0.829642	-0.541913	0.134256
10732		-0.266018	0.218134	-0.938963	0.444554	-0.836534	-0.320285	-0.855340	-0.502621	0.125561
10733		-0.241641	0.222807	-0.944440	0.403224	-0.862218	-0.306577	-0.882621	-0.454903	0.118506
10734		-0.205721	0.245513	-0.947313	0.388454	-0.868002	-0.309316	-0.898211	-0.431620	0.083196
10735		-0.177981	0.278107	-0.943917	0.365545	-0.871906	-0.325816	-0.913619	-0.403033	0.053522
10736		-0.212449	0.276909	-0.937116	0.253471	-0.910567	-0.326527	-0.943726	-0.306902	0.123261
10737		-0.311281	0.256745	-0.914979	0.175329	-0.930769	-0.320824	-0.934004	-0.260289	0.244716
10738		-0.347015	0.241261	-0.906297	0.204708	-0.923561	-0.324238	-0.915246	-0.298042	0.271102
10739		-0.340024	0.257378	-0.904511	0.316208	-0.874527	-0.367715	-0.885661	-0.411046	0.215976
10740		-0.332709	0.276205	-0.901674	0.429284	-0.806973	-0.405598	-0.839655	-0.522020	0.149917
10741		-0.310723	0.305507	-0.900065	0.546236	-0.717557	-0.432132	-0.777867	-0.625921	0.056083
10742		-0.284771	0.333824	-0.898592	0.619254	-0.651492	-0.438273	-0.731731	-0.681264	-0.021196
10743		-0.261862	0.347648	-0.900316	0.646489	-0.629453	-0.431092	-0.716575	-0.694931	-0.059921
10744		-0.271710	0.341219	-0.899857	0.610888	-0.661351	-0.435236	-0.743632	-0.667970	-0.028751
10745		-0.293616	0.339711	-0.893524	0.554812	-0.700619	-0.448684	-0.778443	-0.627479	0.017237
10746		-0.323106	0.335394	-0.884937	0.487394	-0.742568	-0.459391	-0.811203	-0.579745	0.076459
10747		-0.344956	0.333064	-0.877539	0.430246	-0.774812	-0.463202	-0.834203	-0.537341	0.123976
10748		-0.354440	0.334873	-0.873059	0.400929	-0.789072	-0.465426	-0.844765	-0.515000	0.145418
10749		-0.354834	0.338198	-0.871616	0.393952	-0.791389	-0.467446	-0.847877	-0.509241	0.147578
10750		-0.350996	0.342174	-0.871618	0.400605	-0.786478	-0.470072	-0.846355	-0.514168	0.138974
10751		-0.346731	0.345782	-0.871902	0.415690	-0.776644	-0.473313	-0.840821	-0.526553	0.125549
10752		-0.343241	0.349472	-0.871811	0.430956	-0.766131	-0.476781	-0.834543	-0.539364	0.112361
10753		-0.340540	0.352520	-0.871643	0.442484	-0.757889	-0.479387	-0.829602	-0.548939	0.102107
10754		-0.337621	0.354477	-0.871985	0.449626	-0.753126	-0.480248	-0.826951	-0.554209	0.094890
10755		-0.333519	0.354972	-0.873361	0.451119	-0.753363	-0.478473	-0.827802	-0.553570	0.091126
10756		-0.327264	0.354138	-0.876062	0.446865	-0.758891	-0.473705	-0.832592	-0.546508	0.090106
10757		-0.317481	0.352139	-0.880457	0.438485	-0.768748	-0.465573	-0.840795	-0.533878	0.089655
10758		-0.303845	0.348749	-0.886596	0.426035	-0.782628	-0.453858	-0.852158	-0.515623	0.089218
10759		-0.288337	0.342679	-0.894110	0.408528	-0.800491	-0.438543	-0.866006	-0.491717	0.090817
10760		-0.273355	0.333184	-0.902367	0.389097	-0.819623	-0.420502	-0.879705	-0.466055	0.094407
10761		-0.260562	0.319577	-0.911031	0.371688	-0.837689	-0.400156	-0.891042	-0.442885	0.099487
10762		-0.251508	0.302327	-0.919425	0.359322	-0.852901	-0.378745	-0.898683	-0.425627	0.105879
10763		-0.246773	0.284268	-0.926442	0.351223	-0.864774	-0.358900	-0.903186	-0.413955	0.113561
10764		-0.242137	0.267488	-0.932642	0.348667	-0.873044	-0.340917	-0.905429	-0.407730	0.118132
10765		-0.235634	0.250764	-0.938932	0.351574	-0.878706	-0.322910	-0.906020	-0.406192	0.118891
10766		-0.227691	0.233088	-0.945424	0.357131	-0.883277	-0.303776	-0.905878	-0.406807	0.117871
10767		-0.219752	0.214090	-0.951774	0.361900	-0.888118	-0.283329	-0.905946	-0.406709	0.117687
10768		-0.212881	0.194095	-0.957606	0.363904	-0.893810	-0.262062	-0.906783	-0.404265	0.119643
10769		-0.207194	0.174267	-0.962653	0.363848	-0.899692	-0.241181	-0.908122	-0.400231	0.123004
10770		-0.201692	0.155389	-0.967044	0.362638	-0.905321	-0.221105	-0.909843	-0.395282	0.126246
10771		-0.196324	0.137800	-0.970808	0.358756	-0.911333	-0.201908	-0.912552	-0.387922	0.129480
10772		-0.192660	0.121571	-0.973706	0.348462	-0.919144	-0.183707	-0.917309	-0.374692	0.134719
10773		-0.190769	0.109689	-0.975487	0.337123	-0.925976	-0.170050	-0.921930	-0.361300	0.139669
10774		-0.192585	0.104543	-0.975695	0.332505	-0.928534	-0.165121	-0.923229	-0.356224	0.144061
10775		-0.204973	0.107699	-0.972824	0.331268	-0.927635	-0.172494	-0.921004	-0.357622	0.154463
10776		-0.226189	0.120988	-0.966540	0.341391	-0.919473	-0.194989	-0.912300	-0.374073	0.166670
10777		-0.255118	0.143509	-0.956201	0.362497	-0.902601	-0.232180	-0.896388	-0.405853	0.178248
10778		-0.293225	0.170676	-0.940685	0.382461	-0.880831	-0.279035	-0.876209	-0.441595	0.193005
10779		-0.337334	0.200837	-0.919712	0.407866	-0.849338	-0.335068	-0.848441	-0.488149	0.204596
10780		-0.385802	0.231881	-0.892966	0.434490	-0.808175	-0.397583	-0.813864	-0.541373	0.211045
10781		-0.434440	0.260663	-0.862158	0.449324	-0.766875	-0.458269	-0.780621	-0.586479	0.216039
10782		-0.484844	0.281094	-0.828199	0.450132	-0.731699	-0.511858	-0.749872	-0.620969	0.228230
10783		-0.532702	0.293444	-0.793800	0.440086	-0.705120	-0.555994	-0.722878	-0.645520	0.246479
10784		-0.581083	0.295096	-0.758460	0.415708	-0.693573	-0.588339	-0.699664	-0.657172	0.280350
10785		-0.629560	0.282976	-0.723588	0.388523	-0.691850	-0.608600	-0.672833	-0.664281	0.325618
10786		-0.660677	0.265680	-0.702082	0.365154	-0.703420	-0.609805	-0.655872	-0.659252	0.367720
10787		-0.672232	0.260701	-0.692921	0.338374	-0.724278	-0.600770	-0.658489	-0.638323	0.398669
10788		-0.682069	0.255901	-0.685052	0.318511	-0.739296	-0.593289	-0.658280	-0.622861	0.422744
10789		-0.688644	0.251413	-0.680118	0.309969	-0.745870	-0.589574	-0.655506	-0.616822	0.435709
10790		-0.692353	0.249274	-0.677133	0.307009	-0.747482	-0.589081	-0.652987	-0.615738	0.440992
10791		-0.698646	0.242532	-0.673106	0.299961	-0.754826	-0.583319	-0.649551	-0.609439	0.454606
10792		-0.707483	0.230910	-0.667943	0.295033	-0.762324	-0.576036	-0.642202	-0.604601	0.471205
10793		-0.720857	0.217825	-0.657964	0.285563	-0.771661	-0.568324	-0.631521	-0.597571	0.494055
10794		-0.733791	0.219084	-0.643081	0.262610	-0.781530	-0.565903	-0.626568	-0.584134	0.515946
10795		-0.748299	0.229162	-0.622521	0.234243	-0.786699	-0.571170	-0.620628	-0.573228	0.535006
10796		-0.765616	0.240628	-0.596598	0.205975	-0.786887	-0.581707	-0.609431	-0.568249	0.552890
10797		-0.784908	0.250141	-0.566877	0.177213	-0.786045	-0.592224	-0.593730	-0.565299	0.572644
10798		-0.804405	0.255895	-0.536144	0.151120	-0.784651	-0.601237	-0.574539	-0.564660	0.592506
10799		-0.823190	0.257586	-0.505972	0.125514	-0.786554	-0.604632	-0.553719	-0.561233	0.615153
10800		-0.839235	0.257885	-0.478728	0.101596	-0.790522	-0.603948	-0.534194	-0.555491	0.637233
10801		-0.850928	0.259238	-0.456857	0.082415	-0.793074	-0.603524	-0.518777	-0.551207	0.653483
10802		-0.858848	0.260393	-0.441108	0.070425	-0.792947	-0.605206	-0.507367	-0.550845	0.662683
10803		-0.864331	0.259287	-0.430932	0.064301	-0.792847	-0.606019	-0.498796	-0.551510	0.668610
10804		-0.867140	0.257010	-0.426631	0.064865	-0.791009	-0.608356	-0.493823	-0.555204	0.669245
10805		-0.867521	0.254609	-0.427296	0.071862	-0.785888	-0.614179	-0.492183	-0.563519	0.663478
10806		-0.864756	0.254293	-0.433050	0.082670	-0.778471	-0.622213	-0.495342	-0.573862	0.652165
10807		-0.859106	0.256601	-0.442825	0.095249	-0.769956	-0.630949	-0.502857	-0.584230	0.637032
10808		-0.851187	0.260898	-0.455425	0.107991	-0.762085	-0.638407	-0.513632	-0.592586	0.620503
10809		-0.841729	0.266283	-0.469665	0.117982	-0.758166	-0.641299	-0.526851	-0.595212	0.606754
10810		-0.831422	0.271205	-0.484959	0.124973	-0.759155	-0.638800	-0.541405	-0.591719	0.597285
10811		-0.820578	0.274719	-0.501179	0.130590	-0.763581	-0.632369	-0.556415	-0.584357	0.590703
10812		-0.808998	0.276496	-0.518721	0.136937	-0.769532	-0.623754	-0.571638	-0.575648	0.584688
10813		-0.796592	0.276011	-0.537828	0.145195	-0.776282	-0.613437	-0.586821	-0.566749	0.578305
10814		-0.782702	0.273188	-0.559238	0.156981	-0.782823	-0.602117	-0.602275	-0.559068	0.569832
10815		-0.766689	0.267876	-0.583465	0.173972	-0.788111	-0.590436	-0.617998	-0.554187	0.557633
10816		-0.747154	0.260338	-0.611543	0.198970	-0.790292	-0.579525	-0.634170	-0.554673	0.538671
10817		-0.723566	0.250683	-0.643126	0.231685	-0.789466	-0.568388	-0.650211	-0.560269	0.513151
10818		-0.696369	0.238868	-0.676766	0.270487	-0.786096	-0.555779	-0.664761	-0.570084	0.482802
10819		-0.666640	0.224791	-0.710676	0.309855	-0.783581	-0.538508	-0.677924	-0.579197	0.452713
10820		-0.635639	0.208372	-0.743334	0.344854	-0.784830	-0.514895	-0.690680	-0.583629	0.427011
10821		-0.604691	0.189439	-0.773603	0.376289	-0.788112	-0.487120	-0.701966	-0.585655	0.405281
10822		-0.573575	0.169187	-0.801491	0.405390	-0.791593	-0.457209	-0.711808	-0.587160	0.385451
10823		-0.542223	0.148520	-0.827004	0.432492	-0.794520	-0.426249	-0.720378	-0.588795	0.366573
10824		-0.510292	0.127960	-0.850428	0.458455	-0.796168	-0.394888	-0.727613	-0.591391	0.347614
10825		-0.477068	0.108541	-0.872138	0.484167	-0.795724	-0.363875	-0.733477	-0.595854	0.327063
10826		-0.443375	0.090139	-0.891792	0.507743	-0.794651	-0.332757	-0.738658	-0.600338	0.306561
10827		-0.411252	0.073684	-0.908539	0.526781	-0.794215	-0.302860	-0.743891	-0.603153	0.287808
10828		-0.380417	0.061525	-0.922766	0.544330	-0.791750	-0.277194	-0.747655	-0.607739	0.267705
10829		-0.350288	0.055493	-0.934997	0.565823	-0.782974	-0.258450	-0.746420	-0.619575	0.242867
10830		-0.321032	0.055866	-0.945419	0.587840	-0.770933	-0.245166	-0.742551	-0.634462	0.214654
10831		-0.295618	0.059577	-0.953447	0.605278	-0.760478	-0.235186	-0.739087	-0.646625	0.188750
10832		-0.275919	0.063488	-0.959082	0.614915	-0.755245	-0.226900	-0.738748	-0.652360	0.169346
10833		-0.260629	0.070687	-0.962848	0.613500	-0.757933	-0.221709	-0.745446	-0.648491	0.154173
10834		-0.248776	0.089329	-0.964433	0.610017	-0.758982	-0.227653	-0.752323	-0.644955	0.134325
10835		-0.233977	0.123442	-0.964374	0.618784	-0.746168	-0.245641	-0.749907	-0.654214	0.098202
10836		-0.229603	0.144566	-0.962488	0.606136	-0.752484	-0.257618	-0.761499	-0.642549	0.085146
10837		-0.235758	0.149145	-0.960299	0.581293	-0.770245	-0.262337	-0.778792	-0.620063	0.094894
10838		-0.252483	0.143048	-0.956969	0.543561	-0.797240	-0.262583	-0.800496	-0.586469	0.123534
10839		-0.274069	0.125262	-0.953517	0.500576	-0.828004	-0.252654	-0.821164	-0.546552	0.164227
10840		-0.277995	0.126885	-0.952166	0.534085	-0.803482	-0.263003	-0.798419	-0.581650	0.155596
10841		-0.286240	0.136438	-0.948394	0.582327	-0.761259	-0.285272	-0.760896	-0.633931	0.138451
10842		-0.289623	0.160073	-0.943661	0.634929	-0.705630	-0.314565	-0.716229	-0.690262	0.102731
10843		-0.295752	0.186181	-0.936946	0.687783	-0.639171	-0.344113	-0.662936	-0.746188	0.060984
10844		-0.307523	0.204323	-0.929345	0.719924	-0.588678	-0.367651	-0.622204	-0.782119	0.033935
10845		-0.322844	0.212481	-0.922292	0.728752	-0.565969	-0.385487	-0.603898	-0.796574	0.027874
10846		-0.335427	0.215102	-0.917180	0.725015	-0.562716	-0.397120	-0.601534	-0.798174	0.032798
10847		-0.339257	0.214916	-0.915814	0.711467	-0.578277	-0.399263	-0.615402	-0.787024	0.043279
10848		-0.334357	0.216118	-0.917332	0.695921	-0.599755	-0.394954	-0.635531	-0.770446	0.050131
10849		-0.327580	0.213972	-0.920276	0.678599	-0.624447	-0.386742	-0.657416	-0.751187	0.059355
10850		-0.319868	0.209811	-0.923939	0.662849	-0.647235	-0.376455	-0.676990	-0.732848	0.067957
10851		-0.310941	0.205188	-0.928016	0.650989	-0.665436	-0.365251	-0.692481	-0.717699	0.073336
10852		-0.303471	0.197701	-0.932105	0.641864	-0.680567	-0.353325	-0.704213	-0.705509	0.079635
10853		-0.298648	0.188413	-0.935580	0.637114	-0.690524	-0.342436	-0.710560	-0.698339	0.086183
10854		-0.295113	0.179466	-0.938456	0.637065	-0.695047	-0.333253	-0.712079	-0.696205	0.090786
10855		-0.290207	0.172127	-0.941357	0.644094	-0.692393	-0.325169	-0.707759	-0.700689	0.090071
10856		-0.283917	0.165497	-0.944459	0.658015	-0.682816	-0.317457	-0.697429	-0.711599	0.084964
10857		-0.276109	0.160029	-0.947710	0.674060	-0.670652	-0.309628	-0.685133	-0.724304	0.077304
10858		-0.268204	0.154044	-0.950966	0.687037	-0.661390	-0.300904	-0.675312	-0.734053	0.071553
10859		-0.260261	0.147361	-0.954227	0.696198	-0.656129	-0.291211	-0.669009	-0.740121	0.068172
10860		-0.251690	0.140294	-0.957585	0.702096	-0.654537	-0.280432	-0.666118	-0.742899	0.066241
10861		-0.242103	0.133237	-0.961059	0.705326	-0.656014	-0.268627	-0.666259	-0.742895	0.064848
10862		-0.232104	0.126086	-0.964484	0.707257	-0.658849	-0.256333	-0.667769	-0.741634	0.063747
10863		-0.222026	0.119250	-0.967721	0.707504	-0.663232	-0.244053	-0.670926	-0.738853	0.062884
10864		-0.211933	0.112633	-0.970772	0.705928	-0.669290	-0.231767	-0.675833	-0.734415	0.062334
10865		-0.202041	0.106241	-0.973598	0.703534	-0.675834	-0.219746	-0.681336	-0.729357	0.061802
10866		-0.192820	0.099847	-0.976141	0.700128	-0.683000	-0.208160	-0.687489	-0.723561	0.061790
10867		-0.184690	0.093618	-0.978328	0.694897	-0.691498	-0.197354	-0.694988	-0.716286	0.062657
10868		-0.177592	0.087722	-0.980187	0.690207	-0.698871	-0.187599	-0.701481	-0.709848	0.063568
10869		-0.170931	0.082651	-0.981810	0.688807	-0.702484	-0.179057	-0.704505	-0.706884	0.063146
10870		-0.164022	0.078520	-0.983327	0.690538	-0.702719	-0.171297	-0.704453	-0.707121	0.061040
10871		-0.156996	0.074877	-0.984757	0.693636	-0.701427	-0.163917	-0.703009	-0.708797	0.058183
10872		-0.149921	0.071716	-0.986094	0.697017	-0.699688	-0.156857	-0.701207	-0.710840	0.054911
10873		-0.143584	0.068401	-0.987271	0.698600	-0.699598	-0.150071	-0.700958	-0.711255	0.052666
10874		-0.137851	0.065168	-0.988307	0.699023	-0.700514	-0.143693	-0.701687	-0.710657	0.051013
10875		-0.132805	0.062095	-0.989195	0.698894	-0.701809	-0.137885	-0.702788	-0.709654	0.049806
10876		-0.127986	0.059086	-0.990014	0.699034	-0.702741	-0.132310	-0.703542	-0.708988	0.048638
10877		-0.123233	0.056180	-0.990786	0.699960	-0.702815	-0.126912	-0.703469	-0.709151	0.047286
10878		-0.118243	0.053374	-0.991549	0.702180	-0.701556	-0.121499	-0.702112	-0.710613	0.045476
10879		-0.112916	0.050716	-0.992309	0.705727	-0.698919	-0.116026	-0.699428	-0.713401	0.043128
10880		-0.107515	0.047894	-0.993049	0.708790	-0.696736	-0.110342	-0.697178	-0.715727	0.040963
10881		-0.102267	0.044966	-0.993740	0.710636	-0.695739	-0.104614	-0.696088	-0.716886	0.039197
10882		-0.097214	0.042022	-0.994376	0.711903	-0.695268	-0.098980	-0.695517	-0.717521	0.037675
10883		-0.092302	0.039100	-0.994963	0.713042	-0.694865	-0.093455	-0.695019	-0.718076	0.036258
10884		-0.087299	0.036120	-0.995527	0.714553	-0.694045	-0.087841	-0.694113	-0.719025	0.034780
10885		-0.082172	0.033149	-0.996067	0.716836	-0.692382	-0.082178	-0.692383	-0.720769	0.033132
10886		-0.077250	0.029789	-0.996567	0.719810	-0.689952	-0.076421	-0.689859	-0.723242	0.031857
10887		-0.072396	0.026568	-0.997022	0.725365	-0.684702	-0.070916	-0.684547	-0.728339	0.030298
10888		-0.067263	0.024161	-0.997443	0.731915	-0.678213	-0.065785	-0.678068	-0.734468	0.027935
10889		-0.062963	0.021839	-0.997777	0.736575	-0.673579	-0.061223	-0.673419	-0.738792	0.026325
10890		-0.060244	0.018755	-0.998007	0.739240	-0.671005	-0.057234	-0.670742	-0.741215	0.026560
10891		-0.058731	0.015024	-0.998161	0.740288	-0.670146	-0.053645	-0.669720	-0.742077	0.028236
10892		-0.057069	0.011410	-0.998305	0.740156	-0.670576	-0.049976	-0.670009	-0.741753	0.029824
10893		-0.054469	0.008510	-0.998479	0.740210	-0.670794	-0.046097	-0.670166	-0.741595	0.030238
10894		-0.050765	0.006425	-0.998690	0.740935	-0.670264	-0.041975	-0.669656	-0.742095	0.029265
10895		-0.046734	0.004588	-0.998897	0.741716	-0.669649	-0.037778	-0.669084	-0.742663	0.027892
10896		-0.043222	0.002564	-0.999062	0.742033	-0.669510	-0.033820	-0.668969	-0.742799	0.027035
10897		-0.040714	0.000274	-0.999171	0.741360	-0.670419	-0.030393	-0.669872	-0.741983	0.027092
10898		-0.038950	-0.001912	-0.999239	0.740138	-0.671890	-0.027565	-0.671326	-0.740648	0.027585
10899		-0.037634	-0.003859	-0.999284	0.738782	-0.673473	-0.025222	-0.672893	-0.739202	0.028196
10900		-0.036302	-0.005440	-0.999326	0.737689	-0.674744	-0.023124	-0.674164	-0.738032	0.028507
10901		-0.034796	-0.006868	-0.999371	0.737039	-0.675524	-0.021020	-0.674954	-0.737306	0.028567
10902		-0.033161	-0.008273	-0.999416	0.736672	-0.675987	-0.018848	-0.675436	-0.736867	0.028511
10903		-0.031588	-0.009672	-0.999454	0.736711	-0.676000	-0.016742	-0.675469	-0.736838	0.028479
10904		-0.030493	-0.011483	-0.999469	0.736892	-0.675850	-0.014717	-0.675322	-0.736950	0.029071
10905		-0.029764	-0.013562	-0.999465	0.737462	-0.675268	-0.012799	-0.674733	-0.737448	0.030100
10906		-0.029050	-0.015350	-0.999460	0.738789	-0.673845	-0.011124	-0.673310	-0.738714	0.030916
10907		-0.028631	-0.017016	-0.999445	0.740366	-0.672133	-0.009766	-0.671594	-0.740235	0.031842
10908		-0.028658	-0.018523	-0.999418	0.741338	-0.671074	-0.008821	-0.670520	-0.741159	0.032963
10909		-0.028763	-0.019870	-0.999389	0.741273	-0.671156	-0.007990	-0.670587	-0.741050	0.034034
10910		-0.028885	-0.021203	-0.999358	0.741639	-0.670761	-0.007205	-0.670177	-0.741371	0.035100
10911		-0.028614	-0.022058	-0.999347	0.743344	-0.668877	-0.006520	-0.668297	-0.743045	0.035536
10912		-0.027574	-0.022410	-0.999369	0.745866	-0.666073	-0.005643	-0.665526	-0.745550	0.035081
10913		-0.026378	-0.022883	-0.999390	0.747109	-0.664687	-0.004499	-0.664178	-0.746772	0.034629
10914		-0.025674	-0.023618	-0.999391	0.747108	-0.664694	-0.003485	-0.664207	-0.746742	0.034711
10915		-0.025600	-0.024368	-0.999375	0.746877	-0.664956	-0.002918	-0.664469	-0.746485	0.035223
10916		-0.025956	-0.024914	-0.999353	0.746368	-0.665528	-0.002794	-0.665027	-0.745957	0.035869
10917		-0.026587	-0.025472	-0.999322	0.745696	-0.666280	-0.002857	-0.665755	-0.745266	0.036708
10918		-0.027207	-0.025985	-0.999292	0.745163	-0.666876	-0.002946	-0.666328	-0.744715	0.037507
10919		-0.027663	-0.026365	-0.999270	0.744526	-0.667587	-0.002997	-0.667020	-0.744065	0.038097
10920		-0.028058	-0.026646	-0.999251	0.743867	-0.668321	-0.003066	-0.667739	-0.743396	0.038573
10921		-0.028592	-0.027015	-0.999226	0.743231	-0.669028	-0.003179	-0.668424	-0.742746	0.039207
10922		-0.029226	-0.027442	-0.999196	0.742839	-0.669462	-0.003341	-0.668832	-0.742339	0.039951
10923		-0.029878	-0.027905	-0.999164	0.742798	-0.669507	-0.003514	-0.668849	-0.742282	0.040731
10924		-0.030440	-0.028377	-0.999134	0.743183	-0.669078	-0.003639	-0.668395	-0.742650	0.041456
10925		-0.030685	-0.028750	-0.999116	0.744342	-0.667789	-0.003644	-0.667094	-0.743795	0.041891
10926		-0.030684	-0.029242	-0.999101	0.745852	-0.666103	-0.003410	-0.665405	-0.745286	0.042249
10927		-0.030766	-0.029932	-0.999078	0.747109	-0.664694	-0.003093	-0.663989	-0.746516	0.042813
10928		-0.030979	-0.030670	-0.999049	0.747997	-0.663696	-0.002820	-0.662978	-0.747374	0.043502
10929		-0.031277	-0.031344	-0.999019	0.748631	-0.662982	-0.002637	-0.662249	-0.747979	0.044201
10930		-0.031701	-0.031997	-0.998985	0.749057	-0.662501	-0.002550	-0.661747	-0.748378	0.044969
10931		-0.032249	-0.032651	-0.998946	0.749285	-0.662243	-0.002543	-0.661462	-0.748577	0.045822
10932		-0.032562	-0.033098	-0.998922	0.749987	-0.661447	-0.002532	-0.660650	-0.749261	0.046361
10933		-0.032377	-0.033374	-0.998918	0.750905	-0.660407	-0.002274	-0.659617	-0.750166	0.046443
10934		-0.031998	-0.033672	-0.998921	0.751294	-0.659965	-0.001820	-0.659192	-0.750541	0.046415
10935		-0.031423	-0.033924	-0.998930	0.751237	-0.660031	-0.001217	-0.659284	-0.750472	0.046225
10936		-0.030932	-0.034269	-0.998934	0.750818	-0.660509	-0.000590	-0.659785	-0.750036	0.046161
10937		-0.030737	-0.034810	-0.998921	0.750235	-0.661171	-0.000045	-0.660456	-0.749428	0.046438
10938		-0.030829	-0.035578	-0.998891	0.749610	-0.661880	0.000439	-0.661161	-0.748765	0.047075
10939		-0.030997	-0.036517	-0.998852	0.749238	-0.662300	0.000962	-0.661575	-0.748348	0.047889
10940		-0.031163	-0.037190	-0.998822	0.748783	-0.662813	0.001318	-0.662082	-0.747860	0.048502
10941		-0.031202	-0.037831	-0.998797	0.748062	-0.663626	0.001767	-0.662894	-0.747107	0.049006
10942		-0.031057	-0.038395	-0.998780	0.747284	-0.664500	0.002308	-0.663778	-0.746301	0.049329
10943		-0.030867	-0.039083	-0.998759	0.746548	-0.665325	0.002963	-0.664615	-0.745530	0.049714
10944		-0.030716	-0.039912	-0.998731	0.745904	-0.666043	0.003677	-0.665345	-0.744844	0.050229
10945		-0.030579	-0.040784	-0.998700	0.745432	-0.666567	0.004397	-0.665879	-0.744329	0.050784
10946		-0.030455	-0.041718	-0.998665	0.745028	-0.667014	0.005143	-0.666338	-0.743877	0.051395
10947		-0.030330	-0.042681	-0.998628	0.744541	-0.667551	0.005918	-0.666888	-0.743340	0.052024
10948		-0.030240	-0.043634	-0.998590	0.743849	-0.668314	0.006677	-0.667663	-0.742598	0.052667
10949		-0.030054	-0.044677	-0.998549	0.742829	-0.669439	0.007595	-0.668807	-0.741523	0.053307
10950		-0.029863	-0.045720	-0.998508	0.741501	-0.670897	0.008543	-0.670287	-0.740140	0.053936
10951		-0.029637	-0.046709	-0.998469	0.739999	-0.672541	0.009497	-0.671955	-0.738584	0.054497
10952		-0.029452	-0.047698	-0.998428	0.738449	-0.674229	0.010427	-0.673666	-0.736981	0.055080
10953		-0.029284	-0.048597	-0.998389	0.736898	-0.675910	0.011286	-0.675370	-0.735380	0.055604
10954		-0.029060	-0.049406	-0.998356	0.735438	-0.677483	0.012120	-0.676968	-0.733877	0.056022
10955		-0.028719	-0.050155	-0.998328	0.734106	-0.678911	0.012989	-0.678427	-0.732506	0.056317
10956		-0.028326	-0.050880	-0.998303	0.733000	-0.680088	0.013863	-0.679639	-0.731363	0.056560
10957		-0.027862	-0.051608	-0.998279	0.731980	-0.681165	0.014785	-0.680756	-0.730309	0.056755
10958		-0.027439	-0.052388	-0.998250	0.731091	-0.682099	0.015701	-0.681728	-0.729381	0.057017
10959		-0.026949	-0.053153	-0.998223	0.730231	-0.682998	0.016654	-0.682669	-0.728484	0.057220
10960		-0.026487	-0.053871	-0.998197	0.729307	-0.683961	0.017560	-0.683673	-0.727527	0.057404
10961		-0.026044	-0.054556	-0.998171	0.728283	-0.685028	0.018439	-0.684782	-0.726471	0.057573
10962		-0.025606	-0.055227	-0.998145	0.727284	-0.686066	0.019302	-0.685859	-0.725440	0.057733
10963		-0.025111	-0.055946	-0.998118	0.726359	-0.687018	0.020234	-0.686857	-0.724484	0.057889
10964		-0.024586	-0.056681	-0.998090	0.725503	-0.687893	0.021194	-0.687780	-0.723596	0.058035
10965		-0.023963	-0.057386	-0.998064	0.724704	-0.688703	0.022199	-0.688644	-0.722769	0.058092
10966		-0.023290	-0.058079	-0.998040	0.724045	-0.689361	0.023220	-0.689359	-0.722086	0.058107
10967		-0.022656	-0.058791	-0.998013	0.723420	-0.689983	0.024224	-0.690036	-0.721434	0.058163
10968		-0.022081	-0.059494	-0.997984	0.722896	-0.690498	0.025169	-0.690603	-0.720884	0.058255
10969		-0.021529	-0.060111	-0.997960	0.722461	-0.690921	0.026031	-0.691076	-0.720427	0.058303
10970		-0.020988	-0.060717	-0.997934	0.722170	-0.691194	0.026866	-0.691398	-0.720114	0.058355
10971		-0.020483	-0.061313	-0.997908	0.721941	-0.691402	0.027662	-0.691652	-0.719864	0.058426
10972		-0.019978	-0.061896	-0.997883	0.721811	-0.691506	0.028441	-0.691802	-0.719714	0.058491
10973		-0.019514	-0.062436	-0.997858	0.721670	-0.691623	0.029162	-0.691963	-0.719555	0.058554
10974		-0.019073	-0.062974	-0.997833	0.721511	-0.691759	0.029866	-0.692140	-0.719378	0.058631
10975		-0.018680	-0.063423	-0.997812	0.721281	-0.691972	0.030480	-0.692391	-0.719133	0.058672
10976		-0.018309	-0.063804	-0.997795	0.720883	-0.692361	0.031045	-0.692815	-0.718725	0.058671
10977		-0.017912	-0.064166	-0.997778	0.720326	-0.692914	0.031629	-0.693405	-0.718159	0.058632
10978		-0.017568	-0.064522	-0.997762	0.719589	-0.693654	0.032186	-0.694178	-0.717413	0.058615
10979		-0.017177	-0.064921	-0.997743	0.718737	-0.694508	0.032816	-0.695070	-0.716550	0.058591
10980		-0.016875	-0.065350	-0.997720	0.717825	-0.695421	0.033409	-0.696019	-0.715625	0.058645
10981		-0.016641	-0.065739	-0.997698	0.716933	-0.696317	0.033922	-0.696944	-0.714718	0.058718
10982		-0.016425	-0.066083	-0.997679	0.716138	-0.697111	0.034385	-0.697765	-0.713911	0.058775
10983		-0.016179	-0.066418	-0.997661	0.715449	-0.697795	0.034852	-0.698477	-0.713212	0.058808
10984		-0.015945	-0.066740	-0.997643	0.714904	-0.698331	0.035290	-0.699041	-0.712657	0.058848
10985		-0.015707	-0.067039	-0.997627	0.714540	-0.698684	0.035701	-0.699419	-0.712283	0.058876
10986		-0.015478	-0.067371	-0.997608	0.714335	-0.698871	0.036114	-0.699633	-0.712067	0.058943
10987		-0.015249	-0.067650	-0.997593	0.714252	-0.698938	0.036479	-0.699723	-0.711976	0.058977
10988		-0.015009	-0.067896	-0.997580	0.714222	-0.698950	0.036825	-0.699759	-0.711940	0.058983
10989		-0.014837	-0.068133	-0.997566	0.714213	-0.698943	0.037115	-0.699771	-0.711924	0.059031
10990		-0.014691	-0.068305	-0.997556	0.714184	-0.698961	0.037342	-0.699803	-0.711891	0.059051
10991		-0.014589	-0.068435	-0.997549	0.714087	-0.699052	0.037514	-0.699905	-0.711789	0.059067
10992		-0.014550	-0.068515	-0.997544	0.713896	-0.699241	0.037613	-0.700101	-0.711595	0.059087
10993		-0.014538	-0.068567	-0.997541	0.713651	-0.699488	0.037679	-0.700351	-0.711348	0.059102
10994		-0.014556	-0.068569	-0.997540	0.713356	-0.699788	0.037693	-0.700651	-0.711052	0.059100
10995		-0.014552	-0.068558	-0.997541	0.713020	-0.700128	0.037717	-0.700993	-0.710718	0.059072
10996		-0.014603	-0.068485	-0.997545	0.712709	-0.700449	0.037654	-0.701308	-0.710409	0.059038
10997		-0.014674	-0.068446	-0.997547	0.712405	-0.700761	0.037603	-0.701615	-0.710105	0.059044
10998		-0.014814	-0.068316	-0.997554	0.712154	-0.701024	0.037433	-0.701867	-0.709858	0.059036
10999		-0.014971	-0.068132	-0.997564	0.711968	-0.701226	0.037207	-0.702053	-0.709676	0.059005
11000		-0.015192	-0.067932	-0.997574	0.711881	-0.701329	0.036917	-0.702135	-0.709594	0.059014
11001		-0.015425	-0.067680	-0.997588	0.711918	-0.701309	0.036572	-0.702093	-0.709637	0.059001
11002		-0.015664	-0.067395	-0.997603	0.712038	-0.701208	0.036192	-0.701967	-0.709764	0.058971
11003		-0.015897	-0.067075	-0.997621	0.712295	-0.700967	0.035779	-0.701700	-0.710032	0.058920
11004		-0.016157	-0.066749	-0.997639	0.712548	-0.700733	0.035343	-0.701438	-0.710294	0.058884
11005		-0.016418	-0.066415	-0.997657	0.712851	-0.700447	0.034899	-0.701124	-0.710607	0.058844
11006		-0.016686	-0.066033	-0.997678	0.713234	-0.700081	0.034407	-0.700727	-0.711004	0.058778
11007		-0.016954	-0.065628	-0.997700	0.713669	-0.699663	0.033896	-0.700278	-0.711453	0.058699
11008		-0.017238	-0.065216	-0.997722	0.714067	-0.699282	0.033372	-0.699865	-0.711865	0.058622
11009		-0.017555	-0.064782	-0.997745	0.714472	-0.698895	0.032807	-0.699444	-0.712285	0.058554
