// Start Time: Unknown
// Update Rate: 100.0Hz
// Filter Profile: human (46.1)
// Option Flags: AHS Disabled ICC Disabled 
// Firmware Version: 4.0.2
PacketCounter	SampleTimeFine	Mat[1][1]	Mat[2][1]	Mat[3][1]	Mat[1][2]	Mat[2][2]	Mat[3][2]	Mat[1][3]	Mat[2][3]	Mat[3][3]
48935		-0.060012	-0.009907	-0.998148	0.563131	-0.825969	-0.025659	-0.824186	-0.563628	0.055147
48936		-0.059942	-0.009855	-0.998153	0.563129	-0.825971	-0.025663	-0.824192	-0.563627	0.055060
48937		-0.059851	-0.009738	-0.998160	0.563134	-0.825965	-0.025709	-0.824195	-0.563637	0.054919
48938		-0.059718	-0.009678	-0.998168	0.563127	-0.825971	-0.025682	-0.824210	-0.563629	0.054775
48939		-0.059519	-0.009639	-0.998181	0.562965	-0.826085	-0.025591	-0.824335	-0.563464	0.054594
48940		-0.059416	-0.009653	-0.998187	0.562824	-0.826183	-0.025512	-0.824439	-0.563319	0.054521
48941		-0.059305	-0.009633	-0.998193	0.562555	-0.826368	-0.025448	-0.824630	-0.563048	0.054427
48942		-0.059211	-0.009595	-0.998199	0.562300	-0.826543	-0.025409	-0.824811	-0.562792	0.054336
48943		-0.059128	-0.009555	-0.998205	0.561972	-0.826767	-0.025374	-0.825040	-0.562463	0.054255
48944		-0.059022	-0.009509	-0.998211	0.561772	-0.826904	-0.025339	-0.825184	-0.562263	0.054147
48945		-0.058944	-0.009435	-0.998217	0.561528	-0.827070	-0.025341	-0.825356	-0.562020	0.054049
48946		-0.058850	-0.009450	-0.998222	0.561277	-0.827242	-0.025258	-0.825533	-0.561766	0.053987
48947		-0.058758	-0.009440	-0.998228	0.560939	-0.827474	-0.025193	-0.825769	-0.561425	0.053916
48948		-0.058651	-0.009468	-0.998234	0.560670	-0.827659	-0.025092	-0.825960	-0.561151	0.053851
48949		-0.058515	-0.009439	-0.998242	0.560370	-0.827864	-0.025020	-0.826173	-0.560849	0.053732
48950		-0.058406	-0.009496	-0.998248	0.560144	-0.828021	-0.024896	-0.826334	-0.560616	0.053680
48951		-0.058275	-0.009460	-0.998256	0.559909	-0.828182	-0.024837	-0.826502	-0.560379	0.053559
48952		-0.058157	-0.009508	-0.998262	0.559674	-0.828344	-0.024716	-0.826669	-0.560139	0.053496
48953		-0.058044	-0.009470	-0.998269	0.559442	-0.828502	-0.024670	-0.826835	-0.559906	0.053388
48954		-0.057960	-0.009496	-0.998274	0.559217	-0.828657	-0.024586	-0.826993	-0.559676	0.053339
48955		-0.057875	-0.009429	-0.998279	0.558980	-0.828817	-0.024578	-0.827159	-0.559440	0.053238
48956		-0.057799	-0.009419	-0.998284	0.558892	-0.828877	-0.024538	-0.827224	-0.559351	0.053172
48957		-0.057762	-0.009322	-0.998287	0.558848	-0.828906	-0.024596	-0.827256	-0.559311	0.053089
48958		-0.057776	-0.009243	-0.998287	0.558896	-0.828871	-0.024671	-0.827223	-0.559364	0.053055
48959		-0.057796	-0.009123	-0.998287	0.558953	-0.828829	-0.024787	-0.827183	-0.559427	0.053003
48960		-0.057872	-0.009055	-0.998283	0.559087	-0.828735	-0.024894	-0.827087	-0.559568	0.053023
48961		-0.058017	-0.008906	-0.998276	0.559178	-0.828667	-0.025105	-0.827015	-0.559670	0.053057
48962		-0.058127	-0.008818	-0.998270	0.559340	-0.828554	-0.025250	-0.826898	-0.559840	0.053093
48963		-0.058318	-0.008653	-0.998261	0.559407	-0.828501	-0.025499	-0.826839	-0.559921	0.053157
48964		-0.058383	-0.008502	-0.998258	0.559667	-0.828320	-0.025677	-0.826659	-0.560191	0.053118
48965		-0.058474	-0.008341	-0.998254	0.560088	-0.828028	-0.025890	-0.826367	-0.560624	0.053090
48966		-0.058564	-0.008168	-0.998250	0.560483	-0.827754	-0.026108	-0.826093	-0.561031	0.053055
48967		-0.058717	-0.008014	-0.998242	0.560876	-0.827481	-0.026348	-0.825815	-0.561437	0.053082
48968		-0.058798	-0.007810	-0.998239	0.561318	-0.827173	-0.026591	-0.825509	-0.561893	0.053020
48969		-0.058933	-0.007542	-0.998233	0.561743	-0.826874	-0.026917	-0.825210	-0.562336	0.052967
48970		-0.059005	-0.007329	-0.998231	0.562177	-0.826571	-0.027161	-0.824910	-0.562785	0.052892
48971		-0.059138	-0.007052	-0.998225	0.562538	-0.826314	-0.027489	-0.824654	-0.563165	0.052833
48972		-0.059221	-0.006852	-0.998221	0.563015	-0.825981	-0.027732	-0.824322	-0.563656	0.052773
48973		-0.059348	-0.006497	-0.998216	0.563468	-0.825659	-0.028126	-0.824003	-0.564133	0.052662
48974		-0.059462	-0.006249	-0.998211	0.563974	-0.825303	-0.028428	-0.823649	-0.564656	0.052598
48975		-0.059475	-0.005896	-0.998212	0.564469	-0.824953	-0.028759	-0.823309	-0.565171	0.052392
48976		-0.059522	-0.005536	-0.998212	0.565040	-0.824549	-0.029120	-0.822913	-0.565763	0.052207
48977		-0.059566	-0.005112	-0.998211	0.565686	-0.824091	-0.029536	-0.822466	-0.566434	0.051979
48978		-0.059532	-0.004713	-0.998215	0.566426	-0.823570	-0.029892	-0.821960	-0.567195	0.051699
48979		-0.059318	-0.004246	-0.998230	0.567245	-0.822995	-0.030207	-0.821410	-0.568033	0.051227
48980		-0.058949	-0.003830	-0.998254	0.568057	-0.822428	-0.030389	-0.820875	-0.568857	0.050657
48981		-0.058495	-0.003307	-0.998282	0.568781	-0.821919	-0.030605	-0.820406	-0.569594	0.049959
48982		-0.058009	-0.002774	-0.998312	0.569500	-0.821414	-0.030809	-0.819942	-0.570326	0.049229
48983		-0.057395	-0.002135	-0.998349	0.570000	-0.821059	-0.031013	-0.819638	-0.570839	0.048342
48984		-0.056832	-0.001682	-0.998382	0.569803	-0.821195	-0.031051	-0.819814	-0.570646	0.047629
48985		-0.056383	-0.001292	-0.998408	0.569321	-0.821527	-0.031088	-0.820180	-0.570168	0.047056
48986		-0.055780	-0.000928	-0.998443	0.569397	-0.821476	-0.031046	-0.820168	-0.570242	0.046350
48987		-0.055111	-0.000499	-0.998480	0.569776	-0.821213	-0.031038	-0.819950	-0.570621	0.045542
48988		-0.054484	-0.000067	-0.998515	0.570379	-0.820794	-0.031068	-0.819573	-0.571224	0.044758
48989		-0.053968	0.000356	-0.998543	0.570916	-0.820418	-0.031149	-0.819233	-0.571765	0.044073
48990		-0.053498	0.000697	-0.998568	0.571475	-0.820027	-0.031189	-0.818874	-0.572325	0.043471
48991		-0.053050	0.001012	-0.998591	0.571896	-0.819732	-0.031212	-0.818609	-0.572747	0.042908
48992		-0.052573	0.001264	-0.998616	0.572261	-0.819479	-0.031165	-0.818385	-0.573107	0.042360
48993		-0.052123	0.001526	-0.998639	0.572539	-0.819286	-0.031135	-0.818219	-0.573383	0.041830
48994		-0.051700	0.001777	-0.998661	0.572980	-0.818978	-0.031120	-0.817937	-0.573822	0.041323
48995		-0.051362	0.002055	-0.998678	0.573352	-0.818716	-0.031172	-0.817698	-0.574195	0.040872
48996		-0.051027	0.002338	-0.998695	0.573666	-0.818494	-0.031227	-0.817499	-0.574510	0.040424
48997		-0.050740	0.002659	-0.998708	0.573770	-0.818417	-0.031330	-0.817444	-0.574618	0.040001
48998		-0.050558	0.003034	-0.998717	0.573725	-0.818441	-0.031530	-0.817486	-0.574582	0.039638
48999		-0.050384	0.003403	-0.998724	0.573529	-0.818571	-0.031723	-0.817634	-0.574395	0.039291
49000		-0.050311	0.003786	-0.998726	0.573425	-0.818633	-0.031989	-0.817712	-0.574304	0.039015
49001		-0.050275	0.004237	-0.998726	0.573337	-0.818681	-0.032335	-0.817776	-0.574233	0.038730
49002		-0.050331	0.004728	-0.998721	0.573404	-0.818617	-0.032772	-0.817725	-0.574320	0.038491
49003		-0.050462	0.005280	-0.998712	0.573356	-0.818630	-0.033298	-0.817751	-0.574297	0.038282
49004		-0.050624	0.005860	-0.998701	0.573379	-0.818590	-0.033867	-0.817725	-0.574348	0.038081
49005		-0.050913	0.006459	-0.998682	0.573327	-0.818599	-0.034523	-0.817743	-0.574329	0.037974
49006		-0.051234	0.007045	-0.998662	0.573431	-0.818498	-0.035193	-0.817651	-0.574466	0.037895
49007		-0.051727	0.007746	-0.998631	0.573630	-0.818321	-0.036060	-0.817480	-0.574710	0.037886
49008		-0.052381	0.008452	-0.998591	0.574053	-0.817980	-0.037035	-0.817141	-0.575184	0.037995
49009		-0.053071	0.009296	-0.998547	0.574576	-0.817562	-0.038148	-0.816729	-0.575766	0.038047
49010		-0.053779	0.010158	-0.998501	0.575059	-0.817168	-0.039286	-0.816342	-0.576310	0.038106
49011		-0.054539	0.011148	-0.998449	0.575346	-0.816904	-0.040549	-0.816090	-0.576666	0.038139
49012		-0.055387	0.012241	-0.998390	0.575551	-0.816690	-0.041942	-0.815888	-0.576947	0.038189
49013		-0.056504	0.013501	-0.998311	0.575475	-0.816656	-0.043616	-0.815865	-0.576967	0.038375
49014		-0.057824	0.014836	-0.998217	0.575263	-0.816704	-0.045462	-0.815922	-0.576866	0.038691
49015		-0.059257	0.016355	-0.998109	0.574902	-0.816841	-0.047516	-0.816073	-0.576631	0.039001
49016		-0.060834	0.018088	-0.997984	0.574563	-0.816942	-0.049830	-0.816197	-0.576436	0.039305
49017		-0.062553	0.020005	-0.997841	0.574102	-0.817107	-0.052371	-0.816391	-0.576138	0.039627
49018		-0.064339	0.022095	-0.997683	0.573639	-0.817253	-0.055093	-0.816577	-0.575855	0.039907
49019		-0.066322	0.024347	-0.997501	0.573080	-0.817440	-0.058055	-0.816811	-0.575499	0.040261
49020		-0.068516	0.026786	-0.997290	0.572546	-0.817578	-0.061294	-0.817005	-0.575194	0.040681
49021		-0.070787	0.029306	-0.997061	0.572021	-0.817688	-0.064645	-0.817179	-0.574916	0.041118
49022		-0.072931	0.031944	-0.996825	0.571765	-0.817592	-0.068033	-0.817169	-0.574912	0.041363
49023		-0.074936	0.034728	-0.996583	0.571515	-0.817474	-0.071460	-0.817163	-0.574918	0.041411
49024		-0.076769	0.037462	-0.996345	0.571196	-0.817403	-0.074745	-0.817216	-0.574847	0.041353
49025		-0.078489	0.040214	-0.996104	0.570656	-0.817480	-0.077968	-0.817430	-0.574552	0.041215
49026		-0.080048	0.042961	-0.995865	0.570250	-0.817458	-0.081102	-0.817562	-0.574384	0.040938
49027		-0.081556	0.045678	-0.995621	0.569657	-0.817561	-0.084172	-0.817826	-0.574027	0.040657
49028		-0.083012	0.048356	-0.995375	0.569156	-0.817594	-0.087186	-0.818028	-0.573761	0.040348
49029		-0.084443	0.051016	-0.995121	0.568373	-0.817817	-0.090156	-0.818426	-0.573213	0.040063
49030		-0.085621	0.053526	-0.994889	0.567879	-0.817856	-0.092874	-0.818647	-0.572928	0.039630
49031		-0.086532	0.055926	-0.994678	0.567303	-0.817971	-0.095343	-0.818950	-0.572534	0.039054
49032		-0.087283	0.058175	-0.994483	0.566865	-0.818009	-0.097604	-0.819174	-0.572257	0.038421
49033		-0.087891	0.060189	-0.994310	0.566513	-0.818012	-0.099593	-0.819352	-0.572043	0.037799
49034		-0.088050	0.062252	-0.994169	0.566749	-0.817627	-0.101393	-0.819172	-0.572372	0.036711
49035		-0.088036	0.064318	-0.994039	0.566820	-0.817366	-0.103087	-0.819124	-0.572517	0.035501
49036		-0.088047	0.066382	-0.993902	0.566577	-0.817320	-0.104780	-0.819292	-0.572347	0.034352
49037		-0.088068	0.068630	-0.993747	0.565896	-0.817554	-0.106613	-0.819759	-0.571747	0.033163
49038		-0.087836	0.071020	-0.993600	0.565471	-0.817610	-0.108429	-0.820077	-0.571376	0.031656
49039		-0.087658	0.073270	-0.993452	0.564647	-0.817950	-0.110148	-0.820665	-0.570605	0.030328
49040		-0.087496	0.075379	-0.993309	0.563629	-0.818433	-0.111756	-0.821381	-0.569636	0.029124
49041		-0.087438	0.077379	-0.993160	0.562354	-0.819094	-0.113327	-0.822261	-0.568417	0.028105
49042		-0.087509	0.079229	-0.993008	0.561628	-0.819378	-0.114869	-0.822749	-0.567753	0.027206
49043		-0.087643	0.081139	-0.992842	0.561137	-0.819483	-0.116506	-0.823070	-0.567331	0.026292
49044		-0.087903	0.083057	-0.992660	0.561394	-0.819057	-0.118245	-0.822867	-0.567668	0.025369
49045		-0.088151	0.085096	-0.992466	0.562252	-0.818199	-0.120093	-0.822254	-0.568602	0.024280
49046		-0.088056	0.087030	-0.992306	0.564793	-0.816209	-0.121704	-0.820521	-0.571165	0.022718
49047		-0.087790	0.088775	-0.992175	0.567182	-0.814348	-0.123050	-0.818900	-0.573547	0.021140
49048		-0.087442	0.090493	-0.992051	0.569352	-0.812640	-0.124312	-0.817430	-0.575696	0.019536
49049		-0.087398	0.092266	-0.991891	0.570223	-0.811807	-0.125758	-0.816828	-0.576590	0.018338
49050		-0.087802	0.094088	-0.991685	0.569996	-0.811698	-0.127478	-0.816943	-0.576449	0.017639
49051		-0.088613	0.095911	-0.991438	0.568290	-0.812590	-0.129402	-0.818043	-0.574890	0.017501
49052		-0.089378	0.097755	-0.991189	0.567111	-0.813104	-0.131330	-0.818778	-0.573852	0.017236
49053		-0.090060	0.099711	-0.990932	0.565925	-0.813609	-0.133302	-0.819523	-0.572799	0.016844
49054		-0.090770	0.101505	-0.990685	0.564428	-0.814343	-0.135152	-0.820476	-0.571438	0.016626
49055		-0.091733	0.103501	-0.990390	0.562444	-0.815355	-0.137304	-0.821731	-0.569634	0.016582
49056		-0.092791	0.105417	-0.990089	0.561110	-0.815909	-0.139459	-0.822524	-0.568490	0.016559
49057		-0.094170	0.107423	-0.989743	0.559400	-0.816668	-0.141863	-0.823531	-0.567022	0.016813
49058		-0.095548	0.109538	-0.989380	0.558154	-0.817082	-0.144365	-0.824218	-0.566020	0.016932
49059		-0.096818	0.111771	-0.989006	0.556855	-0.817516	-0.146903	-0.824948	-0.564956	0.016910
49060		-0.097958	0.113821	-0.988660	0.556442	-0.817375	-0.149235	-0.825092	-0.564751	0.016734
49061		-0.098962	0.115835	-0.988326	0.555810	-0.817396	-0.151456	-0.825398	-0.564310	0.016509
49062		-0.099787	0.117788	-0.988012	0.555418	-0.817276	-0.153529	-0.825562	-0.564080	0.016132
49063		-0.100626	0.119749	-0.987691	0.554806	-0.817297	-0.155614	-0.825872	-0.563636	0.015804
49064		-0.101241	0.121580	-0.987405	0.554741	-0.816984	-0.157475	-0.825840	-0.563697	0.015267
49065		-0.101757	0.123422	-0.987123	0.553932	-0.817185	-0.159276	-0.826320	-0.563007	0.014787
49066		-0.102108	0.124977	-0.986891	0.553303	-0.817322	-0.160750	-0.826698	-0.562464	0.014304
49067		-0.102403	0.126499	-0.986667	0.552551	-0.817552	-0.162164	-0.827165	-0.561789	0.013822
49068		-0.102754	0.127823	-0.986460	0.552263	-0.817489	-0.163455	-0.827313	-0.561581	0.013408
49069		-0.103267	0.129318	-0.986211	0.551715	-0.817554	-0.164973	-0.827615	-0.561144	0.013080
49070		-0.103668	0.130658	-0.985993	0.552139	-0.816996	-0.166316	-0.827282	-0.561646	0.012555
49071		-0.104239	0.132261	-0.985719	0.552687	-0.816285	-0.167973	-0.826844	-0.562304	0.011989
49072		-0.104720	0.133830	-0.985456	0.554100	-0.814998	-0.169563	-0.825837	-0.563798	0.011192
49073		-0.105415	0.135608	-0.985139	0.554806	-0.814126	-0.171435	-0.825275	-0.564632	0.010585
49074		-0.106396	0.137331	-0.984794	0.555384	-0.813310	-0.173420	-0.824759	-0.565391	0.010262
49075		-0.107444	0.139390	-0.984391	0.555533	-0.812716	-0.175716	-0.824524	-0.565741	0.009886
49076		-0.108654	0.141445	-0.983965	0.555724	-0.812066	-0.178100	-0.824236	-0.566164	0.009630
49077		-0.110170	0.143814	-0.983453	0.555089	-0.811880	-0.180907	-0.824463	-0.565835	0.009615
49078		-0.111916	0.146172	-0.982908	0.554723	-0.811471	-0.183838	-0.824474	-0.565816	0.009732
49079		-0.113731	0.148872	-0.982294	0.553896	-0.811294	-0.187087	-0.824781	-0.565367	0.009810
49080		-0.115592	0.151693	-0.981645	0.553574	-0.810727	-0.190466	-0.824739	-0.565430	0.009740
49081		-0.117676	0.154910	-0.980895	0.552508	-0.810546	-0.194291	-0.825159	-0.564816	0.009793
49082		-0.119862	0.158153	-0.980113	0.551807	-0.810078	-0.198199	-0.825313	-0.564589	0.009828
49083		-0.122261	0.161778	-0.979224	0.550569	-0.809847	-0.202536	-0.825788	-0.563893	0.009943
49084		-0.124799	0.165502	-0.978281	0.549605	-0.809364	-0.207038	-0.826051	-0.563506	0.010047
49085		-0.127429	0.169638	-0.977233	0.547995	-0.809190	-0.211925	-0.826718	-0.562525	0.010153
49087		-0.132469	0.178148	-0.975046	0.545997	-0.807897	-0.221787	-0.827248	-0.561752	0.009753
49088		-0.135022	0.182887	-0.973818	0.544541	-0.807394	-0.227134	-0.827795	-0.560952	0.009427
49089		-0.137733	0.187686	-0.972524	0.543388	-0.806608	-0.232623	-0.828106	-0.560498	0.009110
49090		-0.140718	0.192823	-0.971091	0.541171	-0.806372	-0.238535	-0.829055	-0.559092	0.009121
49091		-0.143923	0.197939	-0.969591	0.539487	-0.805695	-0.244560	-0.829602	-0.558279	0.009172
49092		-0.147176	0.203466	-0.967957	0.537352	-0.805157	-0.250949	-0.830417	-0.557067	0.009167
49093		-0.150481	0.208963	-0.966276	0.535774	-0.804188	-0.257348	-0.830844	-0.556432	0.009058
49094		-0.153883	0.214857	-0.964446	0.533371	-0.803588	-0.264124	-0.831766	-0.555052	0.009060
49095		-0.157535	0.220581	-0.962563	0.531197	-0.802772	-0.270900	-0.832474	-0.553986	0.009293
49096		-0.161338	0.226760	-0.960495	0.528098	-0.802344	-0.278130	-0.833716	-0.552108	0.009697
49097		-0.165391	0.232939	-0.958324	0.525495	-0.801463	-0.285503	-0.834566	-0.550814	0.010147
49098		-0.169595	0.239444	-0.955983	0.521959	-0.800988	-0.293220	-0.835941	-0.548712	0.010864
49099		-0.174075	0.245678	-0.953593	0.519060	-0.800034	-0.300868	-0.836824	-0.547346	0.011744
49100		-0.178389	0.252387	-0.951041	0.516092	-0.798923	-0.308823	-0.837751	-0.545915	0.012264
49101		-0.182932	0.258857	-0.948435	0.513097	-0.797767	-0.316700	-0.838611	-0.544573	0.013118
49102		-0.187658	0.265603	-0.945642	0.509223	-0.796954	-0.324894	-0.839927	-0.542512	0.014304
49103		-0.192759	0.272233	-0.942727	0.506066	-0.795533	-0.333203	-0.840679	-0.541310	0.015578
49104		-0.198184	0.278926	-0.939640	0.502769	-0.794002	-0.341736	-0.841395	-0.540149	0.017123
49105		-0.203831	0.285609	-0.936419	0.500406	-0.791716	-0.350398	-0.841455	-0.540012	0.018456
49106		-0.209517	0.292665	-0.932979	0.497675	-0.789404	-0.359389	-0.841678	-0.539618	0.019741
49107		-0.215611	0.299927	-0.929277	0.494679	-0.786958	-0.368768	-0.841905	-0.539205	0.021309
49108		-0.222058	0.307621	-0.925235	0.491062	-0.784508	-0.378689	-0.842347	-0.538438	0.023146
49109		-0.228827	0.315541	-0.920908	0.487672	-0.781583	-0.388979	-0.842505	-0.538110	0.024967
49110		-0.235721	0.323969	-0.916231	0.484053	-0.778385	-0.399762	-0.842691	-0.537737	0.026664
49111		-0.242932	0.332920	-0.911125	0.480675	-0.774527	-0.411169	-0.842577	-0.537841	0.028131
49112		-0.250395	0.342346	-0.905595	0.477121	-0.770279	-0.423115	-0.842412	-0.538024	0.029533
49113		-0.258296	0.352287	-0.899543	0.473025	-0.765764	-0.435720	-0.842336	-0.538051	0.031154
49114		-0.266807	0.362452	-0.892996	0.467891	-0.761345	-0.448812	-0.842551	-0.537571	0.033545
49115		-0.276052	0.372990	-0.885818	0.461743	-0.756845	-0.462579	-0.842964	-0.536716	0.036703
49116		-0.286004	0.383658	-0.878071	0.454391	-0.752468	-0.476782	-0.843641	-0.535349	0.040878
49117		-0.296745	0.394672	-0.869584	0.446095	-0.747850	-0.491650	-0.844359	-0.533812	0.045859
49118		-0.308202	0.405849	-0.860406	0.436610	-0.743208	-0.506964	-0.845212	-0.531909	0.051861
49119		-0.320481	0.417244	-0.850411	0.425577	-0.738635	-0.522783	-0.846272	-0.529458	0.059149
49120		-0.333624	0.428517	-0.839684	0.412586	-0.734506	-0.538771	-0.847625	-0.526189	0.068249
49121		-0.347676	0.439506	-0.828224	0.397356	-0.731017	-0.554726	-0.849252	-0.521965	0.079517
49122		-0.361965	0.450383	-0.816172	0.380205	-0.728080	-0.570389	-0.851132	-0.516773	0.092302
49123		-0.375859	0.461878	-0.803367	0.362313	-0.724679	-0.586148	-0.852912	-0.511380	0.105033
49124		-0.388074	0.474253	-0.790242	0.345080	-0.720298	-0.601740	-0.854587	-0.506216	0.115873
49125		-0.398701	0.487788	-0.776595	0.329905	-0.713835	-0.617740	-0.855687	-0.502496	0.123683
49126		-0.407189	0.501911	-0.763074	0.316919	-0.705922	-0.633433	-0.856598	-0.499759	0.128378
49127		-0.413716	0.516643	-0.749612	0.304886	-0.697213	-0.648797	-0.857837	-0.496964	0.130931
49128		-0.418596	0.531367	-0.736496	0.293018	-0.688572	-0.663332	-0.859603	-0.493475	0.132533
49129		-0.423464	0.545233	-0.723464	0.281063	-0.680120	-0.677082	-0.861209	-0.490059	0.134762
49130		-0.428786	0.557387	-0.710959	0.265726	-0.674347	-0.688945	-0.863442	-0.484330	0.141039
49131		-0.435826	0.567703	-0.698404	0.247434	-0.670503	-0.699430	-0.865351	-0.477639	0.151754
49132		-0.443592	0.576079	-0.686556	0.228213	-0.668193	-0.708122	-0.866686	-0.470799	0.164936
49133		-0.450590	0.583594	-0.675564	0.210112	-0.666154	-0.715606	-0.867653	-0.464389	0.177542
49134		-0.456821	0.589123	-0.666520	0.192549	-0.666022	-0.720652	-0.868470	-0.457547	0.190818
49135		-0.462009	0.592999	-0.659469	0.175195	-0.667911	-0.723327	-0.869399	-0.449719	0.204690
49136		-0.466259	0.594814	-0.654827	0.158605	-0.672012	-0.723357	-0.870314	-0.441130	0.218991
49137		-0.468511	0.594923	-0.653119	0.140078	-0.679900	-0.719801	-0.872282	-0.428723	0.235205
49138		-0.468763	0.592546	-0.655096	0.124651	-0.689830	-0.713159	-0.874485	-0.415961	0.249505
49139		-0.466680	0.588296	-0.660392	0.112696	-0.701048	-0.704153	-0.877217	-0.403038	0.260867
49140		-0.463218	0.580961	-0.669263	0.104284	-0.714191	-0.692139	-0.880087	-0.390405	0.270241
49141		-0.458279	0.571055	-0.681085	0.098073	-0.729122	-0.677320	-0.883381	-0.377197	0.278136
49142		-0.451796	0.558150	-0.695952	0.095156	-0.745509	-0.659668	-0.887032	-0.364259	0.283707
49143		-0.443321	0.543036	-0.713147	0.095814	-0.762334	-0.640052	-0.891227	-0.352079	0.285928
49144		-0.433550	0.524989	-0.732408	0.101132	-0.779285	-0.618456	-0.895437	-0.342201	0.284766
49145		-0.422336	0.504820	-0.752854	0.109945	-0.795900	-0.595361	-0.899747	-0.334215	0.280635
49146		-0.410208	0.481947	-0.774246	0.120139	-0.813006	-0.569726	-0.904044	-0.326723	0.275601
49148		-0.381242	0.430691	-0.818022	0.141038	-0.847395	-0.511888	-0.913653	-0.310526	0.262319
49149		-0.364724	0.401989	-0.839870	0.153202	-0.863802	-0.479973	-0.918426	-0.303728	0.253463
49150		-0.346565	0.371807	-0.861192	0.167371	-0.878847	-0.446783	-0.922973	-0.298978	0.242348
49151		-0.327320	0.339598	-0.881780	0.181874	-0.893094	-0.411467	-0.927245	-0.295054	0.230563
49152		-0.307072	0.305874	-0.901193	0.195615	-0.906437	-0.374308	-0.931365	-0.291227	0.218508
49153		-0.285234	0.270169	-0.919593	0.208801	-0.918890	-0.334727	-0.935438	-0.287488	0.205687
49154		-0.262891	0.232825	-0.936312	0.219060	-0.930699	-0.292935	-0.939628	-0.282119	0.193670
49155		-0.239379	0.194142	-0.951318	0.228699	-0.940962	-0.249575	-0.943607	-0.277309	0.180847
49156		-0.214811	0.155268	-0.964234	0.235594	-0.949889	-0.205444	-0.947814	-0.271300	0.167467
49157		-0.189170	0.116206	-0.975044	0.239669	-0.957477	-0.160611	-0.952246	-0.264071	0.153275
49158		-0.162980	0.077597	-0.983573	0.240679	-0.963659	-0.115907	-0.956823	-0.255616	0.138382
49159		-0.136605	0.038842	-0.989864	0.241172	-0.967862	-0.071262	-0.960820	-0.248462	0.122848
49160		-0.110108	0.000610	-0.993919	0.242725	-0.969706	-0.027485	-0.963826	-0.244276	0.106624
49162		-0.056910	-0.074433	-0.995601	0.253396	-0.965640	0.057709	-0.965687	-0.248997	0.073816
49163		-0.030495	-0.111140	-0.993337	0.266574	-0.958708	0.099082	-0.963332	-0.261776	0.058863
49164		-0.004999	-0.147684	-0.989022	0.288707	-0.947131	0.139969	-0.957404	-0.284838	0.047372
49165		0.017575	-0.183227	-0.982914	0.320324	-0.930217	0.179131	-0.947145	-0.317999	0.042344
49166		0.037807	-0.217038	-0.975431	0.356553	-0.908948	0.216066	-0.933510	-0.355962	0.043021
49167		0.055713	-0.248909	-0.966923	0.390464	-0.885871	0.250542	-0.918931	-0.391507	0.047836
49168		0.071409	-0.279662	-0.957439	0.418742	-0.862801	0.283250	-0.905293	-0.421146	0.055494
49169		0.085731	-0.307941	-0.947535	0.439525	-0.841803	0.313346	-0.894130	-0.443328	0.063179
49170		0.098785	-0.333992	-0.937385	0.454975	-0.822610	0.341044	-0.885008	-0.460177	0.070696
49171		0.110936	-0.357054	-0.927473	0.465349	-0.805944	0.365929	-0.878148	-0.472194	0.076746
49172		0.123310	-0.376118	-0.918330	0.474331	-0.790500	0.387454	-0.871668	-0.483369	0.080928
49173		0.135433	-0.389941	-0.910826	0.484003	-0.776104	0.404232	-0.864522	-0.495589	0.083622
49174		0.146386	-0.398685	-0.905329	0.495000	-0.762848	0.415979	-0.856473	-0.509032	0.085679
49175		0.155126	-0.402825	-0.902035	0.505018	-0.752426	0.422863	-0.849054	-0.521141	0.086713
49176		0.161400	-0.402993	-0.900859	0.511868	-0.746261	0.425542	-0.843766	-0.529804	0.085833
49177		0.164655	-0.400391	-0.901430	0.513962	-0.745199	0.424878	-0.841862	-0.533259	0.083085
49178		0.164680	-0.395453	-0.903602	0.511192	-0.749256	0.421068	-0.843542	-0.531256	0.078765
49179		0.161867	-0.388015	-0.907328	0.505972	-0.756761	0.413890	-0.847225	-0.526078	0.073830
49180		0.156901	-0.378029	-0.912401	0.501223	-0.765547	0.403377	-0.850975	-0.520607	0.069361
49181		0.150127	-0.365373	-0.918676	0.498157	-0.774676	0.389509	-0.853992	-0.516120	0.065713
49182		0.141521	-0.350340	-0.925869	0.496125	-0.784245	0.372585	-0.856640	-0.512076	0.062826
49183		0.132162	-0.333814	-0.933328	0.495640	-0.793170	0.353869	-0.858414	-0.509362	0.060624
49184		0.123531	-0.317188	-0.940283	0.497728	-0.799929	0.335232	-0.858491	-0.509417	0.059057
49185		0.117640	-0.302085	-0.945994	0.501776	-0.803975	0.319133	-0.856961	-0.512220	0.056999
49186		0.115389	-0.290469	-0.949902	0.504461	-0.806653	0.307944	-0.855690	-0.514722	0.053451
49187		0.115552	-0.283234	-0.952064	0.506024	-0.807999	0.301791	-0.854744	-0.516640	0.049957
49188		0.116160	-0.278750	-0.953313	0.504538	-0.810192	0.298378	-0.855540	-0.515642	0.046528
49189		0.113558	-0.275603	-0.954541	0.499246	-0.814821	0.294655	-0.858987	-0.510010	0.045064
49190		0.109102	-0.271753	-0.956163	0.502330	-0.814970	0.288943	-0.857765	-0.511834	0.047595
49191		0.104925	-0.265911	-0.958270	0.515540	-0.809457	0.281065	-0.850417	-0.523518	0.052155
49192		0.101030	-0.258006	-0.960846	0.532978	-0.801472	0.271252	-0.840076	-0.539514	0.056538
49193		0.096390	-0.248357	-0.963861	0.552011	-0.792463	0.259396	-0.828247	-0.557065	0.060710
49194		0.091088	-0.237412	-0.967129	0.574366	-0.780831	0.245776	-0.813515	-0.577874	0.065237
49195		0.084604	-0.225912	-0.970467	0.598993	-0.766796	0.230720	-0.796272	-0.600823	0.070446
49196		0.076438	-0.214820	-0.973658	0.622046	-0.752898	0.214948	-0.779241	-0.622090	0.076078
49197		0.067273	-0.204038	-0.976649	0.642566	-0.739977	0.198855	-0.763271	-0.640939	0.081327
49198		0.057990	-0.193499	-0.979385	0.660737	-0.727980	0.182951	-0.748374	-0.657725	0.085636
49199		0.049587	-0.183242	-0.981817	0.676675	-0.716867	0.167968	-0.734610	-0.672700	0.088447
49200		0.042768	-0.173273	-0.983945	0.690739	-0.706423	0.154425	-0.721839	-0.686253	0.089474
49201		0.037563	-0.163582	-0.985814	0.701230	-0.698522	0.142630	-0.711945	-0.696640	0.088470
49202		0.033587	-0.153949	-0.987508	0.707574	-0.694147	0.132281	-0.705840	-0.703178	0.085616
49203		0.030397	-0.144615	-0.989021	0.709226	-0.694117	0.123292	-0.704326	-0.705187	0.081466
49204		0.027607	-0.135744	-0.990359	0.705744	-0.698992	0.115481	-0.707929	-0.702128	0.076503
49205		0.024566	-0.127285	-0.991562	0.698037	-0.707846	0.108159	-0.715640	-0.694804	0.071461
49206		0.020904	-0.118878	-0.992689	0.686613	-0.720018	0.100683	-0.726723	-0.683697	0.066572
49208		0.011171	-0.101954	-0.994726	0.660036	-0.746531	0.083928	-0.751151	-0.657493	0.058954
49209		0.005609	-0.093179	-0.995634	0.648214	-0.757798	0.074572	-0.761438	-0.645802	0.056149
49210		-0.000022	-0.084981	-0.996383	0.639368	-0.766121	0.065328	-0.768901	-0.637054	0.054351
49211		-0.005648	-0.077536	-0.996974	0.635006	-0.770451	0.056322	-0.772487	-0.632766	0.053587
49212		-0.010446	-0.070956	-0.997425	0.635728	-0.770410	0.048149	-0.771843	-0.633588	0.053156
49213		-0.014056	-0.064998	-0.997786	0.639653	-0.767570	0.040990	-0.768535	-0.637661	0.052365
49214		-0.016530	-0.059632	-0.998084	0.646290	-0.762296	0.034841	-0.762913	-0.644475	0.051140
49215		-0.018406	-0.054480	-0.998345	0.653820	-0.756086	0.029206	-0.756426	-0.652201	0.049537
49216		-0.019913	-0.049392	-0.998581	0.660862	-0.750126	0.023924	-0.750243	-0.659448	0.047579
49217		-0.021502	-0.044355	-0.998784	0.666415	-0.745345	0.018753	-0.745271	-0.665202	0.045585
49218		-0.023097	-0.039542	-0.998951	0.668613	-0.743479	0.013971	-0.743252	-0.667589	0.043610
49219		-0.024850	-0.034717	-0.999088	0.666389	-0.745546	0.009332	-0.745190	-0.665549	0.041662
49220		-0.026936	-0.030228	-0.999180	0.660618	-0.750706	0.004902	-0.750239	-0.659944	0.040190
49221		-0.029080	-0.025991	-0.999239	0.651653	-0.758517	0.000765	-0.757960	-0.651135	0.038995
49222		-0.031440	-0.021804	-0.999268	0.640845	-0.767662	-0.003413	-0.767026	-0.640483	0.038108
49223		-0.033936	-0.017281	-0.999275	0.629115	-0.777272	-0.007924	-0.776571	-0.628928	0.037249
49224		-0.036580	-0.012772	-0.999249	0.618573	-0.785626	-0.012603	-0.784875	-0.618570	0.036639
49225		-0.039403	-0.008103	-0.999191	0.610904	-0.791507	-0.017672	-0.790723	-0.611106	0.036138
49226		-0.042199	-0.003605	-0.999103	0.607538	-0.793963	-0.022795	-0.793169	-0.607955	0.035695
49227		-0.044889	0.001164	-0.998991	0.607494	-0.793823	-0.028222	-0.793055	-0.608148	0.034927
49228		-0.047406	0.006093	-0.998857	0.609965	-0.791708	-0.033778	-0.791009	-0.610869	0.033815
49229		-0.049868	0.011377	-0.998691	0.613265	-0.788884	-0.039610	-0.788302	-0.614437	0.032363
49230		-0.052542	0.016419	-0.998484	0.616480	-0.786063	-0.045366	-0.785616	-0.617929	0.031180
49231		-0.055484	0.021476	-0.998229	0.619127	-0.783615	-0.051271	-0.783328	-0.620875	0.030182
49232		-0.058268	0.026520	-0.997949	0.620759	-0.781925	-0.057024	-0.781833	-0.622808	0.029099
49233		-0.061087	0.031720	-0.997628	0.621098	-0.781207	-0.062870	-0.781349	-0.623465	0.028020
49234		-0.064214	0.036938	-0.997252	0.620138	-0.781463	-0.068876	-0.781860	-0.622857	0.027274
49235		-0.067969	0.042221	-0.996794	0.618127	-0.782464	-0.075291	-0.783134	-0.621263	0.027085
49236		-0.072327	0.047430	-0.996253	0.615986	-0.783476	-0.082019	-0.784430	-0.619610	0.027450
49237		-0.076853	0.052997	-0.995633	0.614152	-0.784137	-0.089146	-0.785437	-0.618321	0.027715
49238		-0.081307	0.058656	-0.994962	0.613614	-0.783706	-0.096345	-0.785409	-0.618356	0.027729
49239		-0.085561	0.064681	-0.994231	0.614430	-0.782119	-0.103758	-0.784318	-0.619764	0.027177
49240		-0.089737	0.070721	-0.993451	0.616655	-0.779343	-0.111181	-0.782103	-0.622593	0.026326
49241		-0.094026	0.077154	-0.992576	0.619552	-0.775883	-0.119000	-0.779304	-0.626142	0.025152
49242		-0.098749	0.083807	-0.991577	0.623016	-0.771785	-0.127276	-0.775951	-0.630337	0.024000
49243		-0.103712	0.091015	-0.990434	0.626256	-0.767642	-0.136120	-0.772688	-0.634383	0.022615
49244		-0.108828	0.098458	-0.989173	0.628573	-0.764075	-0.145208	-0.770099	-0.637570	0.021265
49245		-0.114217	0.106138	-0.987770	0.629296	-0.761632	-0.154605	-0.768727	-0.639258	0.020199
49246		-0.119955	0.114063	-0.986205	0.629615	-0.759314	-0.164403	-0.767591	-0.640650	0.019267
49247		-0.126145	0.122530	-0.984415	0.630183	-0.756489	-0.174913	-0.766131	-0.642426	0.018211
49248		-0.132798	0.131457	-0.982387	0.631899	-0.752377	-0.186098	-0.763589	-0.645483	0.016847
49249		-0.139304	0.141213	-0.980129	0.634787	-0.746931	-0.197835	-0.760026	-0.649733	0.014410
49250		-0.145798	0.151246	-0.977685	0.637474	-0.741371	-0.209753	-0.756551	-0.653830	0.011675
49251		-0.152661	0.161425	-0.975006	0.639392	-0.736138	-0.221990	-0.753573	-0.657300	0.009166
49252		-0.160050	0.171656	-0.972069	0.640978	-0.730831	-0.234592	-0.750687	-0.660622	0.006942
49253		-0.167888	0.182152	-0.968831	0.641901	-0.725687	-0.247672	-0.748182	-0.663475	0.004911
49254		-0.176143	0.192920	-0.965275	0.641552	-0.721233	-0.261216	-0.746582	-0.665285	0.003272
49255		-0.184857	0.203944	-0.961371	0.639896	-0.717476	-0.275247	-0.745896	-0.666059	0.002127
49256		-0.194132	0.214962	-0.957133	0.636465	-0.714857	-0.289641	-0.746475	-0.665410	0.001961
49257		-0.203655	0.226240	-0.952544	0.631555	-0.713081	-0.304391	-0.748107	-0.663574	0.002339
49258		-0.213148	0.237974	-0.947595	0.626489	-0.710953	-0.319465	-0.749720	-0.661751	0.002450
49259		-0.222943	0.250063	-0.942213	0.620915	-0.708687	-0.335004	-0.751506	-0.659721	0.002729
49260		-0.233262	0.262377	-0.936348	0.615093	-0.705988	-0.351058	-0.753160	-0.657829	0.003294
49261		-0.243926	0.275201	-0.929927	0.609169	-0.702631	-0.367725	-0.754594	-0.656181	0.003746
49262		-0.255258	0.288254	-0.922905	0.602425	-0.699185	-0.384999	-0.756258	-0.654255	0.004821
49263		-0.267088	0.301709	-0.915224	0.594800	-0.695621	-0.402895	-0.758207	-0.651983	0.006336
49264		-0.279475	0.315680	-0.906775	0.586533	-0.691581	-0.421538	-0.760179	-0.649663	0.008123
49265		-0.292115	0.330477	-0.897471	0.577986	-0.686643	-0.440970	-0.761972	-0.647539	0.009567
49266		-0.305197	0.346119	-0.887162	0.568359	-0.681286	-0.461322	-0.764083	-0.645020	0.011207
49267		-0.318490	0.362533	-0.875862	0.558326	-0.674954	-0.482399	-0.766052	-0.642656	0.012554
49268		-0.331806	0.379881	-0.863479	0.547050	-0.668225	-0.504194	-0.768532	-0.639660	0.013907
49269		-0.345007	0.397859	-0.850105	0.533413	-0.662126	-0.526364	-0.772295	-0.635057	0.016215
49270		-0.358790	0.415894	-0.835644	0.515408	-0.658126	-0.548839	-0.778219	-0.627616	0.021774
49272		-0.389730	0.448256	-0.804473	0.462277	-0.660294	-0.591871	-0.796499	-0.602560	0.050118
49273		-0.404987	0.463354	-0.788219	0.429403	-0.664706	-0.611374	-0.807217	-0.586062	0.070232
49274		-0.419716	0.478222	-0.771455	0.394794	-0.669144	-0.629590	-0.817298	-0.568815	0.092051
49275		-0.433408	0.494160	-0.753633	0.361485	-0.670708	-0.647672	-0.825522	-0.553133	0.112059
49276		-0.444754	0.510433	-0.735970	0.333590	-0.668188	-0.665014	-0.831211	-0.541280	0.126904
49277		-0.452618	0.526867	-0.719408	0.308296	-0.664565	-0.680667	-0.836714	-0.529872	0.138363
49278		-0.457644	0.541795	-0.704996	0.285944	-0.661097	-0.693677	-0.841901	-0.519047	0.147624
49279		-0.461414	0.554697	-0.692393	0.264515	-0.658929	-0.704162	-0.846835	-0.508058	0.157313
49280		-0.465309	0.564369	-0.681890	0.241605	-0.660136	-0.711230	-0.851536	-0.495690	0.170813
49281		-0.469925	0.571198	-0.672981	0.218176	-0.663591	-0.715574	-0.855319	-0.483094	0.187216
49284		-0.488934	0.580183	-0.651407	0.162137	-0.673296	-0.721376	-0.857120	-0.458323	0.235128
49285		-0.491846	0.582905	-0.646768	0.150100	-0.674942	-0.722443	-0.857646	-0.452411	0.244474
49286		-0.492929	0.585451	-0.643637	0.137741	-0.677916	-0.722120	-0.859097	-0.444609	0.253524
49287		-0.491388	0.588143	-0.642359	0.123049	-0.683266	-0.719726	-0.862204	-0.432707	0.263379
49288		-0.488373	0.588819	-0.644037	0.109808	-0.690704	-0.714752	-0.865699	-0.419786	0.272664
49289		-0.485090	0.585871	-0.649187	0.100235	-0.700236	-0.706840	-0.868701	-0.407952	0.280952
49290		-0.481094	0.578261	-0.658910	0.094686	-0.712936	-0.694808	-0.871540	-0.396657	0.288236
49291		-0.475598	0.566544	-0.672929	0.091979	-0.728764	-0.678559	-0.874841	-0.384617	0.294489
49292		-0.468032	0.550836	-0.691033	0.093371	-0.746766	-0.658500	-0.878765	-0.372721	0.298078
49293		-0.458613	0.531957	-0.711826	0.099541	-0.765238	-0.636005	-0.883043	-0.362536	0.297997
49294		-0.447523	0.509942	-0.734631	0.112715	-0.782768	-0.612021	-0.887141	-0.356697	0.292829
49295		-0.434365	0.485808	-0.758496	0.132469	-0.798474	-0.587274	-0.890943	-0.355569	0.282475
49296		-0.419522	0.459055	-0.783115	0.155128	-0.813757	-0.560121	-0.894392	-0.356466	0.270177
49297		-0.403165	0.430305	-0.807648	0.177558	-0.828999	-0.530315	-0.897737	-0.357208	0.257819
49298		-0.385674	0.399497	-0.831659	0.198687	-0.844285	-0.497701	-0.900988	-0.357191	0.246244
49299		-0.367646	0.367139	-0.854427	0.216835	-0.859607	-0.462665	-0.904333	-0.355367	0.236422
49300		-0.349485	0.333203	-0.875692	0.233692	-0.874089	-0.425859	-0.907330	-0.353474	0.227614
49301		-0.330998	0.298654	-0.895124	0.249024	-0.887321	-0.388134	-0.910180	-0.351379	0.219330
49302		-0.312005	0.263209	-0.912893	0.261259	-0.900047	-0.348797	-0.913453	-0.347328	0.212053
49303		-0.290885	0.226964	-0.929448	0.270298	-0.912387	-0.307392	-0.917783	-0.340643	0.204051
49304		-0.266691	0.189258	-0.945017	0.277576	-0.923900	-0.263363	-0.922945	-0.332550	0.193862
49305		-0.240092	0.149940	-0.959101	0.284837	-0.933630	-0.217262	-0.928022	-0.325350	0.181448
49306		-0.211557	0.108610	-0.971312	0.293766	-0.940787	-0.169180	-0.932172	-0.321130	0.167124
49307		-0.181901	0.066475	-0.981067	0.303667	-0.945147	-0.120344	-0.935253	-0.319809	0.151737
49308		-0.152446	0.024376	-0.988011	0.311585	-0.947528	-0.071453	-0.937910	-0.318743	0.136852
49309		-0.123730	-0.016750	-0.992175	0.314592	-0.948943	-0.023211	-0.941128	-0.315002	0.122682
49310		-0.095387	-0.056628	-0.993828	0.314072	-0.949098	0.023935	-0.944595	-0.309850	0.108317
49311		-0.067120	-0.094407	-0.993268	0.313059	-0.947233	0.068876	-0.947359	-0.306329	0.093134
49312		-0.038918	-0.130230	-0.990720	0.313418	-0.943029	0.111649	-0.948817	-0.306164	0.077517
49313		-0.010899	-0.163964	-0.986406	0.317364	-0.936029	0.152084	-0.948241	-0.311392	0.062238
49314		0.016900	-0.195926	-0.980473	0.326643	-0.925727	0.190616	-0.944997	-0.323486	0.048352
49315		0.044402	-0.226146	-0.973081	0.341172	-0.912048	0.227529	-0.938952	-0.342091	0.036658
49316		0.070965	-0.255418	-0.964223	0.361611	-0.894314	0.263513	-0.929624	-0.367374	0.028897
49317		0.092442	-0.284696	-0.954150	0.388175	-0.872133	0.297832	-0.916938	-0.397909	0.029890
49318		0.108197	-0.313012	-0.943566	0.412783	-0.849305	0.329076	-0.904380	-0.425093	0.037314
49319		0.120721	-0.338429	-0.933216	0.428192	-0.830385	0.356529	-0.895588	-0.442636	0.044668
49320		0.131450	-0.360966	-0.923268	0.433585	-0.816606	0.380997	-0.891473	-0.450397	0.049166
49321		0.142023	-0.379646	-0.914165	0.433625	-0.806336	0.402233	-0.889831	-0.453531	0.050106
49322		0.153095	-0.393613	-0.906438	0.434875	-0.796827	0.419464	-0.887381	-0.458405	0.049183
49323		0.163041	-0.402650	-0.900717	0.442188	-0.786286	0.431537	-0.881979	-0.468644	0.049851
49324		0.170900	-0.407040	-0.897280	0.457854	-0.773572	0.438127	-0.872446	-0.485699	0.054162
49326		0.178214	-0.402102	-0.898083	0.491096	-0.754551	0.435290	-0.852681	-0.518620	0.062999
49327		0.176592	-0.395508	-0.901326	0.499248	-0.753189	0.428319	-0.848272	-0.525623	0.064449
49328		0.172087	-0.386928	-0.905910	0.501394	-0.757189	0.418652	-0.847933	-0.526262	0.063701
49329		0.165479	-0.376074	-0.911693	0.499909	-0.764885	0.406253	-0.850122	-0.522990	0.061430
49330		0.157737	-0.362871	-0.918392	0.495747	-0.775240	0.391456	-0.854022	-0.517037	0.057608
49331		0.149400	-0.347710	-0.925623	0.489265	-0.787496	0.374792	-0.859244	-0.508869	0.052471
49332		0.142199	-0.331781	-0.932577	0.483284	-0.798950	0.357932	-0.863838	-0.501598	0.046735
49333		0.138055	-0.316887	-0.938362	0.476770	-0.809175	0.343404	-0.868119	-0.494792	0.039372
49334		0.137278	-0.304422	-0.942593	0.472852	-0.816034	0.332414	-0.870383	-0.491340	0.031923
49335		0.138396	-0.294400	-0.945608	0.472244	-0.819644	0.324299	-0.870535	-0.491440	0.025593
49336		0.138694	-0.286742	-0.947915	0.467611	-0.824785	0.317914	-0.872986	-0.487348	0.019691
49337		0.135573	-0.279626	-0.950489	0.468633	-0.827145	0.310183	-0.872928	-0.487483	0.018904
49338		0.130309	-0.272054	-0.953418	0.484746	-0.821368	0.300627	-0.864894	-0.501340	0.024846
49339		0.123779	-0.264118	-0.956515	0.507058	-0.811746	0.289761	-0.852978	-0.520874	0.033446
49340		0.116351	-0.255764	-0.959712	0.535547	-0.797614	0.277492	-0.836452	-0.546257	0.044171
49341		0.107459	-0.247683	-0.962863	0.565087	-0.781610	0.264124	-0.818003	-0.572484	0.055972
49342		0.098299	-0.239108	-0.966005	0.597255	-0.762272	0.249455	-0.796005	-0.601472	0.067878
49343		0.089088	-0.230032	-0.969097	0.630039	-0.740563	0.233704	-0.771437	-0.631388	0.078954
49344		0.080114	-0.219096	-0.972409	0.661126	-0.718409	0.216335	-0.745985	-0.660216	0.087296
49345		0.071258	-0.206693	-0.975807	0.688083	-0.698065	0.198110	-0.722125	-0.685553	0.092479
49346		0.062659	-0.193684	-0.979061	0.711040	-0.679729	0.179974	-0.700354	-0.707429	0.095126
49347		0.054555	-0.180774	-0.982010	0.730858	-0.662872	0.162628	-0.680346	-0.726582	0.095957
49348		0.047512	-0.168408	-0.984572	0.747273	-0.648074	0.146912	-0.662816	-0.742724	0.095055
49349		0.041534	-0.156664	-0.986778	0.758479	-0.637939	0.133206	-0.650373	-0.753983	0.092330
49350		0.036224	-0.145856	-0.988642	0.761996	-0.636033	0.121755	-0.646568	-0.757752	0.088102
49351		0.031475	-0.135904	-0.990222	0.758109	-0.642393	0.112263	-0.651368	-0.754229	0.082811
49352		0.027097	-0.126732	-0.991567	0.748772	-0.654597	0.104126	-0.662273	-0.745279	0.077156
49353		0.023114	-0.117149	-0.992845	0.736099	-0.670004	0.096193	-0.676479	-0.733056	0.070747
49354		0.018925	-0.106998	-0.994079	0.720777	-0.687593	0.087731	-0.692909	-0.718170	0.064109
49355		0.014055	-0.095959	-0.995286	0.702512	-0.707371	0.078121	-0.711533	-0.700299	0.057470
49356		0.008534	-0.084762	-0.996365	0.683542	-0.726767	0.067681	-0.729861	-0.681635	0.051736
49357		0.002119	-0.073957	-0.997259	0.665769	-0.744009	0.056590	-0.746155	-0.664064	0.047661
49358		-0.004814	-0.064509	-0.997906	0.652183	-0.756678	0.045769	-0.758046	-0.650597	0.045715
49359		-0.011425	-0.056394	-0.998343	0.644275	-0.763956	0.035781	-0.764709	-0.642799	0.045061
49360		-0.016976	-0.050084	-0.998601	0.641314	-0.766783	0.027555	-0.767091	-0.639949	0.045136
49361		-0.020858	-0.044625	-0.998786	0.640615	-0.767577	0.020916	-0.767579	-0.639401	0.044598
49362		-0.022992	-0.039536	-0.998954	0.641032	-0.767356	0.015616	-0.767170	-0.640002	0.042987
49363		-0.024015	-0.034374	-0.999120	0.643374	-0.765475	0.010871	-0.765175	-0.642547	0.040498
49364		-0.024619	-0.029687	-0.999256	0.649746	-0.760123	0.006575	-0.759752	-0.649101	0.038003
49365		-0.025014	-0.025103	-0.999372	0.656640	-0.754200	0.002509	-0.753789	-0.656165	0.035349
49366		-0.025180	-0.020501	-0.999473	0.660276	-0.751022	-0.001230	-0.750601	-0.659959	0.032448
49367		-0.025178	-0.016064	-0.999554	0.659363	-0.751811	-0.004526	-0.751403	-0.659183	0.029521
49368		-0.025440	-0.012022	-0.999604	0.653753	-0.756671	-0.007538	-0.756280	-0.653686	0.027110
49369		-0.026388	-0.008745	-0.999614	0.643163	-0.765661	-0.010280	-0.765275	-0.643185	0.025829
49370		-0.027419	-0.005924	-0.999606	0.630705	-0.775919	-0.012702	-0.775538	-0.630805	0.025012
49371		-0.029091	-0.002739	-0.999573	0.618634	-0.785520	-0.015852	-0.785141	-0.618831	0.024546
49372		-0.031129	0.000477	-0.999515	0.609646	-0.792437	-0.019365	-0.792062	-0.609954	0.024377
49373		-0.033367	0.003963	-0.999435	0.602876	-0.797495	-0.023290	-0.797137	-0.603312	0.024220
49374		-0.035330	0.007541	-0.999347	0.600413	-0.799225	-0.027258	-0.798909	-0.600984	0.023709
49375		-0.036671	0.011615	-0.999260	0.601702	-0.798105	-0.031358	-0.797878	-0.602407	0.022279
49376		-0.037727	0.015719	-0.999164	0.604617	-0.795732	-0.035348	-0.795622	-0.605445	0.020517
49377		-0.038802	0.020249	-0.999042	0.606880	-0.793804	-0.039660	-0.793846	-0.607837	0.018512
49378		-0.040474	0.024641	-0.998877	0.608320	-0.792461	-0.044197	-0.792659	-0.609425	0.017084
49379		-0.042600	0.029668	-0.998652	0.609316	-0.791381	-0.049502	-0.791783	-0.610603	0.015636
49380		-0.045577	0.034747	-0.998356	0.609749	-0.790659	-0.055354	-0.791283	-0.611269	0.014849
49381		-0.049079	0.040432	-0.997976	0.610026	-0.789952	-0.062005	-0.790860	-0.611834	0.014105
49382		-0.053029	0.046257	-0.997521	0.610595	-0.788927	-0.069044	-0.790165	-0.612743	0.013591
49383		-0.057195	0.052609	-0.996976	0.611343	-0.787646	-0.076634	-0.789296	-0.613878	0.012887
49384		-0.061796	0.058884	-0.996350	0.612991	-0.785564	-0.084446	-0.787669	-0.615973	0.012450
49385		-0.066809	0.065713	-0.995599	0.615132	-0.782926	-0.092954	-0.785589	-0.618635	0.011884
49386		-0.072532	0.072657	-0.994716	0.617578	-0.779868	-0.101996	-0.783158	-0.621713	0.011694
49387		-0.078718	0.080159	-0.993669	0.619979	-0.776618	-0.111764	-0.780660	-0.624851	0.011437
49388		-0.085252	0.087852	-0.992479	0.622732	-0.772880	-0.121905	-0.777777	-0.628441	0.011181
49389		-0.092018	0.095993	-0.991120	0.624891	-0.769380	-0.132534	-0.775270	-0.631537	0.010812
49390		-0.098835	0.104388	-0.989613	0.627054	-0.765665	-0.143390	-0.772680	-0.634713	0.010217
49392		-0.112955	0.122062	-0.986074	0.631718	-0.757196	-0.166094	-0.766925	-0.641682	0.008421
49393		-0.120471	0.130992	-0.984036	0.633701	-0.752868	-0.177801	-0.764140	-0.645005	0.007689
49394		-0.128156	0.140241	-0.981788	0.635163	-0.748681	-0.189853	-0.761672	-0.647926	0.006871
49395		-0.136156	0.149513	-0.979340	0.636368	-0.744434	-0.202123	-0.759275	-0.650741	0.006214
49396		-0.144083	0.159190	-0.976677	0.637023	-0.740357	-0.214648	-0.757260	-0.653093	0.005265
49397		-0.151906	0.168903	-0.973856	0.637252	-0.736427	-0.227125	-0.755536	-0.655094	0.004234
49398		-0.159482	0.178896	-0.970856	0.636826	-0.732818	-0.239645	-0.754333	-0.656486	0.002945
49399		-0.166901	0.188741	-0.967740	0.635412	-0.729916	-0.251943	-0.753921	-0.656963	0.001896
49400		-0.174300	0.198781	-0.964420	0.632393	-0.728139	-0.264372	-0.754784	-0.655973	0.001207
49401		-0.182310	0.208434	-0.960895	0.628016	-0.727267	-0.276909	-0.756544	-0.653941	0.001688
49402		-0.190676	0.218125	-0.957112	0.621550	-0.727840	-0.289699	-0.759815	-0.650132	0.003206
49403		-0.199292	0.227673	-0.953125	0.614154	-0.728898	-0.302527	-0.763609	-0.645657	0.005437
49404		-0.208003	0.237423	-0.948876	0.606668	-0.729643	-0.315555	-0.767261	-0.641289	0.007730
49405		-0.216606	0.247429	-0.944384	0.600568	-0.728879	-0.328714	-0.769675	-0.638368	0.009282
49406		-0.225098	0.258150	-0.939515	0.595194	-0.727003	-0.342361	-0.771411	-0.636259	0.009998
49407		-0.233697	0.269153	-0.934314	0.589667	-0.724810	-0.356291	-0.773096	-0.634199	0.010675
49408		-0.242668	0.280573	-0.928650	0.584193	-0.721967	-0.370785	-0.774487	-0.632489	0.011290
49409		-0.251791	0.292465	-0.922532	0.578370	-0.718814	-0.385739	-0.775944	-0.630691	0.011838
49410		-0.261121	0.304941	-0.915875	0.571009	-0.716200	-0.401256	-0.778309	-0.627749	0.012891
49411		-0.270975	0.317703	-0.908646	0.562338	-0.713885	-0.417306	-0.781248	-0.624046	0.014789
49412		-0.281202	0.331094	-0.900723	0.552583	-0.711511	-0.434056	-0.784588	-0.619782	0.017121
49413		-0.291731	0.345012	-0.892110	0.542275	-0.708649	-0.451392	-0.787928	-0.615454	0.019643
49414		-0.302351	0.359732	-0.882710	0.531283	-0.705269	-0.469397	-0.791405	-0.610891	0.022120
49415		-0.313274	0.375009	-0.872483	0.520074	-0.700966	-0.488026	-0.794595	-0.606642	0.024562
49416		-0.324765	0.390467	-0.861431	0.508263	-0.696055	-0.507125	-0.797619	-0.602530	0.027595
49418		-0.349981	0.420872	-0.836887	0.480248	-0.686436	-0.546047	-0.804286	-0.593019	0.038117
49420		-0.380447	0.446367	-0.809949	0.438069	-0.684334	-0.582909	-0.814467	-0.576579	0.064813
49421		-0.398595	0.456463	-0.795464	0.408489	-0.688200	-0.599598	-0.821133	-0.563935	0.087853
49422		-0.417198	0.465808	-0.780365	0.374369	-0.694341	-0.614604	-0.828127	-0.548556	0.115294
49423		-0.434349	0.476268	-0.764533	0.340406	-0.699040	-0.628862	-0.833945	-0.533397	0.141503
49424		-0.448254	0.488257	-0.748781	0.312279	-0.699343	-0.642964	-0.837586	-0.522039	0.161011
49425		-0.458871	0.501753	-0.733268	0.289062	-0.696083	-0.657200	-0.840167	-0.513530	0.174374
49426		-0.466229	0.515687	-0.718816	0.267493	-0.692322	-0.670178	-0.843254	-0.504735	0.184838
49427		-0.471416	0.528955	-0.705672	0.247516	-0.688647	-0.681543	-0.846465	-0.495956	0.193714
49428		-0.475836	0.540403	-0.693934	0.229640	-0.685278	-0.691129	-0.849026	-0.488219	0.201982
49429		-0.479933	0.550803	-0.682847	0.212113	-0.682402	-0.699525	-0.851277	-0.480566	0.210675
49430		-0.485243	0.559197	-0.672188	0.194647	-0.680387	-0.706531	-0.852439	-0.473679	0.221307
49431		-0.492533	0.565693	-0.661365	0.177868	-0.678461	-0.712779	-0.851924	-0.468703	0.233546
49434		-0.513218	0.578535	-0.633960	0.147174	-0.668394	-0.729102	-0.845546	-0.467490	0.257886
49435		-0.518708	0.580250	-0.627895	0.140168	-0.666767	-0.731966	-0.843383	-0.467688	0.264525
49437		-0.526841	0.577777	-0.623388	0.129235	-0.670448	-0.730615	-0.840081	-0.465481	0.278550
49438		-0.528612	0.573368	-0.625954	0.126810	-0.675788	-0.726106	-0.839338	-0.463206	0.284521
49439		-0.528463	0.566812	-0.632021	0.123636	-0.685147	-0.717835	-0.839905	-0.457490	0.291996
49440		-0.525864	0.558727	-0.641320	0.119788	-0.697827	-0.706179	-0.842091	-0.448176	0.300034
49441		-0.520717	0.548587	-0.654146	0.115590	-0.713863	-0.690680	-0.845868	-0.435261	0.308309
49442		-0.513763	0.535926	-0.669948	0.114054	-0.731291	-0.672462	-0.850317	-0.421896	0.314586
49443		-0.505307	0.520221	-0.688502	0.116255	-0.749544	-0.651666	-0.855073	-0.409334	0.318272
49444		-0.495829	0.501825	-0.708749	0.122275	-0.767663	-0.629080	-0.859769	-0.398578	0.319269
49445		-0.486038	0.480661	-0.729885	0.130984	-0.785669	-0.604621	-0.864066	-0.389472	0.318907
49446		-0.476083	0.457112	-0.751261	0.140818	-0.803637	-0.578219	-0.868053	-0.381071	0.318228
49447		-0.465114	0.431531	-0.772949	0.150536	-0.821869	-0.549427	-0.872358	-0.371903	0.317302
49448		-0.453088	0.404434	-0.794446	0.158723	-0.840331	-0.518316	-0.877222	-0.360939	0.316551
49449		-0.440258	0.375962	-0.815368	0.165769	-0.858466	-0.485342	-0.882436	-0.348838	0.315624
49451		-0.411582	0.316454	-0.854668	0.181464	-0.890548	-0.417127	-0.893124	-0.326774	0.309108
49452		-0.396378	0.284972	-0.872740	0.192000	-0.903857	-0.382334	-0.897787	-0.319115	0.303554
49453		-0.380115	0.252331	-0.889855	0.206081	-0.914781	-0.347429	-0.901689	-0.315445	0.295721
49454		-0.361758	0.218625	-0.906275	0.223408	-0.923459	-0.311949	-0.905108	-0.315319	0.285226
49455		-0.341145	0.184190	-0.921788	0.242463	-0.930191	-0.275603	-0.908202	-0.317520	0.272671
49456		-0.318892	0.148761	-0.936044	0.262362	-0.935159	-0.238002	-0.910755	-0.321479	0.259185
49457		-0.296167	0.112349	-0.948506	0.282470	-0.938335	-0.199345	-0.912412	-0.326963	0.246169
49459		-0.251333	0.038138	-0.967149	0.320387	-0.939616	-0.120311	-0.913337	-0.340100	0.223938
49460		-0.229199	0.001367	-0.973379	0.337358	-0.937906	-0.080754	-0.913048	-0.346886	0.214506
49461		-0.207133	-0.034876	-0.977691	0.353312	-0.934584	-0.041514	-0.912287	-0.354029	0.205905
49462		-0.184945	-0.069954	-0.980256	0.368109	-0.929778	-0.003099	-0.911203	-0.361414	0.197708
49463		-0.162270	-0.103652	-0.981287	0.381228	-0.923835	0.034542	-0.910128	-0.368489	0.189426
49464		-0.139046	-0.135699	-0.980944	0.392730	-0.916896	0.071171	-0.909082	-0.375350	0.180784
49465		-0.115128	-0.166074	-0.979370	0.404016	-0.908523	0.106567	-0.907478	-0.383412	0.171693
49466		-0.090448	-0.194605	-0.976703	0.416576	-0.898196	0.140385	-0.904590	-0.394173	0.162307
49467		-0.065382	-0.221021	-0.973075	0.431772	-0.885412	0.172099	-0.899610	-0.408894	0.153321
49468		-0.041034	-0.245256	-0.968589	0.449470	-0.870312	0.201330	-0.892352	-0.427090	0.145948
49469		-0.017310	-0.267134	-0.963504	0.469735	-0.852852	0.228016	-0.882638	-0.448645	0.140245
49470		0.005953	-0.286874	-0.957950	0.493952	-0.832093	0.252254	-0.869469	-0.474683	0.136749
49471		0.028919	-0.304939	-0.951933	0.522154	-0.807461	0.274522	-0.852361	-0.504994	0.135874
49472		0.051203	-0.321596	-0.945491	0.553841	-0.778669	0.294847	-0.831047	-0.538749	0.138243
49473		0.072782	-0.336972	-0.938697	0.587158	-0.746325	0.313439	-0.806193	-0.573977	0.143537
49474		0.093578	-0.351430	-0.931526	0.621521	-0.710310	0.330410	-0.777788	-0.609882	0.151952
49475		0.113676	-0.364735	-0.924146	0.655097	-0.671806	0.345724	-0.746945	-0.644706	0.162569
49476		0.133179	-0.376317	-0.916869	0.685682	-0.632986	0.359400	-0.715614	-0.676546	0.173733
49477		0.152015	-0.385792	-0.909976	0.715174	-0.592550	0.370689	-0.682215	-0.707142	0.185832
49478		0.169929	-0.392793	-0.903791	0.743806	-0.550490	0.379095	-0.646433	-0.736665	0.198617
49479		0.186319	-0.398048	-0.898244	0.771231	-0.507148	0.384712	-0.608677	-0.764433	0.212496
49480		0.200982	-0.401328	-0.893612	0.796138	-0.464591	0.387710	-0.570763	-0.789361	0.226138
49481		0.213722	-0.402810	-0.889981	0.817156	-0.425522	0.388827	-0.535330	-0.810355	0.238215
49482		0.224284	-0.402287	-0.887616	0.835645	-0.389225	0.387558	-0.501392	-0.828655	0.248872
49483		0.232789	-0.399560	-0.886657	0.853438	-0.353224	0.383243	-0.466318	-0.845922	0.258774
49484		0.238710	-0.395186	-0.887043	0.871117	-0.316537	0.375445	-0.429152	-0.862341	0.268693
49485		0.241465	-0.389549	-0.888789	0.887213	-0.282419	0.364819	-0.393125	-0.876636	0.277419
49486		0.240879	-0.382916	-0.891826	0.901682	-0.251682	0.351604	-0.359091	-0.888837	0.284643
49487		0.237271	-0.375101	-0.896104	0.915007	-0.223539	0.335847	-0.326290	-0.899628	0.290181
49488		0.231092	-0.367005	-0.901057	0.927567	-0.196394	0.317883	-0.293627	-0.909251	0.295037
49489		0.222361	-0.359362	-0.906319	0.938842	-0.171770	0.298448	-0.262930	-0.917254	0.299189
49490		0.212027	-0.353299	-0.911166	0.948595	-0.149773	0.278811	-0.234972	-0.923443	0.303382
49491		0.201820	-0.348301	-0.915399	0.957428	-0.126800	0.259332	-0.206398	-0.928767	0.307882
49492		0.193234	-0.344842	-0.918556	0.965312	-0.100730	0.240886	-0.175593	-0.933240	0.313416
49493		0.186305	-0.343677	-0.920422	0.971812	-0.073293	0.224074	-0.144470	-0.936223	0.320335
49494		0.180284	-0.343626	-0.921639	0.978277	-0.034842	0.204353	-0.102332	-0.938460	0.329880
49495		0.173636	-0.342037	-0.923505	0.983720	0.016135	0.178982	-0.046318	-0.939548	0.339271
49496		0.164691	-0.338505	-0.926440	0.986297	0.065806	0.151287	0.009754	-0.938661	0.344704
49497		0.151867	-0.330760	-0.931415	0.986324	0.111772	0.121128	0.064042	-0.937072	0.343211
49498		0.135824	-0.321046	-0.937273	0.983910	0.154549	0.089645	0.116074	-0.934368	0.336872
49499		0.118213	-0.312241	-0.942619	0.979717	0.191353	0.059479	0.161802	-0.930532	0.328528
49500		0.101166	-0.305717	-0.946733	0.975619	0.216781	0.034250	0.194763	-0.927115	0.320194
49501		0.085943	-0.301069	-0.949722	0.972603	0.232021	0.014461	0.216002	-0.924945	0.312761
49502		0.072809	-0.298171	-0.951732	0.971216	0.238199	-0.000326	0.226799	-0.924313	0.306931
49503		0.060850	-0.294959	-0.953570	0.971241	0.237816	-0.011584	0.230191	-0.925442	0.300948
49504		0.049299	-0.290332	-0.955655	0.971847	0.234659	-0.021156	0.230396	-0.927708	0.293727
49505		0.037510	-0.283887	-0.958124	0.973588	0.226466	-0.028986	0.225211	-0.931730	0.284883
49506		0.026213	-0.277770	-0.960290	0.976175	0.214095	-0.035282	0.215393	-0.936487	0.276764
49507		0.015996	-0.272579	-0.962000	0.979051	0.199592	-0.040274	0.202985	-0.941203	0.270061
49508		0.007621	-0.269099	-0.963082	0.982315	0.182199	-0.043136	0.187081	-0.945721	0.265728
49509		0.000544	-0.265788	-0.964031	0.985436	0.164074	-0.044680	0.170048	-0.949966	0.262007
49510		-0.005495	-0.262467	-0.964925	0.987237	0.152161	-0.047011	0.159163	-0.952868	0.258281
49511		-0.011681	-0.258006	-0.966073	0.987440	0.149261	-0.051802	0.157562	-0.954544	0.253022
49512		-0.018176	-0.252322	-0.967472	0.985919	0.156354	-0.059300	0.166231	-0.954928	0.245928
49513		-0.024966	-0.245759	-0.969009	0.982567	0.172595	-0.069088	0.184226	-0.953841	0.237166
49514		-0.031432	-0.239423	-0.970407	0.977974	0.193071	-0.079312	0.206347	-0.951525	0.228081
49515		-0.037381	-0.233582	-0.971618	0.973103	0.212665	-0.088564	0.227316	-0.948796	0.219349
49516		-0.042472	-0.228991	-0.972501	0.968455	0.229787	-0.096403	0.245543	-0.945918	0.212008
49517		-0.046818	-0.225301	-0.973164	0.965171	0.240835	-0.102190	0.257395	-0.944054	0.206178
49518		-0.050170	-0.222495	-0.973642	0.963526	0.245804	-0.105820	0.262869	-0.943439	0.202048
49520		-0.054615	-0.218169	-0.974382	0.964187	0.242124	-0.108256	0.259539	-0.945398	0.197133
49521		-0.056056	-0.216268	-0.974723	0.965673	0.236265	-0.107957	0.253641	-0.947315	0.195600
49522		-0.057473	-0.213985	-0.975145	0.967289	0.229801	-0.107438	0.247079	-0.949422	0.193778
49523		-0.058897	-0.211863	-0.975523	0.968422	0.225026	-0.107339	0.242260	-0.951040	0.191919
49524		-0.060364	-0.209534	-0.975936	0.969048	0.222170	-0.107638	0.239378	-0.952227	0.189638
49525		-0.061327	-0.207415	-0.976329	0.968794	0.222992	-0.108227	0.240161	-0.952499	0.187267
49526		-0.062096	-0.204814	-0.976829	0.967442	0.228247	-0.109356	0.245356	-0.951816	0.183973
49527		-0.062505	-0.202277	-0.977332	0.965116	0.237214	-0.110819	0.254253	-0.950165	0.180393
49528		-0.062941	-0.199411	-0.977893	0.962265	0.247787	-0.112464	0.264735	-0.948070	0.176290
49530		-0.063272	-0.194243	-0.978911	0.956037	0.269629	-0.115296	0.286338	-0.943170	0.168644
49531		-0.063120	-0.191960	-0.979371	0.953673	0.277631	-0.115881	0.294149	-0.941314	0.165543
49532		-0.062550	-0.190296	-0.979732	0.951918	0.283601	-0.115858	0.299900	-0.939871	0.163407
49534		-0.061211	-0.187097	-0.980433	0.949758	0.291149	-0.114856	0.306941	-0.938204	0.159875
49535		-0.060724	-0.185634	-0.980741	0.948667	0.294808	-0.114539	0.310392	-0.937352	0.158203
49536		-0.060622	-0.183714	-0.981109	0.947393	0.298889	-0.114506	0.314279	-0.936437	0.155930
49537		-0.060458	-0.182125	-0.981415	0.945658	0.304255	-0.114717	0.319493	-0.935018	0.153833
49538		-0.060470	-0.180374	-0.981738	0.943493	0.310725	-0.115203	0.325830	-0.933228	0.151392
49539		-0.060333	-0.179144	-0.981971	0.941037	0.317866	-0.115807	0.332882	-0.931058	0.149403
49540		-0.060281	-0.177676	-0.982241	0.938447	0.325213	-0.116421	0.340122	-0.928799	0.147136
49541		-0.060266	-0.176387	-0.982474	0.935410	0.333553	-0.117263	0.348391	-0.926083	0.144892
49542		-0.060607	-0.175061	-0.982690	0.932335	0.341674	-0.118369	0.356481	-0.923370	0.142508
49543		-0.061203	-0.174246	-0.982798	0.929115	0.349819	-0.119881	0.364690	-0.920470	0.140485
49544		-0.062074	-0.173398	-0.982894	0.925931	0.357594	-0.121562	0.372556	-0.917638	0.138358
49545		-0.063117	-0.173208	-0.982861	0.922728	0.365098	-0.123596	0.380249	-0.914714	0.136780
49546		-0.064439	-0.173148	-0.982786	0.919710	0.371890	-0.125823	0.387274	-0.911986	0.135282
49547		-0.065660	-0.173724	-0.982603	0.916305	0.379372	-0.128303	0.395061	-0.908789	0.134274
49548		-0.066900	-0.174064	-0.982459	0.912487	0.387627	-0.130812	0.403598	-0.905233	0.132899
49549		-0.067890	-0.174450	-0.982323	0.907945	0.397322	-0.133310	0.413554	-0.900945	0.131417
49550		-0.068771	-0.174659	-0.982224	0.903496	0.406595	-0.135560	0.423044	-0.896758	0.129842
49551		-0.069481	-0.175349	-0.982051	0.899058	0.415576	-0.137812	0.432282	-0.892496	0.128774
49552		-0.070210	-0.176234	-0.981841	0.895029	0.423463	-0.140011	0.440448	-0.888606	0.128003
49553		-0.070935	-0.177345	-0.981589	0.891148	0.430841	-0.142240	0.448134	-0.884831	0.127479
49554		-0.071746	-0.177996	-0.981412	0.887769	0.437124	-0.144180	0.454663	-0.881612	0.126658
49555		-0.072152	-0.179091	-0.981183	0.884803	0.442554	-0.145842	0.460346	-0.878676	0.126529
49556		-0.072566	-0.180238	-0.980943	0.881949	0.447672	-0.147498	0.465725	-0.875845	0.126475
49557		-0.072730	-0.181987	-0.980608	0.878605	0.453597	-0.149345	0.471979	-0.872428	0.126905
49558		-0.072984	-0.183527	-0.980302	0.874906	0.460062	-0.151268	0.478761	-0.868712	0.126992
49559		-0.073036	-0.185168	-0.979989	0.870263	0.468122	-0.153310	0.487142	-0.864046	0.126955
49560		-0.073167	-0.186199	-0.979784	0.865055	0.477048	-0.155258	0.496313	-0.858926	0.126169
49561		-0.073115	-0.187339	-0.979571	0.859312	0.486689	-0.157216	0.506199	-0.853251	0.125398
49562		-0.073254	-0.188219	-0.979391	0.853826	0.495644	-0.159115	0.515378	-0.847886	0.124398
49563		-0.073484	-0.189567	-0.979114	0.848391	0.504200	-0.161292	0.524245	-0.842524	0.123776
49564		-0.074396	-0.190300	-0.978903	0.843210	0.512076	-0.163632	0.532411	-0.837595	0.122366
49565		-0.075627	-0.191052	-0.978662	0.837830	0.520000	-0.166257	0.540668	-0.832526	0.120744
49566		-0.076990	-0.191819	-0.978406	0.833312	0.526408	-0.168776	0.547415	-0.828312	0.119317
49567		-0.077835	-0.193605	-0.977987	0.829912	0.530988	-0.171166	0.552438	-0.824966	0.119346
49568		-0.078481	-0.195957	-0.977467	0.827586	0.533861	-0.173473	0.555825	-0.822553	0.120273
49569		-0.079017	-0.198819	-0.976846	0.824715	0.537433	-0.176096	0.560001	-0.819534	0.121503
49570		-0.079677	-0.201636	-0.976214	0.820487	0.542885	-0.179099	0.566085	-0.815242	0.122184
49571		-0.080035	-0.205045	-0.975475	0.815521	0.549244	-0.182363	0.573166	-0.810116	0.123259
49572		-0.080120	-0.208847	-0.974661	0.810436	0.555624	-0.185677	0.580323	-0.804777	0.124740
49573		-0.080098	-0.213139	-0.973733	0.804469	0.562987	-0.189406	0.588569	-0.798509	0.126369
49574		-0.079975	-0.217555	-0.972766	0.798192	0.570572	-0.193229	0.597071	-0.791907	0.128019
49575		-0.079535	-0.222627	-0.971654	0.792000	0.577791	-0.197214	0.605318	-0.785235	0.130366
49576		-0.078994	-0.227699	-0.970522	0.786693	0.583714	-0.200979	0.612270	-0.779379	0.133019
49577		-0.078121	-0.233243	-0.969275	0.782011	0.588695	-0.204689	0.618350	-0.773974	0.136410
49578		-0.077184	-0.238994	-0.967949	0.777981	0.592724	-0.208384	0.623529	-0.769130	0.140184
49579		-0.076008	-0.245598	-0.966387	0.774275	0.596141	-0.212402	0.628269	-0.764393	0.144849
49580		-0.074785	-0.252505	-0.964701	0.770815	0.599117	-0.216570	0.632654	-0.759802	0.149830
49581		-0.073294	-0.260131	-0.962788	0.766872	0.602491	-0.221163	0.637602	-0.754544	0.155328
49582		-0.071702	-0.267938	-0.960764	0.762901	0.605774	-0.225874	0.642527	-0.749164	0.160975
49583		-0.069659	-0.276473	-0.958494	0.758579	0.609305	-0.230881	0.647847	-0.743176	0.167283
49584		-0.067399	-0.285321	-0.956059	0.754248	0.612701	-0.236023	0.653121	-0.737013	0.173907
49585		-0.064676	-0.294994	-0.953308	0.749677	0.616157	-0.241527	0.658636	-0.730294	0.181300
49586		-0.061929	-0.304932	-0.950358	0.745548	0.618923	-0.247171	0.663569	-0.723845	0.189012
49587		-0.058991	-0.315617	-0.947051	0.741662	0.621148	-0.253203	0.668174	-0.717329	0.197439
49588		-0.056429	-0.326385	-0.943551	0.738337	0.622514	-0.259491	0.672067	-0.711301	0.205855
49589		-0.054012	-0.338180	-0.939530	0.734629	0.623820	-0.266774	0.676316	-0.704615	0.214743
49590		-0.052165	-0.350461	-0.935123	0.730683	0.624900	-0.274958	0.680721	-0.697622	0.223478
49591		-0.050476	-0.363979	-0.930039	0.725980	0.626134	-0.284444	0.685861	-0.689547	0.232636
49592		-0.049259	-0.378477	-0.924299	0.721088	0.626852	-0.295109	0.691090	-0.681037	0.242037
49593		-0.048054	-0.394778	-0.917519	0.714899	0.627926	-0.307618	0.697574	-0.670716	0.252053
49595		-0.045742	-0.430820	-0.901278	0.700144	0.629713	-0.336543	0.712535	-0.646418	0.272831
49596		-0.043398	-0.450602	-0.891670	0.692137	0.630064	-0.352087	0.720460	-0.632438	0.284535
49597		-0.040381	-0.470562	-0.881442	0.683643	0.630344	-0.367831	0.728699	-0.617445	0.296242
49598		-0.036268	-0.491353	-0.870205	0.673849	0.631014	-0.384381	0.737978	-0.600328	0.308213
49599		-0.031472	-0.511871	-0.858485	0.662605	0.632363	-0.401337	0.748307	-0.581467	0.319267
49600		-0.025161	-0.532749	-0.845899	0.647061	0.636324	-0.420005	0.762023	-0.557916	0.328711
49601		-0.017904	-0.553179	-0.832870	0.628616	0.641544	-0.439616	0.777510	-0.531426	0.336251
49602		-0.008996	-0.574083	-0.818747	0.604249	0.649265	-0.461886	0.796745	-0.498883	0.341048
49603		0.000209	-0.593970	-0.804487	0.575670	0.657886	-0.485582	0.817682	-0.463018	0.342068
49604		0.011985	-0.612548	-0.790343	0.546535	0.665902	-0.507813	0.837351	-0.425863	0.342760
49605		0.026226	-0.628913	-0.777033	0.514407	0.674979	-0.528951	0.857145	-0.385839	0.341219
49606		0.043686	-0.643562	-0.764146	0.476663	0.685630	-0.550186	0.878000	-0.340205	0.336714
49607		0.062113	-0.655120	-0.752967	0.430321	0.698279	-0.572041	0.900537	-0.288486	0.325284
49609		0.097926	-0.668781	-0.736982	0.320638	0.722255	-0.612813	0.942126	-0.176294	0.285165
49610		0.113198	-0.670368	-0.733343	0.264854	0.731740	-0.628020	0.957621	-0.123139	0.260382
49611		0.127413	-0.669121	-0.732150	0.207250	0.739832	-0.640075	0.969955	-0.070184	0.232939
49612		0.140293	-0.664761	-0.733764	0.150411	0.746802	-0.647815	0.978619	-0.019483	0.204758
49613		0.153482	-0.658205	-0.737027	0.096424	0.752281	-0.651748	0.983436	0.028965	0.178929
49614		0.165902	-0.649225	-0.742283	0.048892	0.757203	-0.651347	0.984929	0.071768	0.157364
49615		0.178835	-0.638415	-0.748628	0.008324	0.761849	-0.647701	0.983844	0.109600	0.141559
49616		0.191141	-0.625361	-0.756564	-0.023682	0.767612	-0.640477	0.981277	0.140338	0.131912
49617		0.203797	-0.610512	-0.765338	-0.048390	0.774507	-0.630711	0.977817	0.165572	0.128299
49618		0.215184	-0.593419	-0.775597	-0.066442	0.783466	-0.617873	0.974311	0.184488	0.129161
49619		0.225956	-0.574759	-0.786508	-0.079487	0.793819	-0.602937	0.970889	0.198754	0.133683
49620		0.234833	-0.554155	-0.798603	-0.086861	0.806327	-0.585057	0.968147	0.206758	0.141217
49621		0.242192	-0.532099	-0.811304	-0.091106	0.820032	-0.565020	0.965941	0.210758	0.150128
49622		0.246952	-0.508153	-0.825103	-0.092114	0.835310	-0.542008	0.964640	0.209853	0.159473
49623		0.250255	-0.482610	-0.839321	-0.092392	0.851046	-0.516899	0.963761	0.206903	0.168389
49624		0.251569	-0.454820	-0.854314	-0.092454	0.867372	-0.488997	0.963413	0.202001	0.176154
49626		0.250356	-0.393838	-0.884428	-0.098328	0.898453	-0.427917	0.963148	0.194096	0.186208
49627		0.246559	-0.360621	-0.899534	-0.105340	0.912717	-0.394779	0.963386	0.192093	0.187051
49628		0.241007	-0.326204	-0.914061	-0.115950	0.925399	-0.360822	0.963572	0.192946	0.185204
49629		0.232948	-0.290259	-0.928162	-0.128795	0.936804	-0.325286	0.963923	0.195317	0.180843
49630		0.223061	-0.253443	-0.941281	-0.144061	0.946437	-0.288970	0.964101	0.200060	0.174601
49631		0.211489	-0.215433	-0.953342	-0.159300	0.954765	-0.251093	0.964311	0.204970	0.167603
49632		0.199103	-0.176974	-0.963866	-0.175717	0.961171	-0.212776	0.964096	0.211732	0.160275
49633		0.185628	-0.137807	-0.972909	-0.190642	0.966253	-0.173238	0.963949	0.217635	0.153092
49634		0.171230	-0.098794	-0.980265	-0.204723	0.969675	-0.133487	0.963727	0.223540	0.145812
49635		0.154966	-0.059763	-0.986110	-0.217720	0.971561	-0.093096	0.963630	0.229123	0.137548
49636		0.138122	-0.021605	-0.990180	-0.230178	0.971687	-0.053309	0.963297	0.235281	0.129239
49637		0.121106	0.015936	-0.992512	-0.240606	0.970525	-0.013776	0.963038	0.240472	0.121370
49638		0.104431	0.052096	-0.993167	-0.252425	0.967314	0.024197	0.961965	0.248173	0.114168
49639		0.088524	0.087254	-0.992245	-0.264182	0.962537	0.061072	0.960402	0.256727	0.108258
49640		0.073314	0.120853	-0.989959	-0.276785	0.956102	0.096221	0.958131	0.266951	0.103546
49641		0.058495	0.153210	-0.986461	-0.289604	0.948263	0.130105	0.955358	0.278072	0.099839
49642		0.043633	0.183624	-0.982028	-0.302613	0.939215	0.162173	0.952114	0.290098	0.096548
49643		0.029086	0.212758	-0.976672	-0.315104	0.929218	0.193036	0.948611	0.302138	0.094068
49644		0.015281	0.239972	-0.970660	-0.327917	0.918285	0.221861	0.944583	0.314906	0.092724
49645		0.002445	0.265440	-0.964124	-0.339710	0.907011	0.248854	0.940527	0.326914	0.092391
49646		-0.009324	0.288158	-0.957537	-0.351169	0.895644	0.272952	0.936266	0.338802	0.092841
49647		-0.019835	0.308147	-0.951132	-0.361633	0.884697	0.294165	0.932110	0.349795	0.093889
49648		-0.028851	0.324391	-0.945483	-0.372470	0.874268	0.311323	0.927596	0.361146	0.095602
49649		-0.036247	0.337289	-0.940703	-0.383182	0.864684	0.324797	0.922961	0.372234	0.097901
49650		-0.042297	0.345954	-0.937298	-0.395222	0.855823	0.333717	0.917611	0.384556	0.100530
49651		-0.046786	0.350871	-0.935254	-0.407144	0.848279	0.338609	0.912165	0.396625	0.103168
49652		-0.049643	0.351811	-0.934754	-0.418620	0.842403	0.339285	0.906804	0.408150	0.105456
49653		-0.051171	0.349698	-0.935464	-0.428266	0.838510	0.336881	0.902203	0.417866	0.106856
49654		-0.051506	0.344586	-0.937341	-0.435864	0.836720	0.331546	0.898537	0.425630	0.107097
49655		-0.050541	0.337334	-0.940027	-0.440003	0.837440	0.324178	0.896573	0.429999	0.106103
49656		-0.048481	0.327783	-0.943508	-0.441466	0.840312	0.314616	0.895967	0.431780	0.103965
49657		-0.045176	0.316517	-0.947510	-0.440254	0.845096	0.303296	0.896736	0.430847	0.101170
49658		-0.040860	0.303278	-0.952026	-0.438074	0.850920	0.289872	0.898010	0.428902	0.098090
49659		-0.036699	0.289145	-0.956582	-0.434902	0.857205	0.275791	0.899730	0.426140	0.094291
49660		-0.033975	0.275069	-0.960824	-0.433152	0.862342	0.262192	0.900680	0.425091	0.089849
49661		-0.032907	0.262560	-0.964354	-0.433828	0.865488	0.250446	0.900394	0.426606	0.085426
49662		-0.032888	0.252236	-0.967107	-0.434717	0.867696	0.241091	0.899967	0.428346	0.081115
49663		-0.033481	0.244235	-0.969138	-0.433853	0.870002	0.234240	0.900361	0.428306	0.076834
49664		-0.033659	0.237815	-0.970727	-0.432682	0.872070	0.228648	0.900918	0.427712	0.073545
49665		-0.032708	0.232378	-0.972076	-0.435082	0.872296	0.223165	0.899796	0.430232	0.072572
49666		-0.030770	0.226640	-0.973492	-0.441577	0.870671	0.216660	0.896696	0.436538	0.073289
49667		-0.028297	0.220813	-0.974906	-0.449315	0.868406	0.209732	0.892925	0.443974	0.074642
49668		-0.025771	0.214163	-0.976458	-0.460795	0.864278	0.201720	0.887132	0.455146	0.076412
49669		-0.023427	0.206742	-0.978115	-0.474787	0.858706	0.192875	0.879789	0.468915	0.078041
49670		-0.021468	0.198071	-0.979952	-0.491134	0.851666	0.182901	0.870819	0.485215	0.078996
49671		-0.019477	0.188670	-0.981847	-0.507840	0.844051	0.172265	0.861231	0.501977	0.079375
49672		-0.016980	0.178332	-0.983824	-0.523520	0.836721	0.160702	0.851844	0.517780	0.079153
49673		-0.013710	0.167804	-0.985725	-0.538011	0.829713	0.148728	0.842827	0.532370	0.078905
49674		-0.010088	0.157209	-0.987514	-0.552982	0.821936	0.136499	0.833132	0.547454	0.078642
49675		-0.006710	0.147432	-0.989049	-0.567486	0.813815	0.125161	0.823356	0.562112	0.078205
49676		-0.003945	0.138207	-0.990396	-0.581439	0.805462	0.114716	0.813580	0.576307	0.077181
49677		-0.002175	0.129725	-0.991548	-0.592449	0.798633	0.105785	0.805605	0.587671	0.075118
49678		-0.001477	0.121400	-0.992603	-0.600017	0.793962	0.097998	0.799986	0.595723	0.071669
49679		-0.001628	0.113513	-0.993535	-0.602981	0.792488	0.091531	0.797754	0.599231	0.067156
49680		-0.002069	0.105790	-0.994386	-0.601411	0.794324	0.085757	0.798937	0.598212	0.061980
49681		-0.002445	0.098429	-0.995141	-0.595448	0.799348	0.080526	0.803390	0.592752	0.056655
49682		-0.002092	0.090920	-0.995856	-0.586242	0.806668	0.074879	0.810133	0.583969	0.051613
49683		-0.000859	0.083266	-0.996527	-0.575206	0.815127	0.068604	0.818008	0.573267	0.047195
49684		0.001131	0.075056	-0.997179	-0.564076	0.823442	0.061339	0.825722	0.562415	0.043268
49685		0.003696	0.066836	-0.997757	-0.554031	0.830769	0.053598	0.832488	0.552590	0.040099
49686		0.006563	0.058986	-0.998237	-0.546402	0.836269	0.045823	0.837497	0.545138	0.037718
49687		0.009062	0.052185	-0.998596	-0.541492	0.839802	0.038973	0.840657	0.540378	0.035868
49688		0.010880	0.046306	-0.998868	-0.539109	0.841584	0.033143	0.842166	0.538138	0.034120
49689		0.011792	0.041119	-0.999085	-0.539418	0.841564	0.028269	0.841956	0.538591	0.032104
49690		0.012031	0.036080	-0.999277	-0.542567	0.839676	0.023785	0.839926	0.541888	0.029677
49691		0.011912	0.031177	-0.999443	-0.547019	0.836891	0.019587	0.837036	0.546480	0.027024
49692		0.011607	0.026127	-0.999591	-0.552018	0.833690	0.015380	0.833751	0.551614	0.024099
49693		0.011423	0.021471	-0.999704	-0.554922	0.831822	0.011525	0.831824	0.554626	0.021416
49694		0.011783	0.017194	-0.999783	-0.554094	0.832418	0.007785	0.832371	0.553882	0.019335
49695		0.012281	0.013148	-0.999838	-0.548925	0.835861	0.004249	0.835782	0.548784	0.017482
49696		0.012859	0.008905	-0.999878	-0.540763	0.841175	0.000537	0.841077	0.540690	0.015632
49697		0.013447	0.004587	-0.999899	-0.530435	0.847720	-0.003245	0.847619	0.530425	0.013833
49698		0.013790	0.000066	-0.999905	-0.521289	0.853350	-0.007134	0.853269	0.521338	0.011802
49699		0.013814	-0.004292	-0.999895	-0.513243	0.858176	-0.010774	0.858132	0.513338	0.009652
49700		0.013684	-0.008349	-0.999872	-0.506488	0.862131	-0.014130	0.862138	0.506617	0.007569
49701		0.013571	-0.012115	-0.999835	-0.501462	0.865007	-0.017288	0.865073	0.501613	0.005664
49702		0.013598	-0.016011	-0.999779	-0.498535	0.866623	-0.020659	0.866763	0.498706	0.003803
49703		0.013678	-0.020086	-0.999705	-0.496837	0.867506	-0.024228	0.867736	0.497021	0.001887
49704		0.014047	-0.024238	-0.999608	-0.495543	0.868132	-0.028014	0.868470	0.495742	0.000184
49705		0.014474	-0.028161	-0.999499	-0.493696	0.869059	-0.031635	0.869514	0.493907	-0.001324
49706		0.015048	-0.032025	-0.999374	-0.491065	0.870408	-0.035287	0.870993	0.491289	-0.002628
49707		0.015811	-0.035936	-0.999229	-0.487540	0.872226	-0.039083	0.872958	0.487782	-0.003729
49708		0.017059	-0.040077	-0.999051	-0.483543	0.874247	-0.043327	0.875154	0.483823	-0.004466
49709		0.018585	-0.044397	-0.998841	-0.479704	0.876124	-0.047868	0.877234	0.480037	-0.005014
49710		0.020410	-0.048970	-0.998592	-0.475407	0.878181	-0.052782	0.879529	0.475814	-0.005357
49711		0.022312	-0.053586	-0.998314	-0.470459	0.880528	-0.057778	0.882140	0.470955	-0.005564
49712		0.024278	-0.058291	-0.998004	-0.465856	0.882623	-0.062885	0.884527	0.466453	-0.005727
49713		0.026260	-0.063138	-0.997659	-0.462094	0.884211	-0.068121	0.886442	0.462801	-0.005956
49714		0.028395	-0.068138	-0.997272	-0.459095	0.885336	-0.073562	0.887933	0.459931	-0.006143
49715		0.030676	-0.073149	-0.996849	-0.456419	0.886244	-0.079078	0.889236	0.457407	-0.006201
49716		0.033273	-0.078430	-0.996364	-0.453775	0.887055	-0.084980	0.890495	0.454953	-0.006075
49717		0.036032	-0.083808	-0.995830	-0.450905	0.887917	-0.091041	0.891844	0.452306	-0.005796
49718		0.038994	-0.089473	-0.995226	-0.448267	0.888572	-0.097448	0.893049	0.449927	-0.005459
49719		0.041824	-0.095433	-0.994557	-0.446318	0.888804	-0.104055	0.893896	0.448241	-0.005420
49720		0.044745	-0.101669	-0.993812	-0.445435	0.888414	-0.110942	0.894196	0.447642	-0.005535
49721		0.048056	-0.107870	-0.993003	-0.445290	0.887581	-0.117968	0.894096	0.447843	-0.005379
49722		0.051538	-0.114395	-0.992098	-0.447864	0.885272	-0.125343	0.892615	0.450785	-0.005608
49723		0.054238	-0.121664	-0.991088	-0.454181	0.880927	-0.132996	0.889257	0.457347	-0.007478
49724		0.056504	-0.130518	-0.989834	-0.464372	0.874218	-0.141781	0.883836	0.467662	-0.011212
49725		0.059627	-0.140047	-0.988348	-0.472639	0.868131	-0.151527	0.879237	0.476167	-0.014428
49726		0.064023	-0.149772	-0.986646	-0.475139	0.864848	-0.162115	0.877578	0.479173	-0.015793
49727		0.069900	-0.158634	-0.984860	-0.471358	0.864856	-0.172759	0.879168	0.476297	-0.014320
49728		0.076337	-0.167558	-0.982902	-0.467159	0.864875	-0.183719	0.880872	0.473196	-0.012254
49729		0.081984	-0.177015	-0.980788	-0.465508	0.863355	-0.194732	0.881238	0.472530	-0.011620
49730		0.087170	-0.187374	-0.978413	-0.466538	0.860110	-0.206284	0.880195	0.474448	-0.012442
49731		0.092455	-0.197894	-0.975854	-0.467927	0.856454	-0.218013	0.878918	0.476785	-0.013417
49732		0.098329	-0.208195	-0.973132	-0.469117	0.852705	-0.229832	0.877645	0.479112	-0.013822
49733		0.104767	-0.217960	-0.970318	-0.469155	0.849462	-0.241468	0.876879	0.480528	-0.013262
49734		0.111499	-0.227938	-0.967271	-0.469974	0.845519	-0.253422	0.875610	0.482848	-0.012851
49735		0.117297	-0.238676	-0.963989	-0.471429	0.840965	-0.265579	0.874069	0.485604	-0.013876
49736		0.122590	-0.250262	-0.960386	-0.471625	0.836749	-0.278245	0.873236	0.487052	-0.015453
49737		0.127531	-0.262141	-0.956566	-0.468916	0.833913	-0.291045	0.873987	0.485666	-0.016572
49738		0.132902	-0.273986	-0.952507	-0.462876	0.832632	-0.304089	0.876404	0.481306	-0.016163
49739		0.138842	-0.285400	-0.948298	-0.454044	0.832652	-0.317072	0.880095	0.474592	-0.013977
49740		0.145296	-0.296913	-0.943786	-0.443856	0.832970	-0.330382	0.884240	0.466908	-0.010759
49741		0.151585	-0.308676	-0.939011	-0.433615	0.832933	-0.343804	0.888257	0.459284	-0.007586
49742		0.157860	-0.320985	-0.933835	-0.425347	0.831358	-0.357664	0.891157	0.453665	-0.005292
49743		0.163804	-0.333867	-0.928278	-0.419365	0.828162	-0.371861	0.892917	0.450200	-0.004356
49744		0.169959	-0.347394	-0.922188	-0.415152	0.823467	-0.386718	0.893735	0.448575	-0.004266
49745		0.176252	-0.361526	-0.915551	-0.412660	0.817296	-0.402169	0.893670	0.448695	-0.005137
49746		0.182929	-0.376376	-0.908228	-0.410531	0.810174	-0.418428	0.893309	0.449399	-0.006310
49747		0.189774	-0.391627	-0.900341	-0.406716	0.803270	-0.435131	0.893626	0.448760	-0.006841
49748		0.197320	-0.407542	-0.891613	-0.400224	0.796762	-0.452759	0.894922	0.446183	-0.005891
49749		0.205346	-0.423848	-0.882148	-0.390670	0.790932	-0.470961	0.897335	0.441339	-0.003170
49750		0.214733	-0.440503	-0.871692	-0.377422	0.785751	-0.490048	0.900801	0.434225	0.002471
49751		0.225262	-0.457002	-0.860469	-0.360071	0.781593	-0.509373	0.905321	0.424572	0.011510
49753		0.253060	-0.488731	-0.834927	-0.315139	0.774305	-0.548761	0.914685	0.401987	0.041927
49754		0.269008	-0.504238	-0.820597	-0.287598	0.771078	-0.568090	0.919196	0.388823	0.062409
49757		0.310992	-0.552473	-0.773342	-0.213993	0.752093	-0.623348	0.926008	0.359346	0.115670
49758		0.320227	-0.568962	-0.757454	-0.199257	0.741220	-0.641007	0.926149	0.356196	0.123989
49759		0.327309	-0.585139	-0.741944	-0.187470	0.729374	-0.657928	0.926134	0.354438	0.129034
49760		0.332138	-0.599913	-0.727866	-0.175481	0.718900	-0.672599	0.926764	0.351122	0.133500
49761		0.336768	-0.613046	-0.714676	-0.164188	0.709150	-0.685674	0.927162	0.348254	0.138164
49762		0.340050	-0.624873	-0.702780	-0.152406	0.700816	-0.696871	0.927975	0.344079	0.143079
49763		0.344751	-0.635298	-0.691045	-0.140593	0.692927	-0.707167	0.928106	0.340953	0.149569
49764		0.350959	-0.643940	-0.679830	-0.128293	0.686098	-0.716108	0.927561	0.338542	0.158179
49765		0.358718	-0.651377	-0.668603	-0.120093	0.678116	-0.725077	0.925689	0.340392	0.165027
49766		0.364505	-0.658102	-0.658815	-0.117387	0.669372	-0.733595	0.923773	0.344735	0.166737
49767		0.369951	-0.663388	-0.650425	-0.118172	0.660809	-0.741193	0.921505	0.351067	0.166073
49768		0.373992	-0.667118	-0.644270	-0.118457	0.654631	-0.746610	0.919836	0.355544	0.165802
49769		0.377919	-0.669243	-0.639758	-0.116447	0.651157	-0.749956	0.918486	0.357921	0.168154
49770		0.380753	-0.668921	-0.638414	-0.113873	0.651243	-0.750277	0.917638	0.358369	0.171790
49771		0.382249	-0.665947	-0.640625	-0.110614	0.655312	-0.747215	0.917415	0.356484	0.176829
49772		0.382343	-0.659797	-0.646902	-0.107964	0.663400	-0.740435	0.917691	0.352943	0.182412
49773		0.381759	-0.650645	-0.656446	-0.105356	0.674975	-0.730280	0.918238	0.347952	0.189128
49774		0.379944	-0.638083	-0.669696	-0.101925	0.690701	-0.715922	0.919377	0.340269	0.197391
49776		0.373746	-0.603868	-0.704029	-0.100000	0.728377	-0.677839	0.922125	0.323743	0.211841
49777		0.367660	-0.582773	-0.724708	-0.104385	0.748503	-0.654865	0.924083	0.316416	0.214362
49778		0.359965	-0.558958	-0.746988	-0.110499	0.769481	-0.629038	0.926399	0.308973	0.215223
49779		0.350602	-0.531612	-0.771017	-0.116297	0.792189	-0.599093	0.929276	0.299710	0.215918
49780		0.340438	-0.501312	-0.795480	-0.120683	0.815721	-0.565716	0.932490	0.288592	0.217203
49781		0.329493	-0.468449	-0.819750	-0.121637	0.839937	-0.528876	0.936290	0.273973	0.219773
49782		0.317739	-0.433953	-0.843046	-0.121223	0.863234	-0.490033	0.940397	0.257899	0.221678
49783		0.304840	-0.397877	-0.865313	-0.121905	0.884783	-0.449775	0.944570	0.242595	0.221214
49784		0.291821	-0.360675	-0.885864	-0.124899	0.903877	-0.409153	0.948283	0.230043	0.218722
49785		0.277737	-0.322447	-0.904925	-0.130009	0.920703	-0.367971	0.951819	0.219848	0.213792
49786		0.262157	-0.283321	-0.922498	-0.136857	0.935355	-0.326162	0.955272	0.211756	0.206435
49787		0.243850	-0.242913	-0.938898	-0.143430	0.948444	-0.282634	0.959148	0.203587	0.196438
49788		0.224053	-0.201444	-0.953530	-0.148255	0.959972	-0.237641	0.963234	0.194610	0.185220
49789		0.202911	-0.158873	-0.966223	-0.150729	0.969922	-0.191135	0.967527	0.184422	0.172861
49790		0.181448	-0.115979	-0.976538	-0.152976	0.977604	-0.144530	0.971429	0.175611	0.159642
49791		0.159548	-0.072468	-0.984527	-0.156055	0.982911	-0.097639	0.974778	0.169219	0.145512
49792		0.137956	-0.029176	-0.990009	-0.161991	0.985441	-0.051615	0.977101	0.167493	0.131221
49793		0.116215	0.013838	-0.993128	-0.169772	0.985464	-0.006135	0.978607	0.169319	0.116875
49794		0.094473	0.055924	-0.993955	-0.179529	0.983009	0.038245	0.979206	0.174831	0.102907
49795		0.072402	0.097294	-0.992619	-0.190953	0.978172	0.081950	0.978925	0.183610	0.089400
49796		0.050362	0.137228	-0.989258	-0.206433	0.970556	0.124125	0.977164	0.197965	0.077207
49797		0.028689	0.175440	-0.984072	-0.226211	0.960076	0.164568	0.973656	0.217886	0.067230
49798		0.007633	0.210929	-0.977472	-0.251798	0.946408	0.202260	0.967750	0.244581	0.060336
49799		-0.012052	0.244462	-0.969584	-0.282474	0.929327	0.237823	0.959199	0.276749	0.057854
49800		-0.028480	0.275952	-0.960749	-0.316793	0.909103	0.270508	0.948067	0.312062	0.061528
49801		-0.042950	0.305393	-0.951257	-0.345811	0.888737	0.300934	0.937321	0.341880	0.067437
49802		-0.055662	0.332026	-0.941627	-0.365353	0.870909	0.328687	0.929203	0.362321	0.072830
49803		-0.066042	0.356648	-0.931901	-0.378306	0.855265	0.354129	0.923322	0.375931	0.078439
49804		-0.074730	0.378022	-0.922775	-0.386620	0.842002	0.376243	0.919207	0.384880	0.083228
49805		-0.082594	0.395522	-0.914735	-0.391947	0.831012	0.394711	0.916273	0.391129	0.086387
49806		-0.090305	0.408034	-0.908489	-0.398224	0.821323	0.408469	0.912832	0.398669	0.088319
49807		-0.097918	0.415433	-0.904338	-0.406798	0.812613	0.417343	0.908255	0.408748	0.089428
49809		-0.108965	0.416798	-0.902444	-0.420907	0.803102	0.421739	0.900535	0.425800	0.087923
49810		-0.111611	0.413540	-0.903619	-0.420921	0.804030	0.419954	0.900205	0.427224	0.084329
49811		-0.112306	0.408047	-0.906027	-0.414965	0.809223	0.415886	0.902879	0.422677	0.078444
49812		-0.111635	0.400342	-0.909541	-0.404504	0.817700	0.409565	0.907697	0.413635	0.070656
49815		-0.105257	0.362666	-0.925956	-0.361000	0.853674	0.375392	0.926607	0.373783	0.041067
49816		-0.102915	0.346093	-0.932538	-0.347383	0.865979	0.359729	0.932059	0.360970	0.031104
49817		-0.100603	0.329180	-0.938893	-0.338941	0.875893	0.343410	0.935413	0.352777	0.023455
49818		-0.099243	0.314049	-0.944206	-0.335501	0.882767	0.328878	0.936798	0.349421	0.017755
49819		-0.099303	0.302469	-0.947972	-0.335858	0.886586	0.318064	0.936663	0.349969	0.013546
49820		-0.100696	0.295273	-0.950092	-0.339948	0.887260	0.311776	0.935038	0.354377	0.011034
49821		-0.101853	0.291571	-0.951111	-0.347073	0.885592	0.308653	0.932291	0.361542	0.010996
49822		-0.099959	0.289128	-0.952057	-0.361614	0.880864	0.305474	0.926954	0.374812	0.016503
49823		-0.095014	0.285830	-0.953558	-0.388922	0.871103	0.299866	0.916358	0.399351	0.028399
49824		-0.090660	0.280045	-0.955696	-0.425966	0.856529	0.291395	0.900185	0.433512	0.041637
49825		-0.086104	0.271778	-0.958500	-0.467057	0.838793	0.279792	0.880025	0.471766	0.054713
49826		-0.080622	0.261751	-0.961762	-0.509606	0.818433	0.265461	0.856623	0.511521	0.067406
49827		-0.073889	0.250196	-0.965372	-0.549006	0.797923	0.248819	0.832546	0.548380	0.078401
49828		-0.066430	0.237378	-0.969143	-0.580706	0.780649	0.231014	0.811399	0.578134	0.085988
49830		-0.050357	0.209492	-0.976513	-0.622382	0.758103	0.194732	0.781092	0.617570	0.092208
49831		-0.042613	0.196282	-0.979621	-0.633244	0.753101	0.178441	0.772778	0.627943	0.092202
49832		-0.035441	0.183651	-0.982352	-0.639671	0.751061	0.163489	0.767831	0.634176	0.090858
49833		-0.029378	0.171576	-0.984733	-0.642605	0.751355	0.150084	0.765635	0.637203	0.088182
49834		-0.024590	0.159961	-0.986817	-0.642579	0.753657	0.138179	0.765824	0.637506	0.084255
49835		-0.020825	0.149063	-0.988608	-0.638371	0.759029	0.127894	0.769447	0.633763	0.079351
49836		-0.018098	0.138934	-0.990136	-0.629018	0.768184	0.119287	0.777180	0.624973	0.073489
49837		-0.016178	0.129144	-0.991494	-0.615732	0.780006	0.111644	0.787790	0.612300	0.066899
49838		-0.014318	0.119541	-0.992726	-0.599271	0.793733	0.104222	0.800418	0.596404	0.060272
49839		-0.012013	0.110042	-0.993854	-0.580599	0.808447	0.096531	0.814101	0.578191	0.054178
49840		-0.008307	0.100826	-0.994869	-0.562190	0.822309	0.088032	0.826966	0.560037	0.049852
49841		-0.003373	0.091566	-0.995793	-0.546821	0.833561	0.078500	0.837243	0.544786	0.047259
49842		0.002358	0.082520	-0.996587	-0.535907	0.841501	0.068410	0.844274	0.533916	0.046207
49843		0.008191	0.073955	-0.997228	-0.531352	0.845142	0.058311	0.847112	0.529401	0.046219
49844		0.013022	0.066269	-0.997717	-0.533194	0.844565	0.049138	0.845893	0.531337	0.046332
49845		0.016446	0.059740	-0.998079	-0.539458	0.840992	0.041448	0.841852	0.537740	0.046058
49846		0.018514	0.054514	-0.998341	-0.547749	0.835890	0.035485	0.836438	0.546184	0.045336
49847		0.018905	0.049619	-0.998589	-0.558533	0.828917	0.030614	0.829267	0.557167	0.043384
49848		0.018642	0.044572	-0.998832	-0.570833	0.820656	0.025967	0.820855	0.569682	0.040742
49849		0.017946	0.039032	-0.999077	-0.582522	0.812536	0.021281	0.812617	0.581602	0.037319
49850		0.017718	0.033917	-0.999268	-0.588966	0.807980	0.016981	0.807964	0.588233	0.034291
49851		0.018523	0.029627	-0.999389	-0.588037	0.808728	0.013076	0.808622	0.587436	0.032402
49852		0.020140	0.025933	-0.999461	-0.579476	0.814934	0.009468	0.814741	0.578973	0.031440
49853		0.022121	0.022454	-0.999503	-0.565311	0.824856	0.006019	0.824581	0.564897	0.030940
49854		0.023677	0.018901	-0.999541	-0.548166	0.836365	0.002831	0.836034	0.547848	0.030164
49855		0.025064	0.015140	-0.999571	-0.532599	0.846367	-0.000536	0.845996	0.532384	0.029277
49856		0.026257	0.011208	-0.999592	-0.518875	0.854840	-0.004044	0.854447	0.518770	0.028261
49857		0.027298	0.007119	-0.999602	-0.508525	0.861012	-0.007755	0.860614	0.508534	0.027124
49858		0.028290	0.003283	-0.999594	-0.502462	0.864524	-0.011381	0.864136	0.502580	0.026107
49859		0.029517	-0.000354	-0.999564	-0.500869	0.865391	-0.015097	0.865020	0.501096	0.025366
49860		0.030590	-0.004254	-0.999523	-0.503292	0.863905	-0.019080	0.863575	0.503636	0.024286
49861		0.031483	-0.008554	-0.999468	-0.507586	0.861284	-0.023360	0.861026	0.508052	0.022774
49862		0.032716	-0.012773	-0.999383	-0.511158	0.859040	-0.027713	0.858864	0.511749	0.021575
49863		0.034163	-0.017058	-0.999271	-0.512958	0.857810	-0.032180	0.857733	0.513683	0.020555
49864		0.036075	-0.021212	-0.999124	-0.513048	0.857574	-0.036731	0.857602	0.513923	0.020054
49865		0.038372	-0.025346	-0.998942	-0.512062	0.857948	-0.041439	0.858091	0.513110	0.019943
49866		0.040687	-0.029558	-0.998735	-0.510330	0.858737	-0.046205	0.859016	0.511564	0.019855
49867		0.043143	-0.034032	-0.998489	-0.508185	0.859721	-0.051260	0.860167	0.509629	0.019797
49868		0.045957	-0.038663	-0.998195	-0.507065	0.860043	-0.056657	0.860682	0.508754	0.019920
49869		0.048804	-0.043710	-0.997851	-0.508146	0.859002	-0.062481	0.859887	0.510104	0.019712
49870		0.051795	-0.048854	-0.997462	-0.511288	0.856674	-0.068508	0.857847	0.513539	0.019393
49871		0.054734	-0.054345	-0.997021	-0.517058	0.852671	-0.074862	0.854199	0.519615	0.018571
49872		0.057584	-0.060076	-0.996531	-0.524797	0.847326	-0.081407	0.849277	0.527665	0.017265
49873		0.060376	-0.066207	-0.995978	-0.532902	0.841563	-0.088247	0.844020	0.536086	0.015529
49874		0.063788	-0.072610	-0.995319	-0.540594	0.835832	-0.095620	0.838862	0.544163	0.014063
49875		0.067507	-0.079560	-0.994542	-0.549465	0.829067	-0.103619	0.832785	0.553461	0.012252
49876		0.071567	-0.086701	-0.993660	-0.557597	0.822531	-0.111929	0.827021	0.562073	0.010522
49877		0.076019	-0.093696	-0.992694	-0.561660	0.818579	-0.120273	0.823868	0.566700	0.009602
49878		0.081083	-0.100609	-0.991617	-0.563854	0.815758	-0.128872	0.821884	0.569577	0.009415
49879		0.086386	-0.107736	-0.990419	-0.566837	0.812225	-0.137793	0.819288	0.573310	0.009096
49880		0.091989	-0.115325	-0.989059	-0.571393	0.807352	-0.147281	0.815505	0.578690	0.008371
49881		0.097901	-0.123575	-0.987494	-0.576593	0.801709	-0.157490	0.811145	0.584801	0.007235
49882		0.104301	-0.132306	-0.985706	-0.581697	0.795790	-0.168366	0.806691	0.590943	0.006039
49883		0.111239	-0.141408	-0.983682	-0.586422	0.789787	-0.179850	0.802331	0.596859	0.004930
49884		0.118732	-0.150833	-0.981403	-0.591089	0.783442	-0.191919	0.797820	0.602884	0.003864
49885		0.126362	-0.160635	-0.978892	-0.594719	0.777525	-0.204361	0.793940	0.607989	0.002717
49886		0.134213	-0.170593	-0.976158	-0.597329	0.772066	-0.217054	0.790686	0.612219	0.001721
49887		0.141856	-0.180819	-0.973232	-0.599345	0.766790	-0.229823	0.787821	0.615904	0.000400
49888		0.149377	-0.191158	-0.970126	-0.601044	0.761507	-0.242598	0.785132	0.619327	-0.001142
49889		0.156649	-0.201576	-0.966865	-0.602086	0.756524	-0.255272	0.782913	0.622124	-0.002858
49890		0.164060	-0.211909	-0.963420	-0.602419	0.751857	-0.267960	0.781137	0.624344	-0.004309
49891		0.171411	-0.222177	-0.959821	-0.601577	0.747924	-0.280561	0.780207	0.625497	-0.005454
49892		0.178799	-0.232258	-0.956079	-0.599813	0.744547	-0.293044	0.779907	0.625864	-0.006187
49893		0.185858	-0.242224	-0.952252	-0.597711	0.741333	-0.305232	0.779871	0.625901	-0.006997
49894		0.192874	-0.252001	-0.948312	-0.595315	0.738210	-0.317248	0.780000	0.625733	-0.007638
49895		0.199801	-0.261517	-0.944293	-0.592467	0.735348	-0.329009	0.780425	0.625198	-0.008017
49896		0.206907	-0.270809	-0.940134	-0.588782	0.732972	-0.340716	0.781361	0.624031	-0.007790
49897		0.214186	-0.279989	-0.935805	-0.584652	0.730729	-0.352445	0.782500	0.622609	-0.007184
49898		0.221574	-0.289365	-0.931221	-0.579962	0.728600	-0.364399	0.783932	0.620814	-0.006381
49899		0.229045	-0.298996	-0.926358	-0.574787	0.726492	-0.376604	0.785594	0.618718	-0.005459
49900		0.236863	-0.308721	-0.921188	-0.569497	0.724072	-0.389094	0.787128	0.616775	-0.004310
49901		0.245043	-0.318506	-0.915701	-0.563975	0.721421	-0.401851	0.788598	0.614903	-0.002850
49902		0.253688	-0.328413	-0.909828	-0.558181	0.718487	-0.414984	0.789985	0.613125	-0.001043
49903		0.262627	-0.338571	-0.903547	-0.552656	0.714820	-0.428490	0.790948	0.611883	0.000618
49904		0.272028	-0.348906	-0.896808	-0.546835	0.710805	-0.442412	0.791816	0.610754	0.002565
49905		0.281856	-0.359559	-0.889536	-0.539898	0.706973	-0.456836	0.793138	0.609021	0.005139
49906		0.292239	-0.370515	-0.881655	-0.531932	0.703160	-0.471820	0.794761	0.606865	0.008402
49907		0.302881	-0.381749	-0.873230	-0.523155	0.699275	-0.487159	0.796600	0.604386	0.012083
49908		0.313952	-0.393246	-0.864171	-0.513654	0.695137	-0.502935	0.798494	0.601783	0.016247
49909		0.324992	-0.405034	-0.854592	-0.503436	0.690873	-0.518890	0.800582	0.598868	0.020620
49910		0.336533	-0.417009	-0.844304	-0.491003	0.687365	-0.535206	0.803530	0.594670	0.026568
49911		0.348835	-0.428889	-0.833288	-0.474485	0.685939	-0.551681	0.808194	0.587829	0.035778
49912		0.362252	-0.440760	-0.821282	-0.452908	0.686876	-0.568397	0.814646	0.577868	0.049198
49913		0.375523	-0.452984	-0.808572	-0.426274	0.690253	-0.584671	0.822966	0.564231	0.066111
49914		0.388208	-0.465561	-0.795329	-0.396040	0.694979	-0.600130	0.832134	0.547957	0.085416
49915		0.399723	-0.478377	-0.781906	-0.363358	0.700441	-0.614290	0.841541	0.529658	0.106160
49916		0.410749	-0.491353	-0.768022	-0.330772	0.704666	-0.627722	0.849632	0.511876	0.126915
49917		0.420109	-0.504584	-0.754257	-0.300529	0.706899	-0.640293	0.856265	0.495669	0.145333
49918		0.426869	-0.518273	-0.741064	-0.272161	0.707856	-0.651820	0.862387	0.479930	0.161108
49919		0.431068	-0.531004	-0.729531	-0.246304	0.708555	-0.661274	0.868052	0.464741	0.174647
49920		0.434376	-0.542355	-0.719145	-0.221509	0.709561	-0.668922	0.873070	0.449861	0.188079
49921		0.437969	-0.552007	-0.709557	-0.194579	0.712367	-0.674294	0.877680	0.433385	0.204586
49922		0.443513	-0.560064	-0.699732	-0.167094	0.715360	-0.678483	0.880554	0.417837	0.223688
49923		0.450348	-0.566697	-0.689957	-0.143610	0.716719	-0.682415	0.881228	0.406409	0.241389
49924		0.457441	-0.572500	-0.680435	-0.125228	0.716088	-0.686685	0.880378	0.399327	0.255875
49925		0.463552	-0.577150	-0.672322	-0.110661	0.715119	-0.690188	0.879132	0.394338	0.267627
49926		0.469097	-0.580024	-0.665974	-0.099452	0.714601	-0.692427	0.877529	0.391047	0.277533
49927		0.473481	-0.580946	-0.662055	-0.090642	0.715521	-0.692686	0.876128	0.387984	0.286127
49928		0.476429	-0.580045	-0.660730	-0.083918	0.718070	-0.690893	0.875199	0.384609	0.293433
49929		0.477145	-0.577004	-0.662872	-0.080800	0.722273	-0.686872	0.875102	0.381298	0.298006
49930		0.475775	-0.571857	-0.668295	-0.080609	0.728254	-0.680550	0.875865	0.377659	0.300388
49931		0.472722	-0.563962	-0.677112	-0.083005	0.736474	-0.671354	0.877294	0.373568	0.301336
49932		0.468757	-0.552959	-0.688842	-0.087200	0.747049	-0.659025	0.879012	0.368990	0.301967
49933		0.463068	-0.538937	-0.703644	-0.093416	0.759793	-0.643419	0.881386	0.363679	0.301490
49934		0.455864	-0.522248	-0.720726	-0.102431	0.773596	-0.625346	0.884136	0.358897	0.299160
49935		0.447826	-0.502465	-0.739581	-0.112489	0.788927	-0.604104	0.887016	0.353728	0.296780
49936		0.439974	-0.479433	-0.759320	-0.124899	0.804669	-0.580437	0.889282	0.350216	0.294153
49937		0.432179	-0.453405	-0.779516	-0.138665	0.820719	-0.554250	0.891063	0.347627	0.291826
49938		0.424256	-0.425091	-0.799565	-0.151625	0.837155	-0.525529	0.892758	0.344193	0.290714
49939		0.415249	-0.395230	-0.819366	-0.162914	0.853823	-0.494414	0.895001	0.338792	0.290161
49940		0.404790	-0.364645	-0.838558	-0.173106	0.869907	-0.461840	0.897875	0.332107	0.289007
49941		0.393426	-0.333291	-0.856816	-0.183412	0.884784	-0.428388	0.900875	0.325689	0.286968
49942		0.382170	-0.301078	-0.873669	-0.193425	0.898430	-0.394221	0.903622	0.319649	0.285117
49943		0.370599	-0.268024	-0.889280	-0.204285	0.910490	-0.359550	0.906049	0.314915	0.282674
49944		0.358012	-0.234245	-0.903857	-0.216936	0.920663	-0.324528	0.908166	0.312264	0.278792
49945		0.343717	-0.199522	-0.917632	-0.231325	0.929068	-0.288656	0.910136	0.311488	0.273182
49946		0.328033	-0.164063	-0.930310	-0.249042	0.934946	-0.252694	0.911248	0.314578	0.265834
49947		0.311514	-0.127939	-0.941589	-0.268734	0.938582	-0.216438	0.911450	0.320460	0.258000
49948		0.294724	-0.091746	-0.951168	-0.289536	0.940016	-0.180384	0.910663	0.328561	0.250482
49949		0.277924	-0.055723	-0.958985	-0.310509	0.939511	-0.144580	0.909034	0.337956	0.243810
49950		0.261541	-0.020359	-0.964978	-0.331994	0.936876	-0.109747	0.906298	0.349070	0.238272
49951		0.244667	0.014173	-0.969503	-0.355371	0.931625	-0.076063	0.902136	0.363144	0.232975
49952		0.227409	0.047564	-0.972637	-0.381149	0.923468	-0.043956	0.896109	0.380715	0.228134
49953		0.209709	0.079831	-0.974499	-0.409397	0.912258	-0.013368	0.887928	0.401760	0.223992
49954		0.191572	0.110612	-0.975226	-0.439884	0.897922	0.015434	0.877384	0.426029	0.220673
49955		0.172995	0.140228	-0.974889	-0.472128	0.880487	0.042869	0.864389	0.452856	0.218525
49956		0.154316	0.168676	-0.973517	-0.505730	0.859941	0.068832	0.848778	0.481715	0.218007
49957		0.135174	0.195967	-0.971249	-0.540561	0.836097	0.093465	0.830374	0.512386	0.218951
49958		0.115878	0.222001	-0.968136	-0.575784	0.809238	0.116648	0.809349	0.543920	0.221598
49959		0.096175	0.246591	-0.964336	-0.611664	0.778956	0.138185	0.785250	0.576559	0.225747
49960		0.076566	0.269180	-0.960042	-0.648004	0.745223	0.157269	0.757779	0.610069	0.231488
49961		0.056612	0.289510	-0.955499	-0.683106	0.709189	0.174407	0.728122	0.642833	0.237915
49962		0.036652	0.307596	-0.950811	-0.715870	0.671946	0.189785	0.697271	0.673701	0.244826
49963		0.016599	0.324016	-0.945906	-0.746062	0.633848	0.204030	0.665670	0.702318	0.252257
49964		-0.002981	0.339001	-0.940781	-0.774277	0.594587	0.216707	0.632840	0.729071	0.260708
49965		-0.021652	0.352686	-0.935491	-0.800780	0.554099	0.227432	0.598567	0.754047	0.270426
49966		-0.039219	0.364312	-0.930451	-0.824962	0.513616	0.235875	0.563826	0.776837	0.280399
49967		-0.055224	0.374409	-0.925618	-0.846840	0.473562	0.242078	0.528973	0.797218	0.290913
49968		-0.069275	0.382777	-0.921240	-0.866483	0.434548	0.245713	0.494376	0.815261	0.301566
49969		-0.081711	0.389543	-0.917376	-0.882927	0.398703	0.247943	0.462345	0.830236	0.311360
49970		-0.092822	0.394550	-0.914174	-0.896706	0.365954	0.248991	0.432785	0.842857	0.319826
49971		-0.102728	0.397934	-0.911644	-0.908549	0.335572	0.248857	0.404951	0.853838	0.327070
49972		-0.111010	0.399442	-0.910012	-0.919495	0.306167	0.246556	0.377101	0.864122	0.333298
49973		-0.117611	0.399078	-0.909343	-0.929797	0.277352	0.241976	0.348776	0.873964	0.338442
49974		-0.122255	0.397121	-0.909587	-0.939416	0.249402	0.235152	0.320237	0.883229	0.342571
49975		-0.125227	0.394066	-0.910511	-0.948340	0.222093	0.226551	0.291494	0.891844	0.345897
49976		-0.126416	0.390700	-0.911796	-0.956235	0.196516	0.216784	0.263880	0.899297	0.348758
49977		-0.126037	0.387097	-0.913384	-0.963119	0.172897	0.206174	0.237731	0.905684	0.351029
49978		-0.123785	0.383108	-0.915372	-0.969002	0.152086	0.194689	0.213803	0.911097	0.352406
49979		-0.119958	0.378024	-0.917991	-0.974179	0.133327	0.182204	0.191270	0.916145	0.352269
49980		-0.114850	0.371808	-0.921178	-0.979021	0.114749	0.168377	0.168308	0.921190	0.350829
49981		-0.108871	0.365211	-0.924536	-0.983439	0.095995	0.153728	0.144894	0.925962	0.348712
49982		-0.101853	0.359540	-0.927554	-0.987150	0.078880	0.138973	0.123132	0.929790	0.346886
49983		-0.094713	0.354894	-0.930097	-0.990185	0.062871	0.124821	0.102774	0.932790	0.345456
49984		-0.088195	0.351285	-0.932105	-0.992820	0.044913	0.110866	0.080810	0.935191	0.344802
49985		-0.083208	0.348584	-0.933577	-0.994883	0.024817	0.097939	0.057308	0.936949	0.344736
49986		-0.080398	0.346756	-0.934503	-0.996206	0.003375	0.086959	0.033307	0.937949	0.345169
49987		-0.079690	0.345142	-0.935161	-0.996794	-0.020813	0.077261	0.007202	0.938320	0.345694
49988		-0.079493	0.342956	-0.935982	-0.996555	-0.049595	0.066466	-0.023625	0.938041	0.345717
49989		-0.077664	0.339612	-0.937354	-0.995239	-0.081939	0.052773	-0.058884	0.936990	0.344359
49990		-0.072769	0.335307	-0.939294	-0.992777	-0.114426	0.036065	-0.095386	0.935134	0.341212
49991		-0.064915	0.329519	-0.941915	-0.989144	-0.145952	0.017110	-0.131836	0.932800	0.335416
49992		-0.054766	0.322890	-0.944851	-0.984263	-0.176677	-0.003327	-0.168008	0.929800	0.327485
49993		-0.043998	0.315998	-0.947739	-0.978601	-0.204505	-0.022756	-0.201008	0.926457	0.318234
49994		-0.033783	0.309960	-0.950149	-0.972815	-0.228133	-0.039833	-0.229107	0.922974	0.309240
49995		-0.024786	0.304955	-0.952044	-0.967316	-0.247723	-0.054166	-0.252362	0.919584	0.301128
49996		-0.016983	0.300929	-0.953495	-0.962883	-0.261854	-0.065493	-0.269386	0.916992	0.294207
49997		-0.010293	0.297116	-0.954786	-0.960611	-0.268117	-0.073078	-0.277707	0.916425	0.288172
49998		-0.004525	0.293249	-0.956025	-0.960712	-0.266587	-0.077225	-0.277510	0.918116	0.282934
49999		0.000681	0.288244	-0.957557	-0.962008	-0.261245	-0.079325	-0.273022	0.921231	0.277115
50000		0.005335	0.282201	-0.959340	-0.963891	-0.253975	-0.080070	-0.266244	0.925127	0.270656
50001		0.009589	0.275814	-0.961163	-0.966306	-0.244695	-0.079858	-0.257217	0.929543	0.264174
50002		0.013478	0.270086	-0.962742	-0.968795	-0.234792	-0.079430	-0.247497	0.933770	0.258493
50003		0.016988	0.264880	-0.964132	-0.970561	-0.227335	-0.079558	-0.240254	0.937101	0.253220
50004		0.019853	0.259933	-0.965422	-0.971248	-0.224116	-0.080314	-0.237243	0.939259	0.248010
50005		0.022291	0.255233	-0.966623	-0.971244	-0.223715	-0.081469	-0.237042	0.940642	0.242907
50006		0.024492	0.250502	-0.967806	-0.970647	-0.225736	-0.082992	-0.239259	0.941431	0.237620
50007		0.026667	0.245095	-0.969132	-0.968879	-0.232331	-0.085417	-0.246094	0.941250	0.231272
50008		0.029116	0.238836	-0.970623	-0.965363	-0.245159	-0.089283	-0.259281	0.939604	0.223425
50009		0.031639	0.232049	-0.972189	-0.960601	-0.261656	-0.093715	-0.276125	0.936851	0.214628
50010		0.033890	0.225387	-0.973680	-0.955673	-0.277794	-0.097567	-0.292473	0.933826	0.205982
50011		0.035769	0.218955	-0.975079	-0.951110	-0.292054	-0.100470	-0.306774	0.931001	0.197804
50012		0.037030	0.213551	-0.976230	-0.947349	-0.303419	-0.102308	-0.318055	0.928619	0.191072
50013		0.037808	0.208933	-0.977199	-0.944768	-0.311111	-0.103071	-0.325553	0.927123	0.185631
50014		0.038258	0.204779	-0.978060	-0.943589	-0.314755	-0.102811	-0.328902	0.926820	0.181186
50015		0.038229	0.201298	-0.978784	-0.943931	-0.314160	-0.101478	-0.327922	0.927784	0.178001
50016		0.037663	0.198531	-0.979371	-0.945469	-0.310224	-0.099246	-0.323528	0.929702	0.176021
50017		0.036952	0.195919	-0.979924	-0.947562	-0.304611	-0.096633	-0.317428	0.932109	0.174389
50018		0.036190	0.193372	-0.980458	-0.949729	-0.298642	-0.093955	-0.310974	0.934570	0.172843
50019		0.035707	0.190403	-0.981056	-0.951184	-0.294653	-0.091806	-0.306551	0.936443	0.170587
50020		0.035212	0.187235	-0.981684	-0.950934	-0.295851	-0.090536	-0.307384	0.936704	0.167631
50021		0.034712	0.183498	-0.982407	-0.948890	-0.302492	-0.090029	-0.313691	0.935322	0.163619
50022		0.033975	0.179601	-0.983153	-0.945411	-0.313237	-0.089892	-0.324105	0.932537	0.159155
50023		0.033082	0.175637	-0.983899	-0.941003	-0.326243	-0.089878	-0.336776	0.928826	0.154482
50024		0.032086	0.171710	-0.984625	-0.936077	-0.340135	-0.089821	-0.350328	0.924567	0.149820
50025		0.030946	0.167752	-0.985343	-0.931275	-0.353184	-0.089377	-0.363001	0.920391	0.145294
50026		0.029724	0.164198	-0.985980	-0.926958	-0.364539	-0.088653	-0.373985	0.916597	0.141369
50027		0.028750	0.160759	-0.986575	-0.922855	-0.374962	-0.087992	-0.384074	0.912995	0.137577
50028		0.027872	0.157814	-0.987076	-0.919789	-0.382616	-0.087144	-0.391423	0.910330	0.134491
50029		0.027146	0.154929	-0.987553	-0.917869	-0.387451	-0.086015	-0.395954	0.908779	0.131686
50030		0.026375	0.152429	-0.987962	-0.916566	-0.390796	-0.084763	-0.399012	0.907769	0.129404
50031		0.025731	0.149916	-0.988364	-0.915480	-0.393597	-0.083534	-0.401540	0.906977	0.127117
50032		0.025082	0.147469	-0.988749	-0.914261	-0.396666	-0.082354	-0.404347	0.906040	0.124876
50033		0.024585	0.144955	-0.989133	-0.912448	-0.401005	-0.081445	-0.408453	0.904535	0.122406
50034		0.024019	0.142449	-0.989511	-0.909845	-0.407030	-0.080681	-0.414253	0.902239	0.119830
50035		0.023337	0.139749	-0.989912	-0.906496	-0.414585	-0.079899	-0.421569	0.899216	0.117007
50036		0.022599	0.136990	-0.990315	-0.902349	-0.423667	-0.079197	-0.430413	0.895399	0.114038
50037		0.022182	0.133753	-0.990766	-0.897180	-0.434586	-0.078755	-0.441107	0.890643	0.110361
50038		0.022114	0.131232	-0.991105	-0.892088	-0.444935	-0.078819	-0.451321	0.885895	0.107231
50039		0.022411	0.129325	-0.991349	-0.887642	-0.453665	-0.079249	-0.459989	0.881739	0.104628
50040		0.022821	0.128258	-0.991478	-0.883515	-0.461514	-0.080037	-0.467847	0.877812	0.102785
50041		0.023558	0.127530	-0.991555	-0.879525	-0.468873	-0.081200	-0.475269	0.874011	0.101120
50042		0.024602	0.127003	-0.991597	-0.875102	-0.476806	-0.082780	-0.483313	0.869785	0.099410
50043		0.025986	0.126102	-0.991677	-0.869682	-0.486305	-0.084628	-0.492929	0.864642	0.097031
50044		0.027412	0.125212	-0.991751	-0.863697	-0.496523	-0.086560	-0.503266	0.858945	0.094534
50045		0.028750	0.124381	-0.991818	-0.857811	-0.506313	-0.088361	-0.513161	0.853332	0.092139
50046		0.029552	0.124014	-0.991840	-0.852614	-0.514773	-0.089768	-0.521705	0.848310	0.090524
50047		0.030044	0.123897	-0.991840	-0.848326	-0.521620	-0.090856	-0.528621	0.844134	0.089433
50048		0.030284	0.124338	-0.991778	-0.844453	-0.527680	-0.091940	-0.534773	0.840294	0.089018
50049		0.030527	0.124933	-0.991695	-0.841225	-0.532629	-0.092995	-0.539823	0.837077	0.088837
50050		0.030875	0.125491	-0.991614	-0.838805	-0.536259	-0.093982	-0.543556	0.834673	0.088706
50051		0.031205	0.125946	-0.991546	-0.837135	-0.538724	-0.094774	-0.546106	0.833015	0.088622
50052		0.031352	0.126584	-0.991460	-0.835589	-0.540992	-0.095494	-0.548460	0.831447	0.088811
50053		0.031315	0.126843	-0.991428	-0.832944	-0.544960	-0.096032	-0.552470	0.828812	0.088588
50054		0.031096	0.127168	-0.991394	-0.828977	-0.550866	-0.096662	-0.558418	0.824848	0.088290
50055		0.031267	0.126981	-0.991412	-0.823223	-0.559266	-0.097595	-0.566856	0.819205	0.087047
50056		0.031331	0.126960	-0.991413	-0.817646	-0.567236	-0.098480	-0.574868	0.813711	0.086036
50057		0.031177	0.127335	-0.991370	-0.813153	-0.573528	-0.099238	-0.581214	0.809229	0.085662
50058		0.030568	0.128676	-0.991215	-0.809634	-0.578346	-0.100047	-0.586139	0.805580	0.086502
50059		0.029918	0.130294	-0.991024	-0.806353	-0.582754	-0.100960	-0.590678	0.802135	0.087628
50060		0.029395	0.132037	-0.990809	-0.802585	-0.587730	-0.102133	-0.595814	0.798210	0.088695
50061		0.029043	0.133368	-0.990641	-0.797711	-0.594114	-0.103371	-0.602340	0.793248	0.089134
50062		0.028490	0.134865	-0.990454	-0.791740	-0.601815	-0.104720	-0.610194	0.787166	0.089632
50063		0.027752	0.136365	-0.990270	-0.784572	-0.610890	-0.106110	-0.619416	0.779883	0.090035
50064		0.026945	0.138440	-0.990004	-0.776800	-0.620434	-0.107903	-0.629170	0.771943	0.090823
50065		0.026406	0.140630	-0.989710	-0.769097	-0.629599	-0.109980	-0.638587	0.764087	0.091533
50066		0.025941	0.143409	-0.989323	-0.761265	-0.638602	-0.112531	-0.647922	0.756056	0.092607
50067		0.025851	0.146432	-0.988883	-0.753301	-0.647443	-0.115565	-0.657168	0.747914	0.093570
50068		0.026071	0.149913	-0.988355	-0.745544	-0.655723	-0.119126	-0.665946	0.739968	0.094672
50069		0.026407	0.154139	-0.987696	-0.738204	-0.663225	-0.123239	-0.674060	0.732376	0.096273
50070		0.026768	0.159324	-0.986863	-0.731534	-0.669689	-0.127960	-0.681279	0.725349	0.098625
50071		0.027216	0.165055	-0.985909	-0.725062	-0.675692	-0.133135	-0.688146	0.718468	0.101286
50072		0.027441	0.171781	-0.984753	-0.718850	-0.681157	-0.138853	-0.694624	0.711700	0.104793
50073		0.027714	0.178895	-0.983478	-0.712990	-0.686043	-0.144883	-0.700626	0.705225	0.108537
50074		0.028029	0.186759	-0.982006	-0.707752	-0.690040	-0.151434	-0.705905	0.699261	0.112838
50075		0.028458	0.195235	-0.980343	-0.703759	-0.692566	-0.158354	-0.709869	0.694432	0.117689
50076		0.028887	0.204824	-0.978373	-0.701149	-0.693451	-0.165877	-0.712429	0.690777	0.123580
50077		0.029435	0.215109	-0.976146	-0.700095	-0.692592	-0.173734	-0.713443	0.688509	0.130210
50078		0.030317	0.226520	-0.973535	-0.700522	-0.689941	-0.182349	-0.712987	0.687510	0.137765
50079		0.031822	0.238704	-0.970571	-0.701020	-0.686836	-0.191906	-0.712431	0.686496	0.145480
50080		0.033822	0.251902	-0.967162	-0.700557	-0.684202	-0.202702	-0.712795	0.684407	0.153330
50081		0.036257	0.265857	-0.963330	-0.699815	-0.681394	-0.214388	-0.713404	0.681926	0.161345
50082		0.038463	0.281145	-0.958894	-0.698877	-0.678295	-0.226908	-0.714207	0.678876	0.170396
50083		0.040476	0.297499	-0.953864	-0.696829	-0.675772	-0.240335	-0.716094	0.674408	0.179953
50084		0.041987	0.315440	-0.948016	-0.693784	-0.673583	-0.254853	-0.718959	0.668419	0.190565
50085		0.042634	0.334214	-0.941533	-0.689698	-0.671972	-0.269759	-0.722841	0.660874	0.201857
50086		0.042398	0.353768	-0.934372	-0.684200	-0.671224	-0.285182	-0.728061	0.651389	0.213589
50087		0.041150	0.373434	-0.926744	-0.678079	-0.670794	-0.300406	-0.733836	0.640767	0.225615
50088		0.038933	0.393424	-0.918532	-0.672082	-0.669933	-0.315431	-0.739453	0.629609	0.238331
50089		0.035225	0.412652	-0.910207	-0.666236	-0.669168	-0.329157	-0.744909	0.618007	0.251353
50090		0.030317	0.431300	-0.901699	-0.658621	-0.669959	-0.342598	-0.751864	0.604265	0.263752
50091		0.024046	0.448889	-0.893264	-0.650546	-0.671431	-0.354924	-0.759086	0.589644	0.275878
50092		0.016203	0.466064	-0.884603	-0.641162	-0.674033	-0.366866	-0.767234	0.573118	0.287901
50093		0.007128	0.481883	-0.876207	-0.629123	-0.678926	-0.378503	-0.777273	0.553939	0.298324
50094		-0.003057	0.496857	-0.867827	-0.613381	-0.686331	-0.390785	-0.789781	0.531114	0.306861
50095		-0.014493	0.510092	-0.859998	-0.591918	-0.697567	-0.403773	-0.805868	0.503197	0.312042
50096		-0.027592	0.521474	-0.852821	-0.567297	-0.710619	-0.416168	-0.823051	0.472320	0.315438
50097		-0.043541	0.530197	-0.846756	-0.541331	-0.724877	-0.426046	-0.839682	0.439824	0.318574
50098		-0.063099	0.536380	-0.841615	-0.511374	-0.741556	-0.434271	-0.857039	0.402978	0.321082
50099		-0.086137	0.538643	-0.838119	-0.476646	-0.761003	-0.440095	-0.874865	0.361578	0.322293
50100		-0.111036	0.536637	-0.836476	-0.434249	-0.783277	-0.444865	-0.893923	0.313843	0.320006
50101		-0.135905	0.529552	-0.837320	-0.383294	-0.807452	-0.448450	-0.913573	0.259993	0.312711
50102		-0.159994	0.518093	-0.840227	-0.325474	-0.831280	-0.450601	-0.931917	0.201378	0.301626
50103		-0.182566	0.502276	-0.845215	-0.263417	-0.853222	-0.450137	-0.947249	0.140464	0.288077
50104		-0.203604	0.483200	-0.851507	-0.201151	-0.871816	-0.446627	-0.958167	0.080346	0.274702
50105		-0.222710	0.460874	-0.859067	-0.140397	-0.887175	-0.439556	-0.964722	0.022717	0.262288
50106		-0.240100	0.436826	-0.866911	-0.082766	-0.898994	-0.430070	-0.967213	-0.031509	0.252003
50107		-0.255999	0.411195	-0.874862	-0.031145	-0.908058	-0.417684	-0.966175	-0.079679	0.245268
50108		-0.270843	0.385394	-0.882109	0.012541	-0.914868	-0.403557	-0.962542	-0.120363	0.242952
50109		-0.285130	0.358894	-0.888761	0.046326	-0.921008	-0.386778	-0.957369	-0.151455	0.245981
50110		-0.299358	0.332164	-0.894456	0.071097	-0.927075	-0.368072	-0.951488	-0.173779	0.253911
50111		-0.312463	0.304574	-0.899779	0.090286	-0.933395	-0.347307	-0.945630	-0.189758	0.264152
50112		-0.323920	0.276489	-0.904781	0.106410	-0.939628	-0.325234	-0.940081	-0.201628	0.274943
50113		-0.332881	0.247409	-0.909934	0.122288	-0.945492	-0.301814	-0.935006	-0.211742	0.284481
50114		-0.339722	0.217903	-0.914936	0.139800	-0.950286	-0.278230	-0.930078	-0.222429	0.292370
50115		-0.343941	0.187516	-0.920078	0.160945	-0.953584	-0.254508	-0.925095	-0.235617	0.297797
50116		-0.346224	0.156826	-0.924951	0.187426	-0.954490	-0.231990	-0.919239	-0.253680	0.301074
50117		-0.346184	0.125528	-0.929731	0.221377	-0.952093	-0.210977	-0.911674	-0.278858	0.301810
50118		-0.344453	0.094349	-0.934051	0.263164	-0.945343	-0.192538	-0.901164	-0.312129	0.300797
50119		-0.340166	0.063346	-0.938230	0.312589	-0.933375	-0.176351	-0.886891	-0.353269	0.297701
50120		-0.333577	0.033414	-0.942130	0.367716	-0.915600	-0.162669	-0.868050	-0.400700	0.293137
50121		-0.324236	0.004282	-0.945966	0.426945	-0.891687	-0.150374	-0.844150	-0.452632	0.287289
50122		-0.313017	-0.023348	-0.949461	0.487624	-0.861826	-0.139566	-0.815011	-0.506666	0.281151
50123		-0.299537	-0.049864	-0.952781	0.547339	-0.826941	-0.128796	-0.781471	-0.560073	0.274992
50124		-0.284741	-0.074851	-0.955678	0.604252	-0.787959	-0.118320	-0.744179	-0.611161	0.269593
50125		-0.267894	-0.098779	-0.958371	0.657351	-0.745969	-0.106863	-0.704360	-0.658614	0.264773
50126		-0.249767	-0.121110	-0.960702	0.705225	-0.702621	-0.094772	-0.663531	-0.701182	0.260902
50127		-0.229714	-0.142370	-0.962789	0.747364	-0.659484	-0.080796	-0.623441	-0.738114	0.257895
50128		-0.208544	-0.162256	-0.964460	0.783959	-0.617331	-0.065658	-0.584738	-0.769789	0.255942
50129		-0.185521	-0.181075	-0.965812	0.816038	-0.575937	-0.048772	-0.547416	-0.797188	0.254613
50130		-0.161524	-0.198578	-0.966683	0.844772	-0.534203	-0.031417	-0.510166	-0.821702	0.254040
50131		-0.135778	-0.214834	-0.967166	0.870880	-0.491321	-0.013125	-0.472369	-0.844068	0.253805
50132		-0.109189	-0.229206	-0.967234	0.894680	-0.446680	0.004851	-0.433157	-0.864836	0.253839
50133		-0.081307	-0.241301	-0.967038	0.916239	-0.399985	0.022771	-0.392295	-0.884186	0.253611
50134		-0.053110	-0.250455	-0.966671	0.935357	-0.351472	0.039673	-0.349694	-0.902075	0.252931
50135		-0.023991	-0.257009	-0.966111	0.951657	-0.301889	0.056678	-0.306225	-0.918046	0.251827
50136		0.005041	-0.261016	-0.965321	0.964979	-0.251922	0.073157	-0.262280	-0.931883	0.250605
50137		0.034681	-0.262586	-0.964285	0.975326	-0.201600	0.089976	-0.218027	-0.943613	0.249115
50138		0.063707	-0.261800	-0.963017	0.982759	-0.151374	0.106165	-0.173569	-0.953177	0.247643
50139		0.092727	-0.258549	-0.961537	0.987293	-0.101291	0.122447	-0.129053	-0.960673	0.245871
50140		0.120586	-0.252911	-0.959945	0.989105	-0.051649	0.137857	-0.084445	-0.966110	0.243927
50141		0.147926	-0.245020	-0.958167	0.988208	-0.002102	0.153101	-0.039527	-0.969516	0.241820
50142		0.173918	-0.235542	-0.956176	0.984745	0.047021	0.167531	0.005500	-0.970726	0.240127
50143		0.199131	-0.224427	-0.953928	0.978706	0.095031	0.181946	0.049819	-0.969846	0.238572
50144		0.222854	-0.211726	-0.951582	0.970372	0.141658	0.195735	0.093357	-0.967008	0.237022
50145		0.245736	-0.197199	-0.949066	0.959606	0.187872	0.209428	0.137004	-0.962194	0.235400
50146		0.267035	-0.181135	-0.946511	0.946244	0.235310	0.221928	0.182524	-0.954892	0.234234
50147		0.287138	-0.163271	-0.943872	0.929687	0.284843	0.233551	0.230723	-0.944567	0.233580
50148		0.305045	-0.144081	-0.941376	0.909464	0.337326	0.243076	0.282528	-0.930296	0.233937
50149		0.321324	-0.124171	-0.938793	0.884878	0.392440	0.250963	0.337257	-0.911357	0.235977
50150		0.335266	-0.105396	-0.936210	0.856207	0.448687	0.256104	0.393073	-0.887452	0.240670
50151		0.347333	-0.087732	-0.933629	0.825042	0.501817	0.259781	0.445720	-0.860513	0.246680
50152		0.357164	-0.070905	-0.931347	0.792353	0.550979	0.261914	0.494582	-0.831501	0.252971
50153		0.365277	-0.053755	-0.929346	0.756506	0.598905	0.262701	0.542468	-0.799014	0.259432
50154		0.370971	-0.036988	-0.927908	0.716266	0.647360	0.260553	0.591053	-0.761286	0.266645
50155		0.374767	-0.020953	-0.926882	0.672026	0.694865	0.256013	0.638694	-0.718835	0.274494
50156		0.376644	-0.006753	-0.926333	0.625305	0.739638	0.248855	0.683471	-0.672971	0.282803
50157		0.377195	0.006083	-0.926114	0.576143	0.781384	0.239788	0.725109	-0.624021	0.291229
50158		0.376260	0.017326	-0.926352	0.524251	0.820395	0.228281	0.763930	-0.571534	0.299599
50159		0.374159	0.027877	-0.926945	0.470744	0.855486	0.215743	0.799003	-0.517076	0.306965
50160		0.370845	0.037314	-0.927945	0.416847	0.886196	0.202225	0.829887	-0.461805	0.313087
50161		0.367055	0.045919	-0.929065	0.363141	0.912453	0.188568	0.856387	-0.406597	0.318246
50162		0.363191	0.052949	-0.930209	0.310788	0.934319	0.174527	0.878352	-0.352484	0.322881
50163		0.359348	0.058680	-0.931357	0.259350	0.952426	0.160073	0.896441	-0.299069	0.327033
50164		0.354825	0.062898	-0.932815	0.208726	0.967223	0.144613	0.911336	-0.246015	0.330066
50165		0.349615	0.066228	-0.934550	0.158755	0.978886	0.128760	0.923345	-0.193381	0.331719
50166		0.343681	0.068500	-0.936585	0.110001	0.987534	0.112592	0.932621	-0.141721	0.331862
50167		0.337258	0.070245	-0.938788	0.062904	0.993302	0.096922	0.939308	-0.091742	0.330580
50168		0.330735	0.071116	-0.941040	0.017711	0.996513	0.081532	0.943557	-0.043633	0.328322
50169		0.324155	0.071606	-0.943290	-0.026152	0.997428	0.066729	0.945643	0.003038	0.325194
50170		0.317556	0.071347	-0.945552	-0.068554	0.996283	0.052152	0.945758	0.048260	0.321266
50171		0.310856	0.070515	-0.947838	-0.109085	0.993301	0.038122	0.944176	0.091544	0.316466
50172		0.303820	0.068826	-0.950240	-0.147589	0.988747	0.024426	0.941228	0.132824	0.310559
50173		0.296271	0.066400	-0.952793	-0.184934	0.982690	0.010978	0.937029	0.172951	0.303422
50174		0.290087	0.063216	-0.954910	-0.218417	0.975854	-0.001749	0.931742	0.209075	0.296890
50175		0.285953	0.060323	-0.956343	-0.248195	0.968621	-0.013115	0.925543	0.241110	0.291952
50176		0.283461	0.058646	-0.957189	-0.279135	0.959956	-0.023847	0.917460	0.273945	0.288481
50177		0.281749	0.059552	-0.957638	-0.311814	0.949581	-0.032689	0.907408	0.307815	0.286113
50178		0.281037	0.062837	-0.957638	-0.344232	0.938054	-0.039469	0.895836	0.340742	0.285259
50179		0.281807	0.067175	-0.957117	-0.377863	0.924700	-0.046356	0.881932	0.374723	0.285970
50180		0.281123	0.069977	-0.957117	-0.420304	0.905576	-0.057242	0.862736	0.418372	0.283990
50181		0.276119	0.069094	-0.958637	-0.467472	0.881141	-0.071139	0.839779	0.467778	0.275600
50182		0.268122	0.064565	-0.961219	-0.508582	0.856876	-0.084307	0.818203	0.511463	0.262583
50183		0.259836	0.058673	-0.963869	-0.539506	0.836661	-0.094508	0.800886	0.544569	0.249049
50184		0.253074	0.053149	-0.965986	-0.563783	0.819524	-0.102612	0.786195	0.570575	0.237364
50185		0.249150	0.049391	-0.967205	-0.580332	0.807150	-0.108275	0.775332	0.588277	0.229764
50186		0.247299	0.046891	-0.967804	-0.587726	0.801361	-0.111353	0.770338	0.596341	0.225735
50187		0.245877	0.044718	-0.968269	-0.587344	0.801532	-0.112129	0.771085	0.596277	0.223343
50188		0.243344	0.042075	-0.969027	-0.583235	0.804611	-0.111527	0.774997	0.592310	0.220336
50189		0.239108	0.038352	-0.970235	-0.578441	0.808191	-0.110607	0.779893	0.587671	0.215429
50190		0.233679	0.033966	-0.971720	-0.573377	0.811941	-0.109504	0.785260	0.582751	0.209209
50191		0.227933	0.029690	-0.973224	-0.568255	0.815707	-0.108203	0.790653	0.577703	0.202798
50192		0.223012	0.026824	-0.974446	-0.564150	0.818766	-0.106573	0.794985	0.573501	0.197728
50193		0.219307	0.025421	-0.975325	-0.563219	0.819573	-0.105282	0.796674	0.572410	0.194056
50194		0.216274	0.025044	-0.976011	-0.568557	0.815909	-0.105051	0.793706	0.577638	0.190699
50195		0.212902	0.024201	-0.976774	-0.579953	0.807672	-0.106398	0.786338	0.589135	0.185990
50196		0.209034	0.022269	-0.977655	-0.596602	0.795039	-0.109451	0.774836	0.606150	0.179476
50197		0.204763	0.019712	-0.978613	-0.616200	0.779407	-0.113233	0.760506	0.626207	0.171740
50198		0.200054	0.016879	-0.979639	-0.636680	0.762218	-0.116885	0.744726	0.647100	0.163232
50199		0.195412	0.014184	-0.980619	-0.655362	0.745752	-0.119810	0.729599	0.666072	0.155024
50200		0.191378	0.011757	-0.981446	-0.671052	0.731288	-0.122093	0.716284	0.681968	0.147842
50201		0.187757	0.009050	-0.982174	-0.684628	0.718223	-0.124259	0.704296	0.695754	0.141047
50202		0.184681	0.006233	-0.982779	-0.694382	0.708491	-0.125993	0.695505	0.705692	0.135173
50203		0.182159	0.003476	-0.983263	-0.700074	0.702647	-0.127212	0.690445	0.711530	0.130427
50204		0.180336	0.001065	-0.983605	-0.701948	0.700643	-0.127938	0.689020	0.713511	0.127098
50205		0.178762	-0.000950	-0.983892	-0.701275	0.701289	-0.128091	0.690114	0.712877	0.124698
50206		0.177241	-0.002542	-0.984164	-0.698766	0.703867	-0.127661	0.693045	0.710328	0.122978
50207		0.175839	-0.003678	-0.984412	-0.695921	0.706808	-0.126949	0.696257	0.707396	0.121725
50208		0.174708	-0.004437	-0.984610	-0.694816	0.707979	-0.126478	0.697645	0.706219	0.120607
50209		0.173244	-0.005381	-0.984864	-0.697671	0.705148	-0.126577	0.695156	0.709039	0.118409
50210		0.170900	-0.006544	-0.985267	-0.704421	0.698360	-0.126824	0.688901	0.715716	0.114740
50212		0.166057	-0.007965	-0.986084	-0.723652	0.678315	-0.127343	0.669890	0.734728	0.106875
50213		0.163630	-0.008595	-0.986484	-0.735654	0.665188	-0.127820	0.657296	0.746627	0.102522
50214		0.161381	-0.009198	-0.986849	-0.748805	0.650212	-0.128513	0.642843	0.759698	0.098044
50215		0.159392	-0.009518	-0.987170	-0.761502	0.635180	-0.129079	0.628259	0.772305	0.093994
50216		0.157518	-0.009761	-0.987468	-0.773142	0.620878	-0.129467	0.614360	0.783847	0.090253
50217		0.155886	-0.009832	-0.987726	-0.783839	0.607257	-0.129752	0.601079	0.794445	0.086956
50218		0.154596	-0.009753	-0.987930	-0.793668	0.594284	-0.130064	0.588379	0.804196	0.084133
50219		0.153491	-0.009728	-0.988102	-0.803525	0.580782	-0.130537	0.575142	0.814001	0.081328
50220		0.152292	-0.009897	-0.988286	-0.813055	0.567264	-0.130970	0.561915	0.823477	0.078343
50221		0.151191	-0.010442	-0.988449	-0.821754	0.554450	-0.131551	0.549419	0.832152	0.075247
50222		0.150449	-0.011220	-0.988554	-0.829289	0.542916	-0.132372	0.538187	0.839712	0.072376
50223		0.150235	-0.012232	-0.988575	-0.835671	0.532736	-0.133590	0.528283	0.846193	0.069813
50224		0.150411	-0.013704	-0.988529	-0.841162	0.523598	-0.135247	0.519445	0.851856	0.067228
50225		0.151788	-0.014813	-0.988302	-0.845905	0.515266	-0.137642	0.511277	0.856902	0.065681
50226		0.153942	-0.015586	-0.987957	-0.849844	0.507979	-0.140435	0.504050	0.861228	0.064954
50227		0.156774	-0.015652	-0.987510	-0.853939	0.500197	-0.143497	0.496196	0.865770	0.065052
50228		0.159588	-0.015704	-0.987059	-0.859180	0.490190	-0.146711	0.486150	0.871474	0.064736
50229		0.161747	-0.015956	-0.986703	-0.866013	0.477094	-0.149677	0.473138	0.878708	0.063351
50230		0.163323	-0.016389	-0.986436	-0.873201	0.462962	-0.152267	0.459179	0.886226	0.061302
50231		0.164587	-0.016343	-0.986227	-0.879504	0.450205	-0.154237	0.446525	0.892776	0.059724
50232		0.165995	-0.015669	-0.986002	-0.884914	0.438870	-0.155951	0.435171	0.898414	0.058985
50233		0.168062	-0.014086	-0.985676	-0.889350	0.429144	-0.157771	0.425219	0.903126	0.059595
50234		0.170412	-0.012713	-0.985291	-0.893645	0.419293	-0.159972	0.415160	0.907762	0.060092
50235		0.172763	-0.011703	-0.984894	-0.898318	0.408217	-0.162428	0.403951	0.912810	0.060012
50236		0.174955	-0.011054	-0.984514	-0.903221	0.396209	-0.164957	0.391897	0.918094	0.059335
50237		0.177501	-0.010160	-0.984068	-0.907908	0.384147	-0.167730	0.379731	0.923216	0.058962
50238		0.180775	-0.008658	-0.983486	-0.912206	0.372365	-0.170951	0.367696	0.928046	0.059417
50239		0.184790	-0.006851	-0.982754	-0.916511	0.359774	-0.174842	0.354767	0.933014	0.060203
50240		0.189038	-0.004879	-0.981958	-0.920497	0.347374	-0.178932	0.341980	0.937714	0.061176
50241		0.193653	-0.002159	-0.981068	-0.923946	0.335846	-0.183117	0.329883	0.941915	0.063043
50242		0.198022	0.000451	-0.980197	-0.926911	0.325311	-0.187107	0.318785	0.945607	0.064837
50243		0.202125	0.002814	-0.979356	-0.929508	0.315533	-0.190930	0.308482	0.948910	0.066392
50244		0.205973	0.005276	-0.978544	-0.931219	0.308319	-0.194349	0.300678	0.951268	0.068419
50245		0.210085	0.008294	-0.977648	-0.931874	0.304202	-0.197668	0.295763	0.952571	0.071637
50246		0.214132	0.011815	-0.976733	-0.931982	0.301898	-0.200669	0.292503	0.953267	0.075657
50247		0.218039	0.015838	-0.975812	-0.932348	0.298871	-0.203476	0.288419	0.954162	0.079932
50248		0.221822	0.019893	-0.974884	-0.933114	0.294509	-0.206308	0.283008	0.955442	0.083892
50249		0.225739	0.024139	-0.973889	-0.934112	0.289149	-0.209352	0.276545	0.956980	0.087821
50250		0.230045	0.028861	-0.972752	-0.935149	0.283255	-0.212749	0.269397	0.958610	0.092151
50251		0.235007	0.034783	-0.971371	-0.935932	0.277786	-0.216486	0.262303	0.960013	0.097836
50252		0.240672	0.041567	-0.969716	-0.936790	0.271371	-0.220868	0.253972	0.961577	0.104251
50253		0.247008	0.049297	-0.967759	-0.937878	0.263293	-0.225969	0.243664	0.963456	0.111270
50254		0.253927	0.057623	-0.965505	-0.939443	0.252219	-0.232020	0.230149	0.965953	0.118179
