// Start Time: Unknown
// Update Rate: 100.0Hz
// Filter Profile: human (46.1)
// Option Flags: AHS Disabled ICC Disabled 
// Firmware Version: 4.0.2
PacketCounter	SampleTimeFine	Mat[1][1]	Mat[2][1]	Mat[3][1]	Mat[1][2]	Mat[2][2]	Mat[3][2]	Mat[1][3]	Mat[2][3]	Mat[3][3]
12703		-0.036891	0.145892	-0.988612	0.879292	0.474823	0.037259	0.474851	-0.867905	-0.145798
12704		-0.035509	0.147104	-0.988483	0.880774	0.471961	0.038597	0.472203	-0.869260	-0.146324
12705		-0.034906	0.148695	-0.988267	0.881444	0.470619	0.039676	0.470997	-0.869717	-0.147494
12706		-0.034104	0.149925	-0.988109	0.883338	0.466994	0.040369	0.467493	-0.871458	-0.148361
12707		-0.033569	0.151114	-0.987946	0.884553	0.464632	0.041013	0.465230	-0.872514	-0.149266
12708		-0.032762	0.151981	-0.987840	0.886500	0.460864	0.041504	0.461568	-0.874360	-0.149830
12709		-0.032200	0.152875	-0.987721	0.887562	0.458764	0.042071	0.459562	-0.875308	-0.150458
12710		-0.031325	0.153466	-0.987657	0.889315	0.455312	0.042542	0.456221	-0.877006	-0.150742
12711		-0.030625	0.154163	-0.987571	0.890650	0.452647	0.043040	0.453657	-0.878262	-0.151168
12712		-0.030031	0.154909	-0.987472	0.892300	0.449356	0.043356	0.450443	-0.879819	-0.151720
12713		-0.029608	0.155908	-0.987328	0.893764	0.446404	0.043689	0.447559	-0.881145	-0.152563
12714		-0.029149	0.156921	-0.987181	0.895184	0.443512	0.044067	0.444742	-0.882424	-0.153401
12715		-0.028560	0.157860	-0.987048	0.896295	0.441207	0.044628	0.442538	-0.883412	-0.154090
12716		-0.027845	0.158744	-0.986927	0.897407	0.438875	0.045272	0.440325	-0.884414	-0.154678
12717		-0.027089	0.159771	-0.986782	0.898578	0.436397	0.045990	0.437977	-0.885455	-0.155388
12718		-0.026310	0.160974	-0.986608	0.899727	0.433935	0.046807	0.435659	-0.886447	-0.156250
12719		-0.025538	0.162311	-0.986409	0.900636	0.431942	0.047757	0.433823	-0.887176	-0.157214
12720		-0.024636	0.163587	-0.986221	0.901391	0.430243	0.048849	0.432306	-0.887767	-0.158055
12721		-0.023600	0.164851	-0.986036	0.902020	0.428777	0.050096	0.431048	-0.888242	-0.158818
12722		-0.022479	0.166053	-0.985861	0.902563	0.427476	0.051422	0.429970	-0.888646	-0.159483
12723		-0.021300	0.167340	-0.985669	0.902989	0.426398	0.052878	0.429136	-0.888922	-0.160188
12724		-0.020191	0.168634	-0.985472	0.903360	0.425433	0.054292	0.428408	-0.889140	-0.160927
12725		-0.019047	0.169869	-0.985282	0.903784	0.424350	0.055690	0.427564	-0.889422	-0.161608
12726		-0.017969	0.171169	-0.985078	0.904179	0.423324	0.057064	0.426775	-0.889662	-0.162374
12727		-0.016912	0.172455	-0.984872	0.904565	0.422315	0.058416	0.426001	-0.889893	-0.163139
12728		-0.015944	0.173704	-0.984669	0.904973	0.421265	0.059662	0.425170	-0.890148	-0.163914
12729		-0.014944	0.174742	-0.984501	0.905418	0.420140	0.060828	0.424257	-0.890476	-0.164494
12730		-0.013856	0.175362	-0.984406	0.905891	0.418965	0.061883	0.423284	-0.890908	-0.164664
12731		-0.012799	0.175863	-0.984331	0.906374	0.417775	0.062856	0.422283	-0.891367	-0.164744
12732		-0.011803	0.176291	-0.984267	0.906878	0.416547	0.063732	0.421229	-0.891858	-0.164791
12733		-0.010882	0.176826	-0.984182	0.907422	0.415230	0.064570	0.420080	-0.892366	-0.164974
12734		-0.009933	0.177208	-0.984123	0.907963	0.413920	0.065369	0.418933	-0.892898	-0.165010
12735		-0.008934	0.177500	-0.984080	0.908477	0.412662	0.066184	0.417840	-0.893423	-0.164942
12736		-0.007969	0.177899	-0.984017	0.908881	0.411628	0.067057	0.416979	-0.893820	-0.164969
12737		-0.007113	0.178492	-0.983916	0.909147	0.410892	0.067967	0.416415	-0.894041	-0.165198
12738		-0.006300	0.179144	-0.983803	0.909225	0.410558	0.068937	0.416258	-0.894064	-0.165468
12739		-0.005505	0.179676	-0.983710	0.909188	0.410479	0.069886	0.416349	-0.893993	-0.165619
12740		-0.004716	0.179928	-0.983668	0.909105	0.410518	0.070731	0.416540	-0.893924	-0.165510
12741		-0.004105	0.180258	-0.983611	0.909039	0.410542	0.071442	0.416691	-0.893847	-0.165547
12742		-0.003750	0.180706	-0.983530	0.908849	0.410861	0.072022	0.417109	-0.893610	-0.165775
12743		-0.003453	0.180869	-0.983501	0.908573	0.411392	0.072467	0.417712	-0.893332	-0.165753
12744		-0.003234	0.180828	-0.983509	0.908254	0.412042	0.072771	0.418406	-0.893041	-0.165571
12745		-0.003250	0.180779	-0.983518	0.907989	0.412614	0.072841	0.418982	-0.892787	-0.165486
12746		-0.003490	0.180688	-0.983534	0.907840	0.412976	0.072647	0.419303	-0.892638	-0.165477
12747		-0.004122	0.180726	-0.983525	0.907702	0.413365	0.072153	0.419595	-0.892450	-0.165749
12748		-0.004993	0.180826	-0.983502	0.907589	0.413734	0.071461	0.419831	-0.892259	-0.166181
12749		-0.006092	0.180674	-0.983524	0.907626	0.413835	0.070400	0.419737	-0.892243	-0.166505
12750		-0.007428	0.180328	-0.983578	0.907736	0.413827	0.069015	0.419476	-0.892317	-0.166764
12751		-0.008910	0.179914	-0.983642	0.907862	0.413806	0.067464	0.419175	-0.892410	-0.167024
12752		-0.010509	0.179558	-0.983691	0.907909	0.413961	0.065863	0.419036	-0.892410	-0.167372
12753		-0.012249	0.179473	-0.983687	0.907790	0.414465	0.064315	0.419247	-0.892193	-0.168001
12754		-0.013934	0.179183	-0.983717	0.907354	0.415641	0.062856	0.420136	-0.891704	-0.168374
12755		-0.015611	0.178701	-0.983780	0.906572	0.417552	0.061462	0.421762	-0.890908	-0.168524
12756		-0.017337	0.178383	-0.983808	0.905585	0.419876	0.060173	0.423811	-0.889879	-0.168820
12757		-0.019110	0.178422	-0.983768	0.904620	0.422118	0.058986	0.425791	-0.888809	-0.169471
12758		-0.020784	0.178613	-0.983700	0.904005	0.423595	0.057813	0.427016	-0.888068	-0.170271
12759		-0.022137	0.178652	-0.983663	0.903785	0.424214	0.056706	0.427414	-0.887765	-0.170854
12760		-0.023208	0.178618	-0.983645	0.903736	0.424444	0.055751	0.427460	-0.887662	-0.171274
12761		-0.023986	0.178554	-0.983638	0.903513	0.425001	0.055116	0.427889	-0.887408	-0.171520
12762		-0.024519	0.178508	-0.983633	0.903018	0.426091	0.054817	0.428903	-0.886894	-0.171643
12763		-0.024817	0.178642	-0.983601	0.902410	0.427373	0.054851	0.430163	-0.886250	-0.171814
12764		-0.025016	0.178973	-0.983536	0.901938	0.428348	0.055006	0.431141	-0.885712	-0.172138
12765		-0.025034	0.179358	-0.983465	0.901741	0.428733	0.055235	0.431550	-0.885449	-0.172468
12766		-0.024778	0.179608	-0.983426	0.901833	0.428501	0.055537	0.431374	-0.885510	-0.172594
12767		-0.024311	0.179821	-0.983399	0.902072	0.427943	0.055952	0.430900	-0.885736	-0.172615
12768		-0.023767	0.179971	-0.983385	0.902326	0.427347	0.056402	0.430398	-0.885994	-0.172550
12769		-0.023179	0.180074	-0.983380	0.902621	0.426665	0.056855	0.429812	-0.886301	-0.172429
12770		-0.022751	0.180465	-0.983318	0.902848	0.426123	0.057316	0.429358	-0.886483	-0.172627
12771		-0.022532	0.181120	-0.983203	0.902978	0.425790	0.057743	0.429096	-0.886509	-0.173141
12772		-0.022325	0.181629	-0.983114	0.903107	0.425468	0.058097	0.428836	-0.886560	-0.173528
12773		-0.022200	0.182095	-0.983030	0.903252	0.425124	0.058351	0.428535	-0.886629	-0.173915
12774		-0.022062	0.182397	-0.982977	0.903496	0.424584	0.058506	0.428028	-0.886826	-0.174162
12775		-0.021883	0.182500	-0.982962	0.903879	0.423761	0.058554	0.427227	-0.887198	-0.174231
12776		-0.021684	0.182510	-0.982965	0.904204	0.423062	0.058604	0.426551	-0.887530	-0.174200
12777		-0.021587	0.182770	-0.982919	0.904326	0.422779	0.058753	0.426295	-0.887611	-0.174410
12778		-0.021644	0.183327	-0.982814	0.904352	0.422699	0.058931	0.426238	-0.887534	-0.174941
12779		-0.021588	0.183829	-0.982721	0.904430	0.422499	0.059165	0.426075	-0.887526	-0.175381
12780		-0.021391	0.184204	-0.982655	0.904510	0.422285	0.059469	0.425915	-0.887550	-0.175647
12781		-0.021129	0.184598	-0.982587	0.904567	0.422110	0.059850	0.425808	-0.887551	-0.175900
12782		-0.020796	0.185163	-0.982488	0.904683	0.421791	0.060343	0.425577	-0.887585	-0.176285
12783		-0.020409	0.185757	-0.982384	0.904865	0.421324	0.060868	0.425208	-0.887683	-0.176684
12784		-0.019968	0.186382	-0.982274	0.905084	0.420770	0.061440	0.424763	-0.887814	-0.177094
12785		-0.019502	0.186948	-0.982176	0.905420	0.419971	0.061959	0.424068	-0.888074	-0.177457
12786		-0.019062	0.187468	-0.982086	0.905783	0.419118	0.062424	0.423312	-0.888367	-0.177794
12787		-0.018592	0.187937	-0.982005	0.906144	0.418268	0.062892	0.422561	-0.888668	-0.178075
12788		-0.018162	0.188481	-0.981909	0.906526	0.417370	0.063348	0.421759	-0.888975	-0.178444
12789		-0.017825	0.189035	-0.981809	0.907006	0.416275	0.063681	0.420740	-0.889371	-0.178876
12790		-0.017513	0.189494	-0.981726	0.907464	0.415234	0.063961	0.419766	-0.889760	-0.179231
12791		-0.017151	0.189791	-0.981675	0.907891	0.414256	0.064227	0.418855	-0.890152	-0.179414
12792		-0.016804	0.189995	-0.981641	0.908329	0.413263	0.064437	0.417918	-0.890571	-0.179522
12793		-0.016505	0.190371	-0.981573	0.908777	0.412241	0.064671	0.416956	-0.890964	-0.179809
12794		-0.016198	0.190781	-0.981499	0.909164	0.411342	0.064951	0.416123	-0.891292	-0.180114
12795		-0.015883	0.191275	-0.981408	0.909548	0.410441	0.065275	0.415295	-0.891601	-0.180493
12796		-0.015709	0.191839	-0.981301	0.909987	0.409434	0.065475	0.414338	-0.891943	-0.181003
12797		-0.015472	0.192345	-0.981205	0.910479	0.408306	0.065684	0.413266	-0.892351	-0.181443
12798		-0.015154	0.192665	-0.981148	0.910959	0.407201	0.065891	0.412219	-0.892786	-0.181681
12799		-0.014873	0.193063	-0.981074	0.911400	0.406175	0.066114	0.411252	-0.893168	-0.181999
12800		-0.014674	0.193481	-0.980994	0.911710	0.405445	0.066328	0.410573	-0.893409	-0.182348
12801		-0.014542	0.193965	-0.980901	0.911935	0.404902	0.066547	0.410077	-0.893550	-0.182771
12802		-0.014681	0.194780	-0.980737	0.912038	0.404644	0.066712	0.409843	-0.893490	-0.183587
12803		-0.014776	0.195405	-0.980611	0.912052	0.404585	0.066879	0.409809	-0.893380	-0.184197
12804		-0.014839	0.195643	-0.980563	0.912119	0.404432	0.066889	0.409658	-0.893397	-0.184451
12805		-0.014919	0.195824	-0.980526	0.912155	0.404352	0.066876	0.409573	-0.893394	-0.184655
12806		-0.014879	0.195950	-0.980501	0.912223	0.404190	0.066933	0.409425	-0.893439	-0.184763
12807		-0.014798	0.196164	-0.980459	0.912471	0.403622	0.066982	0.408874	-0.893649	-0.184967
12808		-0.014756	0.196656	-0.980361	0.912857	0.402736	0.067047	0.408012	-0.893941	-0.185462
12809		-0.014595	0.197108	-0.980273	0.913336	0.401630	0.067160	0.406944	-0.894339	-0.185888
12810		-0.014292	0.197499	-0.980199	0.913849	0.400429	0.067357	0.405803	-0.894791	-0.186207
12811		-0.014013	0.198131	-0.980075	0.914227	0.399508	0.067693	0.404960	-0.895063	-0.186735
12812		-0.013833	0.198888	-0.979925	0.914440	0.398956	0.068064	0.404484	-0.895141	-0.187390
12813		-0.013576	0.199546	-0.979794	0.914701	0.398293	0.068443	0.403903	-0.895290	-0.187932
12814		-0.013320	0.200096	-0.979686	0.914908	0.397756	0.068800	0.403442	-0.895406	-0.188367
12815		-0.013136	0.200825	-0.979539	0.914951	0.397581	0.069242	0.403352	-0.895321	-0.188967
12816		-0.013042	0.201461	-0.979410	0.914816	0.397820	0.069648	0.403660	-0.895071	-0.189489
12817		-0.013053	0.202086	-0.979281	0.914576	0.398310	0.070005	0.404204	-0.894713	-0.190022
12818		-0.013223	0.202661	-0.979160	0.914191	0.399146	0.070267	0.405068	-0.894210	-0.190549
12819		-0.013484	0.203136	-0.979058	0.913717	0.400197	0.070449	0.406127	-0.893632	-0.191005
12820		-0.013898	0.203485	-0.978979	0.913302	0.401150	0.070415	0.407046	-0.893125	-0.191418
12821		-0.014351	0.203520	-0.978966	0.913017	0.401844	0.070156	0.407670	-0.892805	-0.191584
12822		-0.014910	0.203485	-0.978965	0.912763	0.402488	0.069759	0.408216	-0.892523	-0.191735
12823		-0.015609	0.203485	-0.978954	0.912485	0.403206	0.069262	0.408813	-0.892199	-0.191971
12824		-0.016469	0.203544	-0.978927	0.912078	0.404221	0.068703	0.409687	-0.891726	-0.192305
12825		-0.017517	0.203757	-0.978865	0.911723	0.405136	0.068016	0.410432	-0.891262	-0.192867
12826		-0.018746	0.203947	-0.978802	0.911455	0.405888	0.067116	0.410972	-0.890876	-0.193498
12827		-0.019920	0.203889	-0.978791	0.911207	0.406603	0.066153	0.411468	-0.890563	-0.193885
12828		-0.021236	0.203892	-0.978763	0.910801	0.407671	0.065163	0.412300	-0.890074	-0.194363
12829		-0.022610	0.204032	-0.978703	0.910244	0.409056	0.064248	0.413453	-0.889406	-0.194968
12830		-0.024115	0.204267	-0.978618	0.909564	0.410713	0.063315	0.414865	-0.888588	-0.195699
12831		-0.025845	0.204875	-0.978447	0.908823	0.412494	0.062365	0.416381	-0.887623	-0.196856
12832		-0.027755	0.205493	-0.978265	0.908287	0.413853	0.061164	0.417426	-0.886847	-0.198133
12833		-0.029472	0.205749	-0.978161	0.908075	0.414511	0.059829	0.417768	-0.886481	-0.199052
12834		-0.031156	0.205863	-0.978085	0.907867	0.415163	0.058463	0.418100	-0.886149	-0.199831
12835		-0.032761	0.206029	-0.977997	0.907764	0.415573	0.057138	0.418201	-0.885919	-0.200640
12836		-0.034327	0.206087	-0.977931	0.907598	0.416111	0.055832	0.418435	-0.885652	-0.201328
12837		-0.035812	0.206170	-0.977861	0.907431	0.416636	0.054610	0.418671	-0.885386	-0.202006
12838		-0.037366	0.206422	-0.977749	0.907278	0.417129	0.053391	0.418869	-0.885095	-0.202868
12839		-0.038931	0.206826	-0.977603	0.907068	0.417728	0.052255	0.419180	-0.884718	-0.203868
12840		-0.040528	0.207291	-0.977440	0.906691	0.418678	0.051196	0.419845	-0.884160	-0.204917
12841		-0.042009	0.207630	-0.977305	0.906245	0.419759	0.050224	0.420661	-0.883568	-0.205798
12842		-0.043452	0.207948	-0.977174	0.905836	0.420755	0.049259	0.421394	-0.883019	-0.206650
12843		-0.044871	0.208448	-0.977004	0.905544	0.421490	0.048338	0.421873	-0.882551	-0.207671
12844		-0.046257	0.208873	-0.976848	0.905284	0.422154	0.047397	0.422280	-0.882133	-0.208617
12845		-0.047507	0.209247	-0.976708	0.905124	0.422596	0.046511	0.422485	-0.881832	-0.209471
12846		-0.048758	0.209541	-0.976583	0.904996	0.422972	0.045571	0.422617	-0.881582	-0.210257
12847		-0.049974	0.209969	-0.976430	0.905175	0.422697	0.044568	0.422092	-0.881613	-0.211182
12848		-0.051215	0.210394	-0.976274	0.905306	0.422519	0.043564	0.421660	-0.881596	-0.212111
12849		-0.052406	0.210758	-0.976132	0.905466	0.422280	0.042563	0.421171	-0.881624	-0.212964
12850		-0.053715	0.211102	-0.975987	0.905555	0.422197	0.041480	0.420815	-0.881582	-0.213843
12851		-0.055125	0.211523	-0.975817	0.905525	0.422366	0.040400	0.420698	-0.881400	-0.214822
12852		-0.056758	0.211889	-0.975644	0.905378	0.422798	0.039152	0.420796	-0.881104	-0.215837
12853		-0.058520	0.212348	-0.975440	0.905299	0.423090	0.037792	0.420724	-0.880854	-0.216997
12854		-0.060438	0.212672	-0.975253	0.905251	0.423331	0.036216	0.420557	-0.880660	-0.218107
12855		-0.062183	0.212581	-0.975163	0.905392	0.423171	0.034515	0.419998	-0.880758	-0.218783
12856		-0.063813	0.212102	-0.975162	0.905344	0.423407	0.032849	0.419858	-0.880761	-0.219044
12857		-0.065457	0.212014	-0.975072	0.905093	0.424049	0.031444	0.420145	-0.880473	-0.219650
12858		-0.067318	0.212491	-0.974841	0.904559	0.425274	0.030234	0.420999	-0.879767	-0.220840
12859		-0.069044	0.212925	-0.974626	0.904130	0.426267	0.029076	0.421642	-0.879181	-0.221943
12860		-0.070786	0.213322	-0.974414	0.903561	0.427547	0.027961	0.422572	-0.878463	-0.223014
12861		-0.072576	0.213984	-0.974137	0.902705	0.429407	0.027072	0.424094	-0.877394	-0.224329
12862		-0.074444	0.215049	-0.973762	0.901287	0.432407	0.026591	0.426779	-0.875659	-0.226010
12863		-0.076346	0.216437	-0.973307	0.899607	0.435903	0.026368	0.429974	-0.873581	-0.227988
12864		-0.078244	0.217608	-0.972895	0.897761	0.439706	0.026148	0.433478	-0.871381	-0.229764
12865		-0.080044	0.218590	-0.972528	0.895971	0.443356	0.025908	0.436840	-0.869283	-0.231338
12866		-0.081925	0.219440	-0.972180	0.894391	0.446563	0.025428	0.439720	-0.867426	-0.232849
12867		-0.083800	0.220359	-0.971813	0.893139	0.449096	0.024817	0.441906	-0.865884	-0.234445
12868		-0.085861	0.221218	-0.971437	0.891783	0.451822	0.024070	0.444242	-0.864245	-0.236072
12869		-0.087761	0.221787	-0.971138	0.891090	0.453244	0.022984	0.445260	-0.863354	-0.237409
12870		-0.089698	0.222039	-0.970903	0.890631	0.454213	0.021593	0.445791	-0.862780	-0.238497
12871		-0.091484	0.222187	-0.970703	0.890345	0.454838	0.020199	0.446001	-0.862412	-0.239433
12872		-0.093171	0.221601	-0.970676	0.890181	0.455233	0.018483	0.445979	-0.862355	-0.239679
12873		-0.094754	0.220431	-0.970789	0.890381	0.454921	0.016390	0.445246	-0.862819	-0.239373
12874		-0.096493	0.219158	-0.970906	0.890812	0.454156	0.013982	0.444007	-0.863546	-0.239051
12875		-0.098079	0.218019	-0.971004	0.891936	0.452017	0.011399	0.441396	-0.864956	-0.238792
12876		-0.099639	0.216859	-0.971105	0.892950	0.450068	0.008885	0.438990	-0.866263	-0.238488
12877		-0.101006	0.216085	-0.971136	0.893320	0.449365	0.007074	0.437923	-0.866821	-0.238422
12878		-0.102332	0.215901	-0.971038	0.893117	0.449787	0.005885	0.438031	-0.866648	-0.238852
12879		-0.103264	0.216061	-0.970904	0.892959	0.450107	0.005191	0.438132	-0.866442	-0.239414
12880		-0.103830	0.216385	-0.970771	0.892432	0.451154	0.005111	0.439073	-0.865816	-0.239953
12881		-0.103994	0.217155	-0.970582	0.892033	0.451936	0.005537	0.439843	-0.865215	-0.240708
12882		-0.103907	0.217600	-0.970491	0.891707	0.452573	0.006003	0.440524	-0.864770	-0.241061
12883		-0.103225	0.217638	-0.970556	0.891835	0.452313	0.006574	0.440426	-0.864897	-0.240787
12884		-0.102431	0.217575	-0.970654	0.891921	0.452133	0.007224	0.440436	-0.865007	-0.240372
12885		-0.101348	0.217507	-0.970783	0.892543	0.450894	0.007844	0.439427	-0.865670	-0.239831
12886		-0.100237	0.217250	-0.970956	0.893428	0.449130	0.008259	0.437879	-0.866651	-0.239117
12887		-0.099132	0.217064	-0.971111	0.894629	0.446728	0.008528	0.435673	-0.867939	-0.238477
12888		-0.098467	0.216915	-0.971212	0.895831	0.444316	0.008411	0.433349	-0.869213	-0.238070
12889		-0.097957	0.216893	-0.971268	0.897371	0.441204	0.008021	0.430267	-0.870802	-0.237853
12890		-0.097961	0.217236	-0.971191	0.898852	0.438191	0.007351	0.427164	-0.872237	-0.238189
12891		-0.098045	0.217772	-0.971063	0.900545	0.434714	0.006564	0.423564	-0.873842	-0.238735
12892		-0.098496	0.218198	-0.970921	0.901806	0.432106	0.005624	0.420768	-0.875028	-0.239332
12893		-0.099082	0.218687	-0.970752	0.902786	0.430063	0.004737	0.418521	-0.875912	-0.240039
12894		-0.100033	0.218564	-0.970682	0.903467	0.428643	0.003409	0.416821	-0.876638	-0.240344
12895		-0.101078	0.217694	-0.970769	0.905096	0.425205	0.001112	0.413018	-0.878527	-0.240013
12896		-0.102659	0.216450	-0.970881	0.907436	0.420184	-0.002274	0.407456	-0.881246	-0.239550
12897		-0.104716	0.215290	-0.970920	0.910270	0.413967	-0.006383	0.400554	-0.884467	-0.239320
12898		-0.107322	0.213916	-0.970939	0.913185	0.407393	-0.011182	0.393161	-0.887846	-0.239067
12899		-0.110036	0.212688	-0.970905	0.916706	0.399225	-0.016438	0.384114	-0.891843	-0.238901
12900		-0.112971	0.211494	-0.970829	0.920320	0.390547	-0.022014	0.374498	-0.895960	-0.238762
12901		-0.115616	0.210368	-0.970762	0.924039	0.381313	-0.027419	0.364396	-0.900192	-0.238474
12902		-0.118235	0.209511	-0.970632	0.927182	0.373208	-0.032386	0.355462	-0.903782	-0.238381
12903		-0.120651	0.209244	-0.970392	0.929944	0.365861	-0.036732	0.347343	-0.906842	-0.238727
12904		-0.123153	0.209405	-0.970043	0.931552	0.361374	-0.040256	0.342118	-0.908602	-0.239576
12905		-0.125355	0.209861	-0.969662	0.932671	0.358149	-0.043059	0.338247	-0.909773	-0.240627
12906		-0.127662	0.210169	-0.969294	0.933348	0.356050	-0.045726	0.335507	-0.910526	-0.241615
12907		-0.129825	0.210469	-0.968942	0.934240	0.353342	-0.048424	0.332176	-0.911511	-0.242501
12908		-0.132053	0.210468	-0.968641	0.934808	0.351462	-0.051074	0.329691	-0.912238	-0.243159
12909		-0.133876	0.210461	-0.968392	0.935563	0.349089	-0.053469	0.326802	-0.913150	-0.243634
12910		-0.135488	0.210351	-0.968192	0.936026	0.347530	-0.055482	0.324805	-0.913770	-0.243980
12911		-0.136497	0.210147	-0.968094	0.936470	0.346099	-0.056910	0.323098	-0.914360	-0.244038
12912		-0.137291	0.209848	-0.968047	0.936700	0.345296	-0.057994	0.322093	-0.914732	-0.243971
12913		-0.137799	0.210076	-0.967925	0.937144	0.343959	-0.058765	0.320581	-0.915183	-0.244269
12914		-0.138187	0.210431	-0.967793	0.937371	0.343265	-0.059206	0.319751	-0.915362	-0.244686
12915		-0.138149	0.211010	-0.967672	0.937740	0.342249	-0.059245	0.318683	-0.915609	-0.245154
12916		-0.138268	0.211625	-0.967521	0.937805	0.342077	-0.059199	0.318438	-0.915532	-0.245762
12917		-0.138249	0.212450	-0.967343	0.938007	0.341549	-0.059045	0.317851	-0.915538	-0.246499
12918		-0.138484	0.213119	-0.967162	0.937965	0.341672	-0.059014	0.317875	-0.915336	-0.247214
12919		-0.138578	0.213659	-0.967029	0.938067	0.341394	-0.058999	0.317532	-0.915314	-0.247736
12920		-0.138948	0.214084	-0.966882	0.937854	0.341967	-0.059059	0.317998	-0.915001	-0.248295
12921		-0.139217	0.214494	-0.966753	0.937726	0.342314	-0.059088	0.318259	-0.914775	-0.248793
12922		-0.139635	0.214470	-0.966698	0.937556	0.342727	-0.059388	0.318577	-0.914626	-0.248935
12923		-0.140000	0.214563	-0.966624	0.937552	0.342680	-0.059725	0.318428	-0.914622	-0.249139
12924		-0.140558	0.214543	-0.966548	0.937239	0.343478	-0.060054	0.319104	-0.914327	-0.249356
12925		-0.141025	0.214627	-0.966461	0.936808	0.344632	-0.060164	0.320160	-0.913873	-0.249666
12926		-0.141652	0.214758	-0.966340	0.936082	0.346593	-0.060191	0.322000	-0.913100	-0.250127
12927		-0.142078	0.215047	-0.966214	0.935157	0.349149	-0.059802	0.324492	-0.912058	-0.250709
12928		-0.142674	0.215226	-0.966086	0.933838	0.352743	-0.059327	0.328011	-0.910632	-0.251314
12929		-0.143199	0.215783	-0.965884	0.932633	0.356014	-0.058734	0.331194	-0.909226	-0.252227
12930		-0.143939	0.216234	-0.965673	0.931117	0.360054	-0.058165	0.335117	-0.907526	-0.253165
12931		-0.144570	0.216774	-0.965458	0.929719	0.363747	-0.057546	0.338708	-0.905924	-0.254125
12932		-0.145311	0.217038	-0.965287	0.928268	0.367501	-0.057108	0.342350	-0.904344	-0.254872
12933		-0.145966	0.217466	-0.965092	0.926926	0.370951	-0.056607	0.345692	-0.902831	-0.255721
12934		-0.146778	0.217647	-0.964928	0.925356	0.374910	-0.056195	0.349530	-0.901150	-0.256430
12935		-0.147372	0.217688	-0.964828	0.923915	0.378518	-0.055720	0.353076	-0.899631	-0.256908
12936		-0.148315	0.217319	-0.964767	0.921957	0.383311	-0.055391	0.357768	-0.897689	-0.257210
12937		-0.148977	0.216536	-0.964841	0.919884	0.388330	-0.054884	0.362793	-0.895719	-0.257041
12938		-0.149772	0.215312	-0.964992	0.917922	0.392961	-0.054788	0.367407	-0.893992	-0.256494
12939		-0.150256	0.214206	-0.965163	0.916559	0.396130	-0.054773	0.370597	-0.892859	-0.255853
12940		-0.151053	0.213514	-0.965192	0.915154	0.399352	-0.054880	0.373734	-0.891588	-0.255721
12941		-0.151719	0.213476	-0.965095	0.913335	0.403570	-0.054314	0.377889	-0.889696	-0.256205
12942		-0.152693	0.213828	-0.964864	0.911030	0.408845	-0.053567	0.383026	-0.887200	-0.257231
12943		-0.153343	0.214676	-0.964573	0.909075	0.413306	-0.052535	0.387386	-0.884925	-0.258534
12944		-0.154075	0.215371	-0.964301	0.907084	0.417772	-0.051626	0.391739	-0.882656	-0.259728
12945		-0.154515	0.216029	-0.964083	0.905923	0.420360	-0.051000	0.394245	-0.881265	-0.260657
12946		-0.155169	0.215979	-0.963989	0.904943	0.422464	-0.051013	0.396233	-0.880271	-0.261002
12947		-0.155393	0.215582	-0.964042	0.904692	0.422973	-0.051240	0.396717	-0.880124	-0.260762
12948		-0.155950	0.214653	-0.964160	0.904283	0.423764	-0.051922	0.397431	-0.879970	-0.260193
12949		-0.156115	0.213824	-0.964317	0.904581	0.423040	-0.052641	0.396689	-0.880521	-0.259464
12950		-0.156640	0.213079	-0.964397	0.904795	0.422459	-0.053619	0.395993	-0.880980	-0.258966
12951		-0.157019	0.213007	-0.964351	0.905499	0.420836	-0.054481	0.394228	-0.881774	-0.258957
12952		-0.157942	0.213385	-0.964117	0.905495	0.420750	-0.055215	0.393870	-0.881724	-0.259673
12953		-0.158527	0.214254	-0.963828	0.905665	0.420342	-0.055521	0.393242	-0.881707	-0.260679
12954		-0.159228	0.215195	-0.963503	0.905246	0.421246	-0.055516	0.393925	-0.881046	-0.261879
12955		-0.159523	0.216138	-0.963243	0.905020	0.421766	-0.055242	0.394323	-0.880567	-0.262891
12956		-0.159764	0.216543	-0.963112	0.904701	0.422470	-0.055088	0.394957	-0.880130	-0.263402
12957		-0.159763	0.216828	-0.963048	0.904874	0.422102	-0.055078	0.394562	-0.880236	-0.263638
12958		-0.160146	0.216783	-0.962995	0.904968	0.421839	-0.055535	0.394190	-0.880373	-0.263737
12959		-0.160514	0.216932	-0.962900	0.905404	0.420825	-0.056121	0.393038	-0.880822	-0.263959
12960		-0.161583	0.216853	-0.962739	0.905449	0.420580	-0.057234	0.392497	-0.880958	-0.264308
12961		-0.162747	0.217100	-0.962487	0.905970	0.419264	-0.058620	0.390810	-0.881524	-0.264920
12962		-0.164502	0.217408	-0.962119	0.906143	0.418647	-0.060330	0.389672	-0.881742	-0.265871
12963		-0.166118	0.217952	-0.961718	0.906704	0.417174	-0.062072	0.387675	-0.882305	-0.266919
12964		-0.167521	0.218111	-0.961439	0.906936	0.416447	-0.063550	0.386528	-0.882609	-0.267576
12965		-0.168164	0.218132	-0.961322	0.907101	0.415973	-0.064292	0.385860	-0.882828	-0.267819
12966		-0.168696	0.217771	-0.961310	0.906829	0.416491	-0.064785	0.386269	-0.882673	-0.267742
12967		-0.168908	0.217515	-0.961331	0.906693	0.416750	-0.065012	0.386494	-0.882613	-0.267612
12968		-0.169541	0.217000	-0.961336	0.905933	0.418350	-0.065337	0.387997	-0.881983	-0.267515
12969		-0.170131	0.216421	-0.961362	0.905111	0.420082	-0.065608	0.389652	-0.881302	-0.267354
12970		-0.171330	0.215801	-0.961289	0.903765	0.422888	-0.066143	0.392244	-0.880111	-0.267487
12971		-0.172575	0.215428	-0.961150	0.902761	0.424915	-0.066852	0.394005	-0.879226	-0.267810
12972		-0.174224	0.214988	-0.960951	0.901611	0.427186	-0.067893	0.395908	-0.878232	-0.268262
12973		-0.175714	0.214987	-0.960680	0.900916	0.428490	-0.068892	0.396831	-0.877597	-0.268977
12974		-0.177578	0.215213	-0.960286	0.899727	0.430831	-0.069824	0.398694	-0.876395	-0.270139
12975		-0.179243	0.215865	-0.959830	0.898982	0.432246	-0.070668	0.399628	-0.875537	-0.271536
12976		-0.180860	0.216093	-0.959476	0.898401	0.433273	-0.071765	0.400207	-0.874973	-0.272500
12977		-0.181952	0.216088	-0.959270	0.898273	0.433373	-0.072759	0.400000	-0.874925	-0.272959
12978		-0.182971	0.215714	-0.959161	0.898135	0.433476	-0.073841	0.399844	-0.874966	-0.273054
12979		-0.183549	0.214952	-0.959221	0.898498	0.432522	-0.075005	0.398762	-0.875625	-0.272523
12980		-0.184280	0.213666	-0.959368	0.898339	0.432643	-0.076201	0.398783	-0.875881	-0.271672
12981		-0.184914	0.212375	-0.959533	0.898181	0.432777	-0.077303	0.398846	-0.876129	-0.270777
12982		-0.185905	0.210808	-0.959687	0.897484	0.434002	-0.078521	0.399953	-0.875901	-0.269880
12983		-0.186875	0.209321	-0.959824	0.896930	0.434915	-0.079782	0.400742	-0.875804	-0.269021
12984		-0.188333	0.207853	-0.959858	0.896159	0.436207	-0.081376	0.401783	-0.875512	-0.268422
12985		-0.190112	0.207113	-0.959668	0.895855	0.436474	-0.083272	0.401623	-0.875554	-0.268522
12986		-0.192363	0.206618	-0.959326	0.895470	0.436838	-0.085473	0.401410	-0.875489	-0.269052
12987		-0.194088	0.206165	-0.959076	0.895841	0.435645	-0.087644	0.399748	-0.876190	-0.269245
12988		-0.195561	0.205588	-0.958900	0.896335	0.434207	-0.089707	0.397919	-0.877039	-0.269190
12989		-0.196337	0.205032	-0.958861	0.897345	0.431758	-0.091418	0.395252	-0.878377	-0.268754
12990		-0.196693	0.203932	-0.959022	0.898165	0.429747	-0.092827	0.393207	-0.879619	-0.267692
12991		-0.196522	0.202672	-0.959324	0.899213	0.427308	-0.093933	0.390889	-0.881097	-0.266220
12992		-0.196557	0.200978	-0.959673	0.899885	0.425614	-0.095178	0.389322	-0.882304	-0.264515
12993		-0.196728	0.199494	-0.959948	0.900551	0.423914	-0.096459	0.387692	-0.883459	-0.263050
12994		-0.197594	0.198079	-0.960063	0.900162	0.424458	-0.097692	0.388156	-0.883516	-0.262174
12995		-0.198770	0.196658	-0.960113	0.899343	0.425900	-0.098953	0.389452	-0.883139	-0.261519
12996		-0.200424	0.195035	-0.960100	0.898113	0.428124	-0.100515	0.391438	-0.882424	-0.260969
12997		-0.202174	0.193360	-0.960072	0.896743	0.430611	-0.102112	0.393673	-0.881582	-0.260452
12998		-0.203752	0.190764	-0.960257	0.894552	0.434832	-0.103427	0.397820	-0.880074	-0.259246
12999		-0.205338	0.187865	-0.960491	0.891753	0.440285	-0.104527	0.403253	-0.877984	-0.257936
13000		-0.207311	0.184934	-0.960636	0.888393	0.446745	-0.105716	0.409609	-0.875339	-0.256910
13001		-0.209694	0.181989	-0.960681	0.884772	0.453525	-0.107210	0.416182	-0.872465	-0.256120
13002		-0.212877	0.178847	-0.960571	0.880671	0.460936	-0.109349	0.423205	-0.869225	-0.255628
13003		-0.216685	0.175947	-0.960255	0.876547	0.468097	-0.112027	0.429782	-0.865984	-0.255655
13004		-0.221040	0.173357	-0.959734	0.872177	0.475483	-0.114988	0.436404	-0.862475	-0.256299
13005		-0.225570	0.170967	-0.959108	0.867447	0.483372	-0.117849	0.443457	-0.858558	-0.257339
13006		-0.229898	0.168401	-0.958534	0.862203	0.492060	-0.120345	0.451390	-0.854118	-0.258320
13007		-0.233829	0.165540	-0.958082	0.856631	0.501182	-0.122473	0.459899	-0.849360	-0.258998
13008		-0.237480	0.162625	-0.957683	0.851054	0.510125	-0.124414	0.468305	-0.844586	-0.259547
13009		-0.240934	0.159708	-0.957311	0.845705	0.518478	-0.126348	0.476166	-0.840044	-0.259985
13010		-0.244289	0.156623	-0.956970	0.839951	0.527322	-0.128113	0.484566	-0.835105	-0.260375
13011		-0.247224	0.153389	-0.956740	0.833561	0.537086	-0.129286	0.494021	-0.829464	-0.260639
13012		-0.249455	0.149990	-0.956700	0.826870	0.547206	-0.129812	0.504042	-0.823449	-0.260525
13013		-0.251350	0.147027	-0.956664	0.819835	0.557720	-0.129686	0.514483	-0.816904	-0.260721
13014		-0.253224	0.144515	-0.956553	0.812877	0.567880	-0.129395	0.524507	-0.810326	-0.261274
13015		-0.254955	0.142219	-0.956437	0.806385	0.577119	-0.129140	0.533611	-0.804182	-0.261822
13016		-0.256878	0.140212	-0.956219	0.800337	0.585475	-0.129153	0.541733	-0.798473	-0.262613
13017		-0.258863	0.138590	-0.955920	0.794386	0.593542	-0.129067	0.549491	-0.792780	-0.263741
13018		-0.260619	0.137346	-0.955622	0.789267	0.600354	-0.128965	0.555999	-0.787852	-0.264866
13019		-0.262173	0.136623	-0.955301	0.785418	0.605379	-0.128972	0.560699	-0.784124	-0.266020
13020		-0.263751	0.136167	-0.954931	0.782104	0.609631	-0.129087	0.564579	-0.780902	-0.267287
13021		-0.264850	0.135738	-0.954688	0.779062	0.613555	-0.128892	0.568258	-0.777898	-0.268249
13022		-0.265629	0.135164	-0.954553	0.776239	0.617179	-0.128616	0.571746	-0.775126	-0.268860
13023		-0.266183	0.134578	-0.954482	0.773196	0.621104	-0.128053	0.575600	-0.772087	-0.269382
13024		-0.266724	0.133927	-0.954422	0.770107	0.625042	-0.127508	0.579477	-0.769016	-0.269852
13025		-0.267195	0.133213	-0.954390	0.766897	0.629100	-0.126894	0.583503	-0.765825	-0.270253
13026		-0.268082	0.132551	-0.954234	0.763572	0.633198	-0.126562	0.587443	-0.762555	-0.270961
13027		-0.269071	0.132206	-0.954003	0.760445	0.637022	-0.126200	0.591037	-0.759424	-0.271939
13028		-0.270253	0.131730	-0.953735	0.757089	0.641048	-0.125990	0.594793	-0.756112	-0.272977
13029		-0.271079	0.130991	-0.953602	0.754210	0.644456	-0.125873	0.598066	-0.753338	-0.273493
13030		-0.271669	0.130142	-0.953551	0.751582	0.647542	-0.125750	0.601099	-0.750834	-0.273730
13031		-0.271985	0.129200	-0.953589	0.748409	0.651309	-0.125218	0.604903	-0.747732	-0.273841
13032		-0.272233	0.128000	-0.953680	0.744439	0.655989	-0.124460	0.609672	-0.743838	-0.273870
13033		-0.272594	0.126897	-0.953724	0.739810	0.661393	-0.123451	0.615121	-0.739227	-0.274171
13034		-0.273301	0.125826	-0.953664	0.735241	0.666598	-0.122755	0.620264	-0.734721	-0.274694
13035		-0.273760	0.124627	-0.953689	0.731112	0.671233	-0.122152	0.624924	-0.730694	-0.274873
13036		-0.274222	0.123034	-0.953763	0.727197	0.675511	-0.121941	0.629274	-0.727013	-0.274710
13037		-0.274497	0.121287	-0.953908	0.723622	0.679355	-0.121852	0.633264	-0.723717	-0.274247
13038		-0.275002	0.118847	-0.954070	0.718895	0.684334	-0.121968	0.638407	-0.719418	-0.273632
13039		-0.274945	0.114895	-0.954570	0.713090	0.690322	-0.122302	0.644909	-0.714321	-0.271731
13040		-0.274633	0.109522	-0.955291	0.708058	0.695208	-0.123853	0.650561	-0.710416	-0.268475
13041		-0.274601	0.104361	-0.955878	0.705610	0.697202	-0.126586	0.653229	-0.709238	-0.265091
13042		-0.275306	0.099085	-0.956237	0.703201	0.699001	-0.130025	0.655527	-0.708223	-0.262115
13043		-0.275845	0.094288	-0.956567	0.701416	0.700185	-0.133250	0.657210	-0.707708	-0.259278
13044		-0.276541	0.090195	-0.956760	0.699893	0.701141	-0.136199	0.658539	-0.707295	-0.257021
13045		-0.276840	0.087565	-0.956918	0.700401	0.700171	-0.138558	0.657874	-0.708585	-0.255166
13046		-0.276989	0.086229	-0.956996	0.701859	0.698379	-0.140216	0.656256	-0.710515	-0.253964
13047		-0.276755	0.086466	-0.957043	0.703367	0.696815	-0.140443	0.654738	-0.712020	-0.253664
13048		-0.276690	0.087312	-0.956984	0.703854	0.696419	-0.139964	0.654242	-0.712304	-0.254147
13049		-0.276312	0.088140	-0.957018	0.705643	0.694648	-0.139759	0.652472	-0.713930	-0.254135
13050		-0.276510	0.088862	-0.956894	0.709727	0.690224	-0.140990	0.647943	-0.718118	-0.253922
13051		-0.276925	0.089664	-0.956699	0.715970	0.683286	-0.143204	0.640858	-0.724625	-0.253416
13052		-0.277806	0.089876	-0.956424	0.723169	0.674926	-0.146631	0.632337	-0.732391	-0.252494
13053		-0.278907	0.090664	-0.956029	0.732254	0.664163	-0.150639	0.621301	-0.742070	-0.251629
13054		-0.280603	0.091963	-0.955408	0.740516	0.654030	-0.154536	0.610654	-0.750858	-0.251623
13055		-0.282216	0.094278	-0.954707	0.748364	0.644294	-0.157595	0.600254	-0.758945	-0.252385
13056		-0.283468	0.097007	-0.954063	0.755435	0.635428	-0.159843	0.590732	-0.766043	-0.253406
13057		-0.284048	0.100545	-0.953524	0.762640	0.626432	-0.161131	0.581116	-0.772965	-0.254616
13058		-0.284463	0.104973	-0.952923	0.768509	0.619199	-0.161202	0.573126	-0.778186	-0.256812
13059		-0.284314	0.110023	-0.952397	0.773820	0.612809	-0.160211	0.566011	-0.782534	-0.259369
13060		-0.283958	0.115125	-0.951900	0.778554	0.607149	-0.158818	0.559662	-0.786204	-0.262036
13061		-0.283598	0.120714	-0.951315	0.783166	0.601633	-0.157128	0.553375	-0.789599	-0.265161
13062		-0.283401	0.126122	-0.950672	0.786664	0.597546	-0.155235	0.548492	-0.791853	-0.268561
13063		-0.283155	0.131225	-0.950054	0.790008	0.593578	-0.153468	0.543792	-0.794006	-0.271744
13064		-0.283236	0.135660	-0.949407	0.792048	0.591283	-0.151803	0.540775	-0.794972	-0.274922
13065		-0.283434	0.139483	-0.948794	0.793885	0.589137	-0.150548	0.537970	-0.795904	-0.277714
13066		-0.283711	0.142185	-0.948310	0.795627	0.586913	-0.150033	0.535243	-0.797067	-0.279640
13067		-0.283962	0.144173	-0.947934	0.797730	0.584023	-0.150142	0.531970	-0.798831	-0.280851
13068		-0.284206	0.145875	-0.947601	0.799018	0.582297	-0.150003	0.529904	-0.799781	-0.282049
13069		-0.284345	0.147200	-0.947354	0.799563	0.581650	-0.149609	0.529006	-0.800010	-0.283085
13070		-0.284820	0.148303	-0.947039	0.799495	0.581813	-0.149337	0.528853	-0.799687	-0.284280
13071		-0.285641	0.149922	-0.946537	0.799407	0.582005	-0.149057	0.528542	-0.799246	-0.286093
13072		-0.286918	0.151258	-0.945938	0.797883	0.584212	-0.148594	0.530152	-0.797382	-0.288307
13073		-0.288232	0.152109	-0.945402	0.795946	0.586938	-0.148232	0.532345	-0.795215	-0.290245
13074		-0.289562	0.152359	-0.944955	0.793756	0.589928	-0.148113	0.534889	-0.792952	-0.291756
13075		-0.291046	0.152789	-0.944430	0.791777	0.592575	-0.148136	0.537012	-0.790892	-0.293441
13076		-0.292750	0.152722	-0.943914	0.788904	0.596383	-0.148182	0.540303	-0.788038	-0.295074
13077		-0.294235	0.152825	-0.943435	0.786316	0.599819	-0.148070	0.543262	-0.785406	-0.296656
13078		-0.295872	0.152516	-0.942973	0.783096	0.604031	-0.148013	0.547010	-0.782231	-0.298150
13079		-0.297014	0.152193	-0.942666	0.780492	0.607432	-0.147847	0.550105	-0.779656	-0.299202
13080		-0.298258	0.151720	-0.942350	0.777574	0.611198	-0.147702	0.553553	-0.776800	-0.300268
13081		-0.299380	0.152114	-0.941930	0.775751	0.613565	-0.147477	0.555502	-0.774855	-0.301691
13082		-0.300397	0.152280	-0.941580	0.773538	0.616444	-0.147090	0.558032	-0.772533	-0.302973
13083		-0.300886	0.153126	-0.941286	0.772834	0.617444	-0.146596	0.558744	-0.771567	-0.304121
13084		-0.301442	0.154437	-0.940894	0.771727	0.619054	-0.145634	0.559973	-0.770014	-0.305792
13085		-0.301255	0.156364	-0.940636	0.771263	0.620028	-0.143942	0.560713	-0.768841	-0.307384
13086		-0.300908	0.157968	-0.940479	0.770526	0.621353	-0.142165	0.561912	-0.767442	-0.308689
13087		-0.300397	0.160172	-0.940269	0.771689	0.620199	-0.140890	0.560587	-0.767918	-0.309909
13088		-0.299584	0.162036	-0.940209	0.772970	0.618886	-0.139637	0.559256	-0.768586	-0.310657
13089		-0.298156	0.163892	-0.940342	0.775112	0.616499	-0.138317	0.557050	-0.770110	-0.310847
13090		-0.296612	0.165385	-0.940568	0.777244	0.614074	-0.137132	0.554899	-0.771726	-0.310686
13091		-0.294384	0.167020	-0.940980	0.780205	0.610626	-0.135703	0.551922	-0.774106	-0.310068
13092		-0.292180	0.168069	-0.941480	0.781766	0.609027	-0.133893	0.550883	-0.775138	-0.309336
13093		-0.289437	0.169208	-0.942122	0.783828	0.606826	-0.131818	0.549400	-0.776615	-0.308268
13094		-0.287152	0.169685	-0.942736	0.785330	0.605215	-0.130273	0.548453	-0.777767	-0.307048
13095		-0.284616	0.170448	-0.943367	0.788363	0.601496	-0.129173	0.545415	-0.780480	-0.305570
13096		-0.282543	0.171058	-0.943879	0.790906	0.598333	-0.128317	0.542804	-0.782775	-0.304346
13097		-0.280302	0.172206	-0.944339	0.795246	0.592625	-0.127979	0.537600	-0.786855	-0.303060
13098		-0.278282	0.173190	-0.944756	0.800091	0.586009	-0.128244	0.531425	-0.791579	-0.301644
13099		-0.276003	0.174449	-0.945193	0.806040	0.577688	-0.128748	0.523567	-0.797398	-0.300056
13100		-0.274042	0.175262	-0.945613	0.812078	0.568908	-0.129900	0.515200	-0.803509	-0.298231
13101		-0.271098	0.175506	-0.946416	0.820619	0.556033	-0.131951	0.503081	-0.812419	-0.294764
13102		-0.268065	0.175415	-0.947297	0.828464	0.543841	-0.133733	0.491720	-0.820650	-0.291109
13103		-0.264745	0.175940	-0.948132	0.837520	0.529303	-0.135639	0.477985	-0.829990	-0.287484
13104		-0.261692	0.176668	-0.948844	0.846201	0.514811	-0.137529	0.464178	-0.838903	-0.284218
13105		-0.258360	0.178434	-0.949427	0.854959	0.499801	-0.138721	0.449772	-0.847562	-0.281682
13106		-0.255277	0.180481	-0.949874	0.862682	0.486133	-0.139477	0.436592	-0.855045	-0.279796
13107		-0.252202	0.183266	-0.950162	0.870522	0.471776	-0.140068	0.422594	-0.862462	-0.278520
13108		-0.249343	0.185700	-0.950444	0.877130	0.459279	-0.140375	0.410451	-0.868665	-0.277401
13109		-0.246463	0.188204	-0.950702	0.883122	0.447668	-0.140321	0.399190	-0.874170	-0.276541
13110		-0.243945	0.189497	-0.951095	0.888561	0.436579	-0.140921	0.388524	-0.879483	-0.274880
13111		-0.240911	0.189196	-0.951928	0.894131	0.424739	-0.141867	0.377480	-0.885326	-0.271490
13112		-0.237871	0.187643	-0.952999	0.898409	0.415415	-0.142450	0.369161	-0.890068	-0.267395
13113		-0.234512	0.185542	-0.954242	0.902328	0.406756	-0.142664	0.361674	-0.894496	-0.262809
13114		-0.231336	0.183739	-0.955366	0.905925	0.398672	-0.142690	0.354660	-0.898499	-0.258681
13115		-0.228306	0.182819	-0.956271	0.909968	0.389306	-0.142825	0.346171	-0.902784	-0.255240
13116		-0.225501	0.182718	-0.956955	0.913957	0.379840	-0.142843	0.337390	-0.906827	-0.252650
13117		-0.222721	0.183594	-0.957439	0.918283	0.369276	-0.142802	0.327342	-0.911004	-0.250837
13118		-0.219955	0.184515	-0.957901	0.922176	0.359566	-0.142490	0.318137	-0.914695	-0.249244
13119		-0.217428	0.186576	-0.958079	0.925902	0.350080	-0.141951	0.308919	-0.917951	-0.248868
13120		-0.215166	0.189231	-0.958069	0.929098	0.341841	-0.141141	0.300799	-0.920509	-0.249367
13121		-0.213207	0.191946	-0.957966	0.932245	0.333355	-0.140689	0.292338	-0.923055	-0.250014
13122		-0.211665	0.194433	-0.957807	0.935343	0.324501	-0.140828	0.283428	-0.925686	-0.250547
13123		-0.210377	0.196577	-0.957653	0.938268	0.315729	-0.141309	0.274581	-0.928263	-0.250865
13124		-0.209304	0.198111	-0.957572	0.940988	0.307148	-0.142134	0.265958	-0.930813	-0.250707
13125		-0.208548	0.199351	-0.957479	0.943630	0.298318	-0.143421	0.257042	-0.933416	-0.250327
13126		-0.207967	0.200110	-0.957448	0.946151	0.289425	-0.145023	0.248089	-0.936050	-0.249525
13127		-0.207653	0.201224	-0.957282	0.948591	0.280384	-0.146830	0.238861	-0.938559	-0.249102
13128		-0.207455	0.202561	-0.957043	0.950731	0.272145	-0.148487	0.230377	-0.940694	-0.249039
13129		-0.207406	0.204239	-0.956697	0.952497	0.265104	-0.149900	0.223009	-0.942341	-0.249521
13130		-0.207152	0.205845	-0.956408	0.954042	0.258899	-0.150917	0.216548	-0.943716	-0.250016
13131		-0.206833	0.207110	-0.956204	0.955550	0.252646	-0.151969	0.210107	-0.945132	-0.250160
13132		-0.206585	0.208153	-0.956031	0.956858	0.247020	-0.152982	0.204315	-0.946390	-0.250203
13133		-0.206562	0.208382	-0.955986	0.958108	0.241195	-0.154446	0.198395	-0.947841	-0.249474
13134		-0.206439	0.207944	-0.956108	0.959424	0.234827	-0.156082	0.192064	-0.949534	-0.247984
13135		-0.206529	0.207607	-0.956162	0.960662	0.228466	-0.157896	0.185670	-0.951159	-0.246625
13136		-0.206649	0.207254	-0.956212	0.961862	0.222044	-0.159743	0.179214	-0.952755	-0.245235
13137		-0.206908	0.207258	-0.956155	0.962965	0.215835	-0.161597	0.172880	-0.954180	-0.244240
13138		-0.207021	0.207625	-0.956051	0.963948	0.210272	-0.163066	0.167175	-0.955342	-0.243670
13139		-0.207006	0.208524	-0.955859	0.964644	0.206410	-0.163879	0.163126	-0.955988	-0.243879
13140		-0.206585	0.209230	-0.955796	0.965210	0.203616	-0.164046	0.160292	-0.956433	-0.244015
13141		-0.205922	0.209816	-0.955810	0.965615	0.201969	-0.163699	0.158697	-0.956653	-0.244192
13142		-0.205005	0.210451	-0.955868	0.965857	0.201556	-0.162771	0.158406	-0.956601	-0.244586
13143		-0.204012	0.210723	-0.956020	0.965930	0.202179	-0.161563	0.159243	-0.956410	-0.244791
13144		-0.202760	0.210666	-0.956299	0.966116	0.202320	-0.160271	0.159715	-0.956392	-0.244550
13145		-0.201362	0.210613	-0.956606	0.966228	0.203035	-0.158686	0.160803	-0.956252	-0.244384
13146		-0.199517	0.210795	-0.956953	0.966497	0.203273	-0.156730	0.161484	-0.956162	-0.244289
13147		-0.197477	0.211405	-0.957241	0.966708	0.204082	-0.154359	0.162723	-0.955855	-0.244669
13148		-0.194892	0.212638	-0.957498	0.967216	0.203720	-0.151629	0.162819	-0.955659	-0.245370
13149		-0.192306	0.214631	-0.957576	0.967732	0.203383	-0.148759	0.162826	-0.955285	-0.246817
13150		-0.189439	0.216704	-0.957681	0.968476	0.201923	-0.145883	0.161764	-0.955126	-0.248125
13151		-0.186670	0.218838	-0.957739	0.969080	0.201141	-0.142920	0.161364	-0.954805	-0.249619
13152		-0.183488	0.220760	-0.957913	0.969732	0.200345	-0.139580	0.161100	-0.954530	-0.250839
13153		-0.180352	0.222919	-0.958008	0.970072	0.201307	-0.135781	0.162586	-0.953825	-0.252553
13154		-0.177119	0.225016	-0.958121	0.970594	0.201190	-0.132175	0.163023	-0.953357	-0.254034
13155		-0.174096	0.226995	-0.958209	0.971034	0.201291	-0.128741	0.163655	-0.952867	-0.255464
13156		-0.171028	0.229068	-0.958268	0.971595	0.200668	-0.125439	0.163559	-0.952502	-0.256881
13157		-0.167993	0.230445	-0.958475	0.972043	0.200523	-0.122159	0.164045	-0.952201	-0.257688
13158		-0.164608	0.230864	-0.958961	0.972733	0.199036	-0.119055	0.163382	-0.952411	-0.257332
13159		-0.161468	0.231581	-0.959322	0.973287	0.198138	-0.115988	0.163217	-0.952424	-0.257388
13160		-0.158365	0.232742	-0.959558	0.973788	0.197512	-0.112807	0.163269	-0.952271	-0.257921
13161		-0.155528	0.233868	-0.959748	0.973630	0.200445	-0.108933	0.166901	-0.951382	-0.258875
13162		-0.152596	0.234938	-0.959958	0.973124	0.205223	-0.104463	0.172463	-0.950099	-0.259940
13163		-0.149766	0.235985	-0.960146	0.972328	0.211256	-0.099743	0.179299	-0.948516	-0.261094
13164		-0.147085	0.237151	-0.960274	0.971657	0.216286	-0.095414	0.185066	-0.947090	-0.262241
13165		-0.144707	0.238514	-0.960297	0.970897	0.221406	-0.091312	0.190836	-0.945564	-0.263612
13166		-0.142444	0.240361	-0.960175	0.970218	0.225927	-0.087377	0.195928	-0.944025	-0.265384
13167		-0.140203	0.242742	-0.959906	0.969623	0.229918	-0.083481	0.200435	-0.942451	-0.267603
13168		-0.137540	0.245002	-0.959717	0.969656	0.231017	-0.079990	0.202113	-0.941597	-0.269341
13169		-0.134257	0.246552	-0.959785	0.969926	0.231130	-0.076303	0.203022	-0.941165	-0.270168
13170		-0.130581	0.248021	-0.959914	0.970367	0.230523	-0.072441	0.203315	-0.940928	-0.270774
13171		-0.126644	0.249996	-0.959929	0.970832	0.229851	-0.068222	0.203585	-0.940569	-0.271813
13172		-0.122573	0.251677	-0.960018	0.971276	0.229210	-0.063921	0.203959	-0.940277	-0.272543
13173		-0.118025	0.252793	-0.960295	0.971583	0.229208	-0.059074	0.205173	-0.939978	-0.272662
13174		-0.113052	0.254072	-0.960555	0.971964	0.228877	-0.053856	0.206166	-0.939714	-0.272824
13175		-0.107622	0.255830	-0.960713	0.972808	0.226440	-0.048678	0.205090	-0.939828	-0.273243
13176		-0.101458	0.257360	-0.960975	0.974551	0.219801	-0.044026	0.199893	-0.940985	-0.273111
13177		-0.094788	0.258979	-0.961220	0.976723	0.210834	-0.039512	0.192426	-0.942591	-0.272936
13178		-0.087901	0.260149	-0.961559	0.979185	0.199852	-0.035442	0.182949	-0.944660	-0.272301
13179		-0.081004	0.260855	-0.961973	0.981822	0.187096	-0.031941	0.171649	-0.947074	-0.271269
13180		-0.074399	0.261510	-0.962329	0.984342	0.173894	-0.028846	0.159800	-0.949407	-0.270352
13181		-0.068175	0.262867	-0.962420	0.986491	0.161790	-0.025690	0.148957	-0.951170	-0.270346
13182		-0.062167	0.264005	-0.962516	0.988596	0.148818	-0.023033	0.137159	-0.952971	-0.270246
13183		-0.056063	0.264740	-0.962689	0.990757	0.134036	-0.020837	0.123519	-0.954959	-0.269808
13184		-0.049788	0.265339	-0.962869	0.992620	0.119882	-0.018290	0.110577	-0.956673	-0.269349
13185		-0.043542	0.265554	-0.963112	0.994034	0.108011	-0.015159	0.100001	-0.958027	-0.268673
13186		-0.037461	0.265556	-0.963368	0.995213	0.096993	-0.011963	0.090263	-0.959204	-0.267918
13187		-0.031828	0.265872	-0.963483	0.996102	0.087777	-0.008684	0.082262	-0.960004	-0.267630
13188		-0.026749	0.266479	-0.963470	0.996771	0.080105	-0.005518	0.075708	-0.960506	-0.267761
13189		-0.022223	0.267812	-0.963215	0.997220	0.074482	-0.002299	0.071126	-0.960588	-0.268722
13190		-0.017795	0.269424	-0.962857	0.997574	0.069600	0.001039	0.067295	-0.960503	-0.270009
13191		-0.014066	0.271085	-0.962453	0.997768	0.066638	0.004187	0.065271	-0.960246	-0.271417
13192		-0.010582	0.272007	-0.962237	0.997997	0.062894	0.006803	0.062370	-0.960238	-0.272128
13193		-0.007666	0.272910	-0.962009	0.998153	0.060068	0.009086	0.060265	-0.960163	-0.272866
13194		-0.005180	0.273085	-0.961976	0.998325	0.056850	0.010763	0.057627	-0.960309	-0.272922
13195		-0.003418	0.271942	-0.962308	0.998594	0.051837	0.011102	0.052902	-0.960917	-0.271736
13196		-0.002233	0.269938	-0.962875	0.999037	0.042787	0.009678	0.043811	-0.961927	-0.269774
13197		-0.001647	0.267741	-0.963489	0.999478	0.031541	0.007056	0.032279	-0.962974	-0.267653
13198		-0.001240	0.265359	-0.964149	0.999821	0.018521	0.003811	0.018869	-0.963972	-0.265334
13199		-0.000780	0.262753	-0.964863	0.999989	0.004684	0.000468	0.004643	-0.964852	-0.262754
13200		0.000151	0.260848	-0.965380	0.999974	-0.007002	-0.001735	-0.007212	-0.965355	-0.260842
13201		0.001472	0.259613	-0.965712	0.999895	-0.014332	-0.002329	-0.014446	-0.965606	-0.259606
13202		0.002816	0.258412	-0.966031	0.999811	-0.019287	-0.002245	-0.019212	-0.965842	-0.258418
13203		0.003695	0.256793	-0.966459	0.999753	-0.022126	-0.002057	-0.021912	-0.966213	-0.256811
13204		0.004311	0.255185	-0.966883	0.999731	-0.023135	-0.001649	-0.022790	-0.966615	-0.255216
13205		0.004357	0.253472	-0.967333	0.999744	-0.022587	-0.001415	-0.022208	-0.967079	-0.253506
13206		0.004199	0.252381	-0.967619	0.999784	-0.020743	-0.001071	-0.020342	-0.967406	-0.252414
13207		0.003626	0.251301	-0.967902	0.999849	-0.017359	-0.000761	-0.016993	-0.967753	-0.251326
13208		0.002631	0.249999	-0.968243	0.999893	-0.014575	-0.001047	-0.014374	-0.968136	-0.250010
13209		0.000686	0.247995	-0.968761	0.999899	-0.013933	-0.002859	-0.014207	-0.968661	-0.247979
13210		-0.001556	0.245234	-0.969463	0.999862	-0.015634	-0.005560	-0.016520	-0.969338	-0.245176
13211		-0.003892	0.242620	-0.970114	0.999792	-0.018467	-0.008629	-0.020009	-0.969946	-0.242498
13212		-0.006082	0.239743	-0.970817	0.999713	-0.021056	-0.011463	-0.023189	-0.970608	-0.239546
13213		-0.008236	0.236936	-0.971490	0.999671	-0.021637	-0.013752	-0.024279	-0.971284	-0.236679
13214		-0.010147	0.234730	-0.972008	0.999712	-0.018781	-0.014971	-0.021769	-0.971879	-0.234472
13215		-0.012506	0.232850	-0.972432	0.999792	-0.012775	-0.015917	-0.016129	-0.972429	-0.232641
13216		-0.015078	0.230887	-0.972864	0.999831	-0.006717	-0.017090	-0.010480	-0.972957	-0.230747
13217		-0.018437	0.228327	-0.973410	0.999812	-0.001671	-0.019329	-0.006040	-0.973583	-0.228253
13218		-0.021866	0.225985	-0.973885	0.999760	0.003346	-0.021671	-0.001638	-0.974125	-0.226004
13219		-0.025676	0.223845	-0.974286	0.999666	0.008628	-0.024363	0.002953	-0.974586	-0.223992
13220		-0.029030	0.221957	-0.974624	0.999550	0.013860	-0.026617	0.007600	-0.974958	-0.222260
13221		-0.032470	0.220738	-0.974793	0.999384	0.020169	-0.028721	0.013321	-0.975125	-0.221257
13222		-0.035421	0.219890	-0.974881	0.999192	0.026344	-0.030363	0.019006	-0.975169	-0.220646
13223		-0.038578	0.218807	-0.975005	0.998931	0.033314	-0.032049	0.025468	-0.975199	-0.219858
13224		-0.041307	0.217159	-0.975262	0.998609	0.040979	-0.033171	0.032762	-0.975276	-0.218550
13225		-0.044394	0.215411	-0.975514	0.998186	0.049303	-0.034539	0.040656	-0.975278	-0.217209
13226		-0.047178	0.213966	-0.975701	0.997748	0.056708	-0.035808	0.047668	-0.975194	-0.216160
13227		-0.049986	0.212703	-0.975837	0.997213	0.064818	-0.036953	0.055391	-0.974965	-0.215351
13228		-0.052337	0.211508	-0.975974	0.996634	0.072818	-0.037664	0.063103	-0.974660	-0.214608
13229		-0.054734	0.210464	-0.976068	0.995985	0.080855	-0.038417	0.070834	-0.974252	-0.214044
13230		-0.056627	0.209060	-0.976262	0.995243	0.089458	-0.038571	0.079270	-0.973803	-0.213131
13231		-0.058302	0.207626	-0.976469	0.994135	0.101319	-0.037814	0.091084	-0.972947	-0.212316
13232		-0.059461	0.206062	-0.976731	0.992810	0.114037	-0.036381	0.103887	-0.971871	-0.211361
13233		-0.060661	0.204476	-0.976990	0.991307	0.126828	-0.035006	0.116752	-0.970621	-0.210392
13234		-0.061907	0.202952	-0.977230	0.989808	0.138292	-0.033984	0.128246	-0.969374	-0.209445
13235		-0.063504	0.201368	-0.977455	0.988172	0.149678	-0.033365	0.139585	-0.968012	-0.208491
13236		-0.065044	0.199294	-0.977779	0.986402	0.161046	-0.032793	0.150932	-0.966616	-0.207059
13237		-0.066927	0.196682	-0.978180	0.984444	0.172638	-0.032644	0.162451	-0.965149	-0.205177
13238		-0.068742	0.192949	-0.978798	0.982609	0.182734	-0.032987	0.172495	-0.964043	-0.202155
13239		-0.070735	0.189540	-0.979322	0.980509	0.193625	-0.033346	0.183301	-0.962592	-0.199542
13240		-0.073002	0.186344	-0.979769	0.978391	0.203927	-0.034114	0.193445	-0.961088	-0.197205
13241		-0.075611	0.184056	-0.980003	0.976069	0.214625	-0.034998	0.203892	-0.959197	-0.195879
13242		-0.078442	0.182225	-0.980123	0.973204	0.227164	-0.035653	0.216152	-0.956656	-0.195161
13243		-0.081627	0.180431	-0.980195	0.970304	0.239073	-0.036795	0.227699	-0.954091	-0.194588
13244		-0.085281	0.178517	-0.980234	0.967898	0.248300	-0.038988	0.236432	-0.952092	-0.193961
13245		-0.089405	0.176661	-0.980203	0.965363	0.257567	-0.041630	0.245114	-0.949974	-0.193570
13246		-0.093503	0.173741	-0.980342	0.962970	0.265872	-0.044727	0.252874	-0.948223	-0.192167
13247		-0.097765	0.170646	-0.980470	0.960449	0.274281	-0.048032	0.260728	-0.946388	-0.190712
13248		-0.102202	0.167593	-0.980544	0.957978	0.282158	-0.051623	0.268017	-0.944616	-0.189388
13249		-0.106772	0.164456	-0.980589	0.955342	0.290276	-0.055340	0.275540	-0.942706	-0.188105
13250		-0.111496	0.160736	-0.980680	0.952950	0.297204	-0.059631	0.281877	-0.941188	-0.186310
13251		-0.116101	0.156973	-0.980755	0.950691	0.303472	-0.063971	0.287590	-0.939822	-0.184466
13252		-0.120591	0.153086	-0.980827	0.948605	0.308980	-0.068404	0.292585	-0.938667	-0.182479
13253		-0.125276	0.150063	-0.980707	0.946890	0.313151	-0.073039	0.296149	-0.937772	-0.181324
13254		-0.130139	0.147708	-0.980432	0.945964	0.314714	-0.078150	0.297013	-0.937623	-0.180683
13255		-0.135342	0.146479	-0.979911	0.945520	0.314658	-0.083556	0.296098	-0.937835	-0.181085
13256		-0.140677	0.146562	-0.979147	0.945850	0.312115	-0.089175	0.292537	-0.938671	-0.182533
13257		-0.145921	0.147515	-0.978236	0.946874	0.307282	-0.094906	0.286594	-0.940116	-0.184517
13258		-0.151278	0.149329	-0.977147	0.948748	0.299419	-0.101124	0.277475	-0.942364	-0.186971
13259		-0.157136	0.152897	-0.975669	0.951061	0.289594	-0.107791	0.266067	-0.944859	-0.190920
13260		-0.163413	0.158247	-0.973783	0.953499	0.278710	-0.114717	0.253250	-0.947248	-0.196434
13261		-0.169865	0.164617	-0.971621	0.956074	0.266536	-0.121989	0.238891	-0.949663	-0.202661
13262		-0.176006	0.171794	-0.969283	0.958904	0.252525	-0.129364	0.222544	-0.952217	-0.209180
13263		-0.181496	0.179124	-0.966940	0.961162	0.240198	-0.135916	0.207911	-0.954054	-0.215762
13264		-0.185895	0.185333	-0.964933	0.963467	0.227087	-0.141997	0.192807	-0.956077	-0.220776
13265		-0.189690	0.190636	-0.963159	0.965511	0.214399	-0.147717	0.178341	-0.957962	-0.224731
13266		-0.192290	0.193659	-0.962040	0.967618	0.200776	-0.152988	0.163527	-0.960305	-0.225995
13267		-0.194522	0.194418	-0.961438	0.969180	0.189146	-0.157840	0.151165	-0.962510	-0.225219
13268		-0.196178	0.193700	-0.961246	0.970535	0.178230	-0.162159	0.139913	-0.964735	-0.222958
13269		-0.197978	0.192854	-0.961047	0.971012	0.172566	-0.165402	0.133945	-0.965934	-0.221427
13270		-0.199607	0.192452	-0.960791	0.971051	0.170149	-0.167657	0.131212	-0.966443	-0.220843
13271		-0.201664	0.192567	-0.960338	0.970440	0.172001	-0.169295	0.132579	-0.966092	-0.221561
13272		-0.203617	0.192852	-0.959869	0.969547	0.175994	-0.170310	0.136086	-0.965316	-0.222814
13273		-0.205631	0.192752	-0.959459	0.968373	0.181651	-0.171049	0.141317	-0.964287	-0.224009
13274		-0.207116	0.192639	-0.959163	0.967503	0.185697	-0.171621	0.145052	-0.963539	-0.224839
13275		-0.208850	0.192709	-0.958773	0.966695	0.188978	-0.172592	0.147927	-0.962887	-0.225759
13276		-0.210751	0.192765	-0.958345	0.966239	0.189716	-0.174326	0.148209	-0.962730	-0.226240
13277		-0.213017	0.192880	-0.957821	0.965927	0.189064	-0.176747	0.146999	-0.962835	-0.226582
13278		-0.215329	0.193282	-0.957223	0.965817	0.187023	-0.179499	0.144329	-0.963153	-0.226946
13279		-0.217637	0.193551	-0.956646	0.965766	0.184473	-0.182389	0.141174	-0.963591	-0.227073
13280		-0.219747	0.193683	-0.956137	0.965587	0.182943	-0.184861	0.139114	-0.963856	-0.227219
13281		-0.221725	0.193651	-0.955687	0.965201	0.182946	-0.186862	0.138653	-0.963862	-0.227476
13282		-0.223519	0.192983	-0.955404	0.964557	0.184834	-0.188326	0.140248	-0.963636	-0.227457
13283		-0.225250	0.191930	-0.955210	0.963723	0.187970	-0.189488	0.143182	-0.963239	-0.227308
13284		-0.227023	0.190807	-0.955015	0.962728	0.192005	-0.190495	0.147020	-0.962666	-0.227285
13285		-0.228769	0.189493	-0.954860	0.961638	0.196522	-0.191393	0.151383	-0.962014	-0.227181
13286		-0.230445	0.188053	-0.954741	0.960458	0.201507	-0.192134	0.156255	-0.961265	-0.227054
13287		-0.232159	0.186874	-0.954558	0.959034	0.207772	-0.192572	0.162343	-0.960161	-0.227454
13288		-0.233952	0.185521	-0.954384	0.957458	0.214530	-0.193003	0.168938	-0.958936	-0.227819
13289		-0.235808	0.184112	-0.954200	0.955883	0.220924	-0.193597	0.175162	-0.957755	-0.228085
13290		-0.237662	0.182350	-0.954078	0.954258	0.227270	-0.194269	0.181408	-0.956607	-0.228022
13291		-0.239254	0.180079	-0.954112	0.952748	0.232957	-0.194944	0.187162	-0.955669	-0.227305
13292		-0.240516	0.177579	-0.954263	0.951346	0.238200	-0.195454	0.192597	-0.954844	-0.226230
13293		-0.241322	0.174897	-0.954555	0.950109	0.242890	-0.195695	0.197625	-0.954157	-0.224786
13294		-0.241883	0.172235	-0.954897	0.948827	0.247905	-0.195630	0.203029	-0.953351	-0.223385
13295		-0.242196	0.169940	-0.955229	0.947403	0.253720	-0.195073	0.209210	-0.952232	-0.222452
13296		-0.242410	0.167984	-0.955520	0.945856	0.260052	-0.194240	0.215856	-0.950870	-0.221928
13297		-0.242502	0.166494	-0.955758	0.944412	0.265936	-0.193297	0.221987	-0.949504	-0.221728
13298		-0.242542	0.165133	-0.955983	0.943182	0.270824	-0.192513	0.227113	-0.948359	-0.221437
13299		-0.242402	0.164052	-0.956205	0.942186	0.274842	-0.191695	0.231357	-0.947391	-0.221189
13300		-0.242025	0.163038	-0.956474	0.941363	0.278287	-0.190765	0.235073	-0.946559	-0.220831
13301		-0.241349	0.162477	-0.956740	0.940751	0.281162	-0.189568	0.238199	-0.945806	-0.220708
13302		-0.240666	0.162226	-0.956955	0.940387	0.283082	-0.188511	0.240315	-0.945276	-0.220683
13303		-0.239882	0.162253	-0.957147	0.940098	0.284822	-0.187327	0.242222	-0.944749	-0.220857
13304		-0.238975	0.162339	-0.957360	0.939629	0.287345	-0.185824	0.244926	-0.943970	-0.221206
13305		-0.237886	0.162414	-0.957618	0.939264	0.289566	-0.184215	0.247375	-0.943278	-0.221433
13306		-0.236692	0.162371	-0.957921	0.938993	0.291453	-0.182613	0.249538	-0.942704	-0.221450
13307		-0.235363	0.162238	-0.958271	0.938810	0.293065	-0.180966	0.251477	-0.942227	-0.221287
13308		-0.233791	0.162097	-0.958680	0.938746	0.294381	-0.179154	0.253177	-0.941841	-0.220992
13309		-0.231937	0.162066	-0.959135	0.938892	0.295110	-0.177177	0.254336	-0.941618	-0.220609
13310		-0.229945	0.162144	-0.959601	0.939332	0.294849	-0.175267	0.254519	-0.941686	-0.220106
13311		-0.227831	0.162809	-0.959993	0.939973	0.294018	-0.173216	0.254054	-0.941832	-0.220023
13312		-0.225632	0.163843	-0.960336	0.940768	0.292717	-0.171094	0.253074	-0.942057	-0.220185
13313		-0.223251	0.165322	-0.960639	0.941769	0.290813	-0.168818	0.251457	-0.942389	-0.220619
13314		-0.220719	0.166955	-0.960942	0.942676	0.289347	-0.166253	0.250288	-0.942552	-0.221249
13315		-0.217831	0.168380	-0.961352	0.943540	0.288202	-0.163316	0.249565	-0.942649	-0.221652
13316		-0.214605	0.169266	-0.961922	0.944449	0.286966	-0.160210	0.248920	-0.942868	-0.221448
13317		-0.211096	0.169982	-0.962572	0.945277	0.286137	-0.156774	0.248778	-0.942991	-0.221083
13318		-0.207423	0.170347	-0.963306	0.945985	0.285751	-0.153162	0.249175	-0.943042	-0.220417
13319		-0.203474	0.170327	-0.964151	0.946688	0.285434	-0.149363	0.249761	-0.943142	-0.219325
13320		-0.199234	0.169836	-0.965123	0.947230	0.285755	-0.145255	0.251119	-0.943133	-0.217806
13321		-0.194686	0.169272	-0.966149	0.947640	0.286659	-0.140733	0.253133	-0.942960	-0.216218
13322		-0.189842	0.168726	-0.967208	0.947924	0.288093	-0.135801	0.255733	-0.942621	-0.214632
13323		-0.184813	0.168396	-0.968239	0.947977	0.290388	-0.130442	0.259199	-0.941975	-0.213303
13324		-0.179789	0.168207	-0.969217	0.947906	0.293008	-0.124985	0.262965	-0.941198	-0.212124
13325		-0.174833	0.168370	-0.970095	0.947771	0.295727	-0.119483	0.266766	-0.940317	-0.211279
13326		-0.170171	0.168903	-0.970831	0.947431	0.298939	-0.114061	0.270954	-0.939206	-0.210895
13327		-0.165687	0.169501	-0.971503	0.947040	0.302121	-0.108804	0.275069	-0.938079	-0.210582
13328		-0.161249	0.169937	-0.972173	0.946809	0.304597	-0.103798	0.278482	-0.937199	-0.210014
13329		-0.156815	0.170350	-0.972826	0.946616	0.306831	-0.098861	0.281653	-0.936395	-0.209371
13330		-0.152284	0.170469	-0.973524	0.946425	0.308958	-0.093945	0.284763	-0.935674	-0.208386
13331		-0.147560	0.170751	-0.974202	0.946281	0.310902	-0.088839	0.287712	-0.934978	-0.207455
13332		-0.142603	0.170893	-0.974915	0.946160	0.312722	-0.083580	0.290594	-0.934345	-0.206287
13333		-0.137400	0.170808	-0.975677	0.946162	0.314090	-0.078257	0.293084	-0.933901	-0.204768
13334		-0.132091	0.170520	-0.976460	0.946191	0.315282	-0.072938	0.295423	-0.933552	-0.202990
13335		-0.126919	0.170416	-0.977164	0.946153	0.316564	-0.067683	0.297801	-0.933137	-0.201418
13336		-0.122064	0.170414	-0.977783	0.946283	0.317171	-0.062854	0.299413	-0.932932	-0.199975
13337		-0.117708	0.170941	-0.978225	0.946478	0.317438	-0.058417	0.300540	-0.932744	-0.199156
13338		-0.114126	0.171542	-0.978544	0.947016	0.316447	-0.054974	0.300227	-0.932971	-0.198568
13339		-0.111284	0.171969	-0.978796	0.947758	0.314646	-0.052474	0.298951	-0.933501	-0.198000
13340		-0.109101	0.172214	-0.978999	0.948684	0.312116	-0.050819	0.296810	-0.934305	-0.197429
13341		-0.107471	0.171822	-0.979248	0.949577	0.309536	-0.049903	0.294538	-0.935235	-0.196425
13342		-0.106095	0.170988	-0.979544	0.950152	0.307887	-0.049167	0.293182	-0.935932	-0.195129
13343		-0.104892	0.169946	-0.979855	0.950312	0.307515	-0.048394	0.293095	-0.936244	-0.193757
13344		-0.103581	0.168328	-0.980274	0.950728	0.306309	-0.047861	0.292210	-0.936931	-0.191762
13345		-0.102140	0.166417	-0.980751	0.951437	0.304159	-0.047476	0.290403	-0.937973	-0.189402
13346		-0.100779	0.164624	-0.981194	0.952640	0.300376	-0.047449	0.286916	-0.939507	-0.187099
13347		-0.099581	0.163338	-0.981532	0.954292	0.295043	-0.047719	0.281800	-0.941419	-0.185253
13348		-0.098338	0.162395	-0.981813	0.956575	0.287462	-0.048263	0.274397	-0.943924	-0.183612
13349		-0.096765	0.161601	-0.982101	0.958769	0.280038	-0.048386	0.267206	-0.946290	-0.182036
13350		-0.094754	0.160900	-0.982412	0.960394	0.274538	-0.047666	0.262039	-0.948019	-0.180541
13351		-0.092641	0.160263	-0.982717	0.961280	0.271652	-0.046319	0.259534	-0.948958	-0.179224
13352		-0.090454	0.159217	-0.983091	0.961620	0.270729	-0.044632	0.259045	-0.949398	-0.177594
13353		-0.088192	0.157663	-0.983547	0.961144	0.272763	-0.042459	0.261581	-0.949075	-0.175593
13354		-0.085978	0.155421	-0.984100	0.959845	0.277665	-0.040006	0.267032	-0.948022	-0.173053
13355		-0.084026	0.152578	-0.984713	0.957689	0.285351	-0.037506	0.275266	-0.946200	-0.170099
13356		-0.082525	0.149341	-0.985336	0.954739	0.295355	-0.035197	0.285768	-0.943643	-0.166956
13357		-0.081406	0.146472	-0.985860	0.951108	0.307101	-0.032910	0.297938	-0.940338	-0.164310
13358		-0.080665	0.144067	-0.986275	0.946705	0.320645	-0.030591	0.311837	-0.936179	-0.162253
13359		-0.080199	0.142500	-0.986540	0.941051	0.337121	-0.027806	0.328621	-0.930614	-0.161137
13360		-0.080257	0.142142	-0.986587	0.934111	0.356128	-0.024679	0.347843	-0.923563	-0.161358
13361		-0.080799	0.143150	-0.986397	0.926491	0.375710	-0.021368	0.367541	-0.915615	-0.162984
13362		-0.081891	0.144911	-0.986050	0.918677	0.394585	-0.018307	0.386428	-0.907361	-0.165439
13363		-0.083273	0.146353	-0.985721	0.911165	0.411736	-0.015843	0.403538	-0.899474	-0.167639
13364		-0.085061	0.146487	-0.985549	0.904236	0.426783	-0.014608	0.418476	-0.892411	-0.168762
13365		-0.087406	0.144972	-0.985568	0.898551	0.438606	-0.015172	0.430076	-0.886909	-0.168602
13366		-0.090743	0.141489	-0.985772	0.894611	0.446473	-0.018268	0.437536	-0.883540	-0.167092
13367		-0.095397	0.136309	-0.986062	0.892811	0.449780	-0.024199	0.440213	-0.882676	-0.164606
13368		-0.101434	0.129770	-0.986342	0.891872	0.451129	-0.032365	0.440767	-0.882974	-0.161497
13369		-0.108734	0.122347	-0.986513	0.890861	0.452322	-0.042094	0.441072	-0.883423	-0.158177
13370		-0.117236	0.114261	-0.986509	0.889690	0.453454	-0.053209	0.441257	-0.883925	-0.154818
13371		-0.127040	0.105485	-0.986273	0.888227	0.454672	-0.065782	0.441491	-0.884390	-0.151456
13372		-0.138067	0.096019	-0.985758	0.885834	0.457134	-0.079544	0.442985	-0.884200	-0.148171
13373		-0.150144	0.085599	-0.984952	0.883105	0.459522	-0.094683	0.444502	-0.884032	-0.144587
13374		-0.163176	0.074350	-0.983791	0.881892	0.458037	-0.111659	0.442311	-0.885818	-0.140310
13375		-0.177484	0.062420	-0.982142	0.882287	0.452203	-0.130699	0.435970	-0.889728	-0.135331
13376		-0.192905	0.050471	-0.979918	0.882645	0.445184	-0.150826	0.428632	-0.894016	-0.130427
13377		-0.209162	0.038084	-0.977139	0.882269	0.438288	-0.171772	0.421726	-0.898027	-0.125274
13378		-0.226275	0.025242	-0.973736	0.880827	0.432096	-0.193484	0.415864	-0.901474	-0.120006
13379		-0.244725	0.013049	-0.969505	0.878765	0.425531	-0.216093	0.409735	-0.904850	-0.115605
13380		-0.264119	0.001701	-0.964489	0.877139	0.416272	-0.239465	0.401083	-0.909238	-0.111437
13381		-0.283497	-0.009416	-0.958927	0.876364	0.403472	-0.263050	0.389377	-0.914943	-0.106132
13382		-0.302323	-0.020624	-0.952982	0.877462	0.384540	-0.286687	0.372372	-0.922878	-0.098158
13383		-0.319934	-0.033015	-0.946865	0.879618	0.360967	-0.309798	0.352015	-0.931994	-0.086445
13384		-0.336019	-0.047387	-0.940662	0.882844	0.332111	-0.332096	0.328141	-0.942049	-0.069760
13385		-0.351590	-0.062190	-0.934086	0.886389	0.298878	-0.353535	0.301164	-0.952263	-0.049958
13386		-0.367094	-0.076552	-0.927028	0.889832	0.261452	-0.373955	0.271000	-0.962176	-0.027859
13387		-0.383067	-0.088831	-0.919439	0.892041	0.222868	-0.393184	0.239841	-0.970793	-0.006132
13388		-0.399288	-0.098094	-0.911563	0.891544	0.190335	-0.411002	0.213819	-0.976806	0.011456
13389		-0.415743	-0.105437	-0.903350	0.888539	0.164838	-0.428166	0.194051	-0.980669	0.025155
13390		-0.431954	-0.112515	-0.894850	0.884427	0.141491	-0.444714	0.176650	-0.983525	0.038394
13391		-0.448068	-0.119085	-0.886033	0.879513	0.118979	-0.460762	0.160289	-0.985730	0.051427
13392		-0.463879	-0.125803	-0.876921	0.873646	0.099095	-0.476363	0.146827	-0.987094	0.063939
13393		-0.479000	-0.134491	-0.867451	0.867181	0.080852	-0.491386	0.136222	-0.987611	0.077900
13394		-0.493396	-0.144188	-0.857770	0.860298	0.064503	-0.505694	0.128244	-0.987446	0.092219
13395		-0.507104	-0.153834	-0.848045	0.853098	0.050559	-0.519296	0.122762	-0.986802	0.105597
13396		-0.519620	-0.164703	-0.838372	0.845960	0.038384	-0.531864	0.119779	-0.985596	0.119387
13397		-0.530955	-0.176450	-0.828825	0.839293	0.025468	-0.543083	0.116936	-0.983980	0.134571
13398		-0.541082	-0.188545	-0.819561	0.833035	0.013392	-0.553059	0.115252	-0.981973	0.149819
13399		-0.550052	-0.200848	-0.810619	0.827038	0.003797	-0.562134	0.115981	-0.979615	0.164020
13400		-0.557858	-0.214018	-0.801867	0.821558	-0.005466	-0.570098	0.117628	-0.976814	0.178878
13401		-0.564623	-0.228319	-0.793140	0.816500	-0.014176	-0.577171	0.120536	-0.973483	0.194427
13402		-0.570624	-0.243344	-0.784329	0.811922	-0.023923	-0.583276	0.123173	-0.969645	0.211227
13403		-0.576010	-0.259208	-0.775257	0.808078	-0.037412	-0.587887	0.123381	-0.965097	0.231010
13404		-0.580611	-0.275537	-0.766140	0.805190	-0.054864	-0.590473	0.120664	-0.959723	0.253715
13405		-0.584213	-0.293333	-0.756737	0.803201	-0.075168	-0.590947	0.116462	-0.953051	0.279520
13406		-0.586731	-0.312775	-0.746940	0.802026	-0.097090	-0.589346	0.111812	-0.944852	0.307820
13407		-0.588233	-0.332566	-0.737144	0.801395	-0.117552	-0.586470	0.108388	-0.935725	0.335665
13408		-0.588746	-0.351780	-0.727756	0.801413	-0.136603	-0.582303	0.105429	-0.926062	0.362346
13409		-0.588087	-0.370539	-0.718926	0.802325	-0.155036	-0.576401	0.102119	-0.915786	0.388467
13410		-0.586240	-0.389716	-0.710243	0.804176	-0.173772	-0.568423	0.098103	-0.904392	0.415272
13411		-0.583127	-0.409141	-0.701831	0.806895	-0.191465	-0.558804	0.094254	-0.892157	0.441782
13412		-0.578936	-0.428886	-0.693462	0.810254	-0.207456	-0.548134	0.091225	-0.879215	0.467610
13413		-0.573729	-0.449178	-0.684890	0.814304	-0.222971	-0.535905	0.088006	-0.865173	0.493692
13414		-0.567898	-0.469719	-0.675911	0.818996	-0.240577	-0.520930	0.082082	-0.849403	0.521322
13415		-0.561357	-0.490762	-0.666356	0.824326	-0.260321	-0.502713	0.073246	-0.831496	0.550681
13416		-0.554391	-0.511377	-0.656616	0.829945	-0.280931	-0.481943	0.061990	-0.812140	0.580160
13417		-0.547227	-0.531667	-0.646431	0.835441	-0.300096	-0.460413	0.050795	-0.792006	0.608397
13418		-0.539863	-0.551609	-0.635827	0.840814	-0.317702	-0.438290	0.039761	-0.771228	0.635316
13419		-0.532414	-0.570999	-0.624896	0.845984	-0.333569	-0.415984	0.029081	-0.750128	0.660653
13420		-0.524930	-0.590116	-0.613360	0.850910	-0.346912	-0.394467	0.019999	-0.728982	0.684240
13421		-0.517567	-0.608230	-0.601814	0.855555	-0.357809	-0.374164	0.012243	-0.708540	0.705564
13422		-0.510409	-0.624814	-0.590838	0.859909	-0.365885	-0.355927	0.006209	-0.689735	0.724035
13423		-0.503383	-0.640273	-0.580220	0.864061	-0.371442	-0.339750	0.002014	-0.672370	0.740212
13424		-0.496375	-0.655315	-0.569362	0.868106	-0.376091	-0.323956	-0.001839	-0.655071	0.755565
13425		-0.489565	-0.669605	-0.558530	0.871947	-0.380239	-0.308425	-0.005852	-0.638003	0.770012
13426		-0.483103	-0.683223	-0.547556	0.875504	-0.384231	-0.293017	-0.010192	-0.620945	0.783788
13427		-0.477088	-0.695778	-0.536918	0.878740	-0.387551	-0.278602	-0.014238	-0.604729	0.796304
13428		-0.471356	-0.708269	-0.525526	0.881747	-0.391018	-0.263870	-0.018599	-0.587758	0.808823
13429		-0.466114	-0.720378	-0.513608	0.884399	-0.395140	-0.248401	-0.024005	-0.570018	0.821282
13430		-0.461439	-0.731593	-0.501842	0.886664	-0.399435	-0.232976	-0.030010	-0.552469	0.832993
13431		-0.457264	-0.742275	-0.489835	0.888627	-0.403254	-0.218466	-0.035366	-0.535177	0.843999
13432		-0.453454	-0.752242	-0.478029	0.890320	-0.407194	-0.203775	-0.041363	-0.518001	0.854380
13433		-0.449981	-0.761545	-0.466440	0.891739	-0.411332	-0.188702	-0.048157	-0.500855	0.864191
13434		-0.446811	-0.770295	-0.454978	0.892918	-0.415417	-0.173571	-0.055304	-0.483812	0.873423
13435		-0.444119	-0.778007	-0.444368	0.893788	-0.419281	-0.159204	-0.062453	-0.467876	0.881585
13436		-0.441853	-0.785245	-0.433769	0.894412	-0.422929	-0.145459	-0.069233	-0.452240	0.889205
13437		-0.440020	-0.792004	-0.423216	0.894776	-0.426526	-0.132105	-0.075885	-0.436812	0.896346
13438		-0.438592	-0.798221	-0.412893	0.894933	-0.429879	-0.119578	-0.082044	-0.421957	0.902896
13439		-0.437880	-0.803631	-0.403036	0.894761	-0.433206	-0.108328	-0.087541	-0.408056	0.908750
13440		-0.437732	-0.808547	-0.393246	0.894412	-0.436221	-0.098685	-0.091750	-0.394921	0.914122
13441		-0.438284	-0.812809	-0.383730	0.893807	-0.439219	-0.090534	-0.094955	-0.382661	0.918996
13442		-0.439387	-0.816376	-0.374792	0.893198	-0.441445	-0.085578	-0.095586	-0.372366	0.923151
13443		-0.441035	-0.819238	-0.366521	0.892371	-0.443839	-0.081732	-0.095718	-0.363120	0.926813
13444		-0.443240	-0.821380	-0.358988	0.891366	-0.446257	-0.079508	-0.094894	-0.355231	0.929950
13445		-0.446128	-0.822776	-0.352151	0.890174	-0.448619	-0.079563	-0.092519	-0.348971	0.932555
13446		-0.449660	-0.823256	-0.346489	0.888703	-0.451239	-0.081183	-0.089515	-0.344431	0.934534
13447		-0.453918	-0.823100	-0.341271	0.886887	-0.454301	-0.083918	-0.085967	-0.340761	0.936211
13448		-0.458832	-0.822263	-0.336685	0.884817	-0.457417	-0.088705	-0.081067	-0.338606	0.937430
13449		-0.464462	-0.820540	-0.333149	0.882416	-0.460638	-0.095682	-0.074951	-0.338416	0.938007
13450		-0.470745	-0.818089	-0.330348	0.879549	-0.464537	-0.102955	-0.069233	-0.339022	0.938227
13451		-0.477556	-0.815093	-0.327970	0.876360	-0.468554	-0.111582	-0.062722	-0.340707	0.938075
13452		-0.484632	-0.811721	-0.325946	0.872907	-0.472763	-0.120533	-0.056256	-0.342935	0.937673
13453		-0.491988	-0.807565	-0.325249	0.869176	-0.476993	-0.130428	-0.049812	-0.346868	0.936590
13454		-0.499464	-0.802742	-0.325793	0.865268	-0.480888	-0.141627	-0.042980	-0.352636	0.934773
13455		-0.507091	-0.797376	-0.327184	0.861173	-0.484254	-0.154532	-0.035220	-0.360124	0.932240
13456		-0.514867	-0.791550	-0.329180	0.856865	-0.486976	-0.169225	-0.026353	-0.369191	0.928980
13457		-0.522813	-0.785184	-0.331891	0.852264	-0.489532	-0.184404	-0.017680	-0.379268	0.925118
13458		-0.530996	-0.778359	-0.334963	0.847327	-0.491913	-0.200149	-0.008985	-0.390101	0.920728
13459		-0.539765	-0.770613	-0.338835	0.841816	-0.494001	-0.217507	0.000228	-0.402639	0.915359
13460		-0.548977	-0.762138	-0.343176	0.835784	-0.495874	-0.235743	0.009497	-0.416239	0.909206
13461		-0.558614	-0.753100	-0.347550	0.829217	-0.497644	-0.254458	0.018676	-0.430338	0.902474
13462		-0.568478	-0.743823	-0.351510	0.822219	-0.499096	-0.273603	0.028074	-0.444556	0.895311
13463		-0.578536	-0.734089	-0.355542	0.814833	-0.500564	-0.292376	0.036658	-0.458857	0.887753
13464		-0.588677	-0.723792	-0.359979	0.807134	-0.501679	-0.311212	0.044659	-0.473755	0.879524
13465		-0.598851	-0.712948	-0.364805	0.799119	-0.501930	-0.330871	0.052787	-0.489664	0.870312
13466		-0.608659	-0.701880	-0.369998	0.790972	-0.500066	-0.352558	0.062430	-0.507246	0.859537
13467		-0.617980	-0.690468	-0.375970	0.782805	-0.496042	-0.375711	0.072920	-0.526494	0.847046
13468		-0.626868	-0.678691	-0.382643	0.774627	-0.490210	-0.399559	0.083602	-0.546876	0.833029
13469		-0.635638	-0.666425	-0.389669	0.766330	-0.483704	-0.422809	0.093286	-0.567369	0.818163
13470		-0.644408	-0.653583	-0.396949	0.757956	-0.477239	-0.444686	0.101200	-0.587428	0.802924
13471		-0.653195	-0.640060	-0.404548	0.749648	-0.471437	-0.464516	0.106599	-0.606689	0.787760
13472		-0.661962	-0.625729	-0.412636	0.741464	-0.466085	-0.482697	0.109715	-0.625482	0.772486
13473		-0.670739	-0.610289	-0.421493	0.733205	-0.459860	-0.500937	0.111889	-0.645039	0.755914
13474		-0.679366	-0.593937	-0.430930	0.725096	-0.453177	-0.518523	0.112683	-0.664733	0.738535
13475		-0.687763	-0.576860	-0.440697	0.717273	-0.446507	-0.534931	0.111806	-0.684006	0.720857
13476		-0.695804	-0.559064	-0.450893	0.709311	-0.436243	-0.553688	0.112849	-0.705082	0.700089
13477		-0.703338	-0.541512	-0.460523	0.701182	-0.421976	-0.574700	0.116877	-0.727118	0.676490
13478		-0.710404	-0.523868	-0.469987	0.693383	-0.406530	-0.594940	0.120607	-0.748529	0.652042
13479		-0.717168	-0.505443	-0.479789	0.685733	-0.389053	-0.615149	0.124259	-0.770172	0.625615
13480		-0.723437	-0.487122	-0.489236	0.678975	-0.373666	-0.631954	0.125028	-0.789358	0.601068
13481		-0.729153	-0.469177	-0.498206	0.673510	-0.362906	-0.643960	0.121329	-0.805092	0.580609
13482		-0.734272	-0.451111	-0.507290	0.669170	-0.355194	-0.652724	0.114265	-0.818741	0.562679
13483		-0.738756	-0.433203	-0.516309	0.665628	-0.348785	-0.659764	0.105731	-0.831074	0.546019
13484		-0.742708	-0.415412	-0.525184	0.662874	-0.345102	-0.664457	0.094781	-0.841628	0.531675
13485		-0.746270	-0.397444	-0.533966	0.660668	-0.344363	-0.667032	0.081230	-0.850560	0.519566
13486		-0.749253	-0.379921	-0.542475	0.658685	-0.342207	-0.670096	0.068944	-0.859392	0.506648
13487		-0.751839	-0.362631	-0.550669	0.656752	-0.337859	-0.674187	0.058432	-0.868533	0.492175
13488		-0.754077	-0.344945	-0.558910	0.655039	-0.332977	-0.678270	0.047861	-0.877576	0.477043
13489		-0.756086	-0.327056	-0.566894	0.653388	-0.327357	-0.682584	0.037667	-0.886494	0.461205
13490		-0.757847	-0.309359	-0.574425	0.651870	-0.322479	-0.686348	0.027088	-0.894597	0.446052
13491		-0.759341	-0.291974	-0.581509	0.650476	-0.317512	-0.689976	0.016818	-0.902185	0.431022
13492		-0.760389	-0.275031	-0.588360	0.649426	-0.311700	-0.693605	0.007371	-0.909506	0.415625
13493		-0.760872	-0.258725	-0.595093	0.648900	-0.305948	-0.696653	-0.001826	-0.916219	0.400674
13494		-0.760574	-0.242933	-0.602089	0.649164	-0.299764	-0.699090	-0.010653	-0.922564	0.385696
13495		-0.759484	-0.227527	-0.609439	0.650270	-0.291841	-0.701412	-0.018269	-0.929010	0.369603
13496		-0.757632	-0.212959	-0.616962	0.652204	-0.283207	-0.703153	-0.024985	-0.935116	0.353459
13497		-0.755204	-0.199431	-0.624415	0.654749	-0.274790	-0.704127	-0.031158	-0.940594	0.338100
13498		-0.752371	-0.187287	-0.631555	0.657677	-0.267991	-0.704018	-0.037397	-0.945042	0.324803
13499		-0.749361	-0.176092	-0.638318	0.660664	-0.263629	-0.702868	-0.044510	-0.948415	0.313891
13500		-0.746179	-0.166082	-0.644696	0.663811	-0.259364	-0.701488	-0.050706	-0.951392	0.303779
13501		-0.742975	-0.156827	-0.650687	0.667031	-0.253815	-0.700462	-0.055303	-0.954454	0.293187
13502		-0.739717	-0.148770	-0.656267	0.670336	-0.248265	-0.699295	-0.058894	-0.957200	0.283372
13503		-0.736475	-0.141744	-0.661448	0.673600	-0.243561	-0.697812	-0.062192	-0.959472	0.274855
13504		-0.733170	-0.135607	-0.666387	0.676956	-0.238835	-0.696196	-0.064747	-0.961545	0.266907
13505		-0.729871	-0.130292	-0.671053	0.680241	-0.235411	-0.694157	-0.067530	-0.963123	0.260449
13506		-0.726415	-0.125892	-0.675628	0.683616	-0.233422	-0.691509	-0.070651	-0.964192	0.255623
13507		-0.722728	-0.121865	-0.680303	0.687264	-0.230724	-0.688792	-0.073022	-0.965358	0.250505
13508		-0.718668	-0.118655	-0.685155	0.691430	-0.226475	-0.686028	-0.073770	-0.966763	0.244802
13509		-0.714334	-0.116008	-0.690123	0.695975	-0.220806	-0.683274	-0.073118	-0.968394	0.238468
13510		-0.709759	-0.113171	-0.695294	0.700799	-0.213724	-0.680590	-0.071578	-0.970317	0.231003
13511		-0.705063	-0.110519	-0.700480	0.705732	-0.206147	-0.677824	-0.069489	-0.972260	0.223343
13512		-0.700212	-0.108917	-0.705578	0.710770	-0.199304	-0.674599	-0.067149	-0.973866	0.216971
13513		-0.695115	-0.108419	-0.710676	0.716037	-0.192526	-0.670988	-0.064076	-0.975284	0.211460
13514		-0.689639	-0.108897	-0.715919	0.721690	-0.184829	-0.667085	-0.059679	-0.976719	0.206055
13515		-0.683656	-0.110004	-0.721466	0.727820	-0.175612	-0.662901	-0.053776	-0.978294	0.200122
13516		-0.677197	-0.111995	-0.727229	0.734343	-0.165074	-0.658400	-0.046309	-0.979902	0.194030
13517		-0.670145	-0.113874	-0.733443	0.741295	-0.152293	-0.653674	-0.037262	-0.981753	0.186473
13518		-0.662675	-0.115342	-0.739971	0.748402	-0.138282	-0.648670	-0.027506	-0.983654	0.177958
13519		-0.654791	-0.116417	-0.746791	0.755588	-0.124769	-0.643054	-0.018313	-0.985332	0.169661
13520		-0.646572	-0.118172	-0.753645	0.762805	-0.111297	-0.636979	-0.008605	-0.986736	0.162104
13521		-0.638011	-0.120769	-0.760498	0.770026	-0.098123	-0.630422	0.001514	-0.987819	0.155599
13522		-0.629125	-0.124038	-0.767343	0.777226	-0.086386	-0.623264	0.011020	-0.988510	0.150753
13523		-0.619923	-0.127895	-0.774170	0.784391	-0.075066	-0.615707	0.020632	-0.988943	0.146855
13524		-0.610419	-0.131810	-0.781035	0.791477	-0.063063	-0.607937	0.030878	-0.989267	0.142819
13525		-0.600554	-0.136129	-0.787911	0.798492	-0.050614	-0.599874	0.041781	-0.989397	0.139094
13526		-0.590308	-0.141168	-0.794738	0.805448	-0.038590	-0.591409	0.052819	-0.989233	0.136483
13527		-0.579589	-0.145954	-0.801732	0.812458	-0.027246	-0.582383	0.063157	-0.988916	0.134373
13528		-0.568391	-0.150622	-0.808854	0.819471	-0.015836	-0.572902	0.073483	-0.988465	0.132431
13529		-0.556541	-0.155414	-0.816155	0.826576	-0.004414	-0.562807	0.083866	-0.987839	0.130918
13530		-0.544019	-0.160180	-0.823641	0.833863	0.006006	-0.551939	0.093356	-0.987070	0.130301
13531		-0.530764	-0.164730	-0.831357	0.841378	0.015469	-0.540226	0.101852	-0.986217	0.130390
13532		-0.516866	-0.169271	-0.839164	0.848895	0.025266	-0.527957	0.110571	-0.985246	0.130634
13533		-0.502325	-0.174163	-0.846957	0.856462	0.034500	-0.515056	0.118924	-0.984112	0.131834
13534		-0.487145	-0.179615	-0.854651	0.864166	0.042185	-0.501435	0.126119	-0.982832	0.134666
13535		-0.471304	-0.184681	-0.862418	0.872169	0.047786	-0.486866	0.131126	-0.981636	0.138552
13536		-0.454952	-0.188182	-0.870406	0.880202	0.053307	-0.471597	0.135144	-0.980686	0.141386
13537		-0.437943	-0.191214	-0.878432	0.888106	0.059654	-0.455751	0.139548	-0.979734	0.143693
13538		-0.420235	-0.195257	-0.886158	0.895904	0.065781	-0.439351	0.144079	-0.978544	0.147288
13539		-0.401787	-0.200187	-0.893584	0.903651	0.071316	-0.422290	0.148264	-0.977159	0.152246
13540		-0.382941	-0.204342	-0.900889	0.911355	0.075794	-0.404582	0.150955	-0.975961	0.157203
13541		-0.363901	-0.206522	-0.908253	0.918999	0.079216	-0.386219	0.151711	-0.975230	0.160967
13542		-0.345115	-0.207082	-0.915430	0.926262	0.082228	-0.367800	0.151438	-0.974862	0.163434
13543		-0.326689	-0.206654	-0.922263	0.932994	0.085375	-0.349620	0.150988	-0.974682	0.164916
13544		-0.308900	-0.205709	-0.928582	0.939080	0.088730	-0.332048	0.150698	-0.974582	0.165768
13545		-0.291876	-0.204502	-0.934338	0.944561	0.091957	-0.315197	0.150378	-0.974537	0.166324
13546		-0.275797	-0.203498	-0.939428	0.949520	0.094321	-0.299192	0.149493	-0.974521	0.167212
13547		-0.260752	-0.202060	-0.944023	0.954047	0.095630	-0.283989	0.147660	-0.974693	0.167839
13548		-0.246763	-0.199670	-0.948283	0.958012	0.097182	-0.269757	0.146019	-0.975032	0.167305
13549		-0.233684	-0.196757	-0.952197	0.961575	0.098372	-0.256313	0.144101	-0.975505	0.166209
13550		-0.221553	-0.193456	-0.955766	0.964941	0.097951	-0.243506	0.140726	-0.976207	0.164972
13551		-0.210170	-0.189872	-0.959050	0.968012	0.097095	-0.231357	0.137047	-0.976996	0.163392
13552		-0.199529	-0.186047	-0.962068	0.970459	0.098380	-0.220295	0.135634	-0.977603	0.160921
13553		-0.189407	-0.181486	-0.964981	0.972430	0.101481	-0.209955	0.136031	-0.978143	0.157261
13554		-0.179660	-0.176278	-0.967806	0.974211	0.104638	-0.199908	0.136509	-0.978763	0.152933
13555		-0.169874	-0.171026	-0.970512	0.975916	0.107579	-0.189778	0.136863	-0.979376	0.148632
13556		-0.160036	-0.165690	-0.973106	0.977274	0.112235	-0.179831	0.139013	-0.979771	0.143962
13557		-0.150029	-0.160017	-0.975646	0.978201	0.119279	-0.169985	0.143574	-0.979881	0.138634
13558		-0.140119	-0.153450	-0.978172	0.978804	0.127564	-0.160221	0.149365	-0.979888	0.132323
13559		-0.130222	-0.146155	-0.980653	0.979192	0.136310	-0.150344	0.155647	-0.979826	0.125363
13560		-0.120402	-0.138425	-0.983027	0.979083	0.147043	-0.140625	0.164013	-0.979396	0.117825
13561		-0.110571	-0.130273	-0.985293	0.978400	0.159958	-0.130946	0.174664	-0.978490	0.109772
13562		-0.100910	-0.122280	-0.987352	0.977394	0.173141	-0.121335	0.185788	-0.977277	0.102044
13563		-0.091462	-0.114223	-0.989236	0.976303	0.185368	-0.111670	0.196128	-0.976008	0.094562
13564		-0.082444	-0.105577	-0.990988	0.975043	0.197136	-0.102120	0.206141	-0.974675	0.086689
13565		-0.073930	-0.095849	-0.992647	0.973329	0.209827	-0.092752	0.217174	-0.973029	0.077781
13566		-0.066072	-0.086254	-0.994080	0.971201	0.223000	-0.083900	0.228916	-0.970995	0.069036
13567		-0.058868	-0.077061	-0.995287	0.968932	0.235508	-0.075543	0.240220	-0.968812	0.060803
13568		-0.052443	-0.068302	-0.996285	0.966808	0.246351	-0.067780	0.250065	-0.966771	0.053115
13569		-0.046725	-0.059593	-0.997129	0.964771	0.256037	-0.060511	0.258907	-0.964828	0.045530
13570		-0.041708	-0.051126	-0.997821	0.962615	0.265468	-0.053839	0.267642	-0.962763	0.038142
13571		-0.037458	-0.042624	-0.998389	0.960211	0.275159	-0.047773	0.276752	-0.960453	0.030621
13572		-0.034053	-0.034148	-0.998836	0.957785	0.284346	-0.042374	0.285463	-0.958113	0.023023
13573		-0.031394	-0.025637	-0.999178	0.956211	0.290265	-0.037492	0.290988	-0.956603	0.015402
13574		-0.029526	-0.017050	-0.999419	0.955227	0.294002	-0.033236	0.294398	-0.955653	0.007606
13575		-0.028094	-0.008774	-0.999567	0.954503	0.296747	-0.029433	0.296876	-0.954916	0.000038
13576		-0.026804	-0.001552	-0.999640	0.953805	0.299296	-0.026040	0.299228	-0.954159	-0.006542
13577		-0.025597	0.005416	-0.999658	0.953187	0.301524	-0.022774	0.301297	-0.953443	-0.012881
13578		-0.024511	0.012655	-0.999619	0.952543	0.303778	-0.019511	0.303416	-0.952659	-0.019500
13579		-0.023405	0.020237	-0.999521	0.951540	0.307105	-0.016064	0.306633	-0.951460	-0.026444
13580		-0.022444	0.027855	-0.999360	0.949470	0.313605	-0.012583	0.313053	-0.949145	-0.033486
13581		-0.021743	0.035674	-0.999127	0.946468	0.322670	-0.009076	0.322064	-0.945839	-0.040780
13582		-0.021451	0.042914	-0.998848	0.943095	0.332471	-0.005969	0.331832	-0.942137	-0.047604
13583		-0.021526	0.049666	-0.998534	0.939957	0.341278	-0.003289	0.340614	-0.938650	-0.054030
13584		-0.022020	0.056148	-0.998180	0.937090	0.349087	-0.001036	0.348394	-0.935407	-0.060303
13585		-0.022827	0.062786	-0.997766	0.934319	0.356435	0.001053	0.355705	-0.932208	-0.066798
13586		-0.023657	0.068957	-0.997339	0.931688	0.363248	0.003015	0.362489	-0.929137	-0.072840
13587		-0.024172	0.074242	-0.996947	0.929173	0.369611	0.004996	0.368853	-0.926216	-0.077918
13588		-0.024560	0.078681	-0.996597	0.926663	0.375830	0.006835	0.375089	-0.923342	-0.082141
13589		-0.024741	0.082819	-0.996257	0.924507	0.381066	0.008718	0.380361	-0.920831	-0.085994
13590		-0.024775	0.086350	-0.995957	0.922922	0.384846	0.010408	0.384189	-0.918933	-0.089229
13591		-0.024607	0.089376	-0.995694	0.921895	0.387255	0.011977	0.386658	-0.917630	-0.091924
13592		-0.024467	0.092295	-0.995431	0.921338	0.388533	0.013379	0.387992	-0.916801	-0.094541
13593		-0.024305	0.095401	-0.995142	0.920992	0.389299	0.014826	0.388823	-0.916158	-0.097325
13594		-0.024020	0.098612	-0.994836	0.920644	0.390057	0.016435	0.389664	-0.915495	-0.100156
13595		-0.023406	0.101713	-0.994538	0.920302	0.390780	0.018307	0.390508	-0.914847	-0.102753
13596		-0.022463	0.104626	-0.994258	0.920107	0.391138	0.020372	0.391023	-0.914366	-0.105053
13597		-0.021155	0.107239	-0.994008	0.920401	0.390326	0.022522	0.390402	-0.914410	-0.106960
13598		-0.019599	0.109465	-0.993797	0.921242	0.388212	0.024592	0.388496	-0.915046	-0.108452
13599		-0.017895	0.111262	-0.993630	0.922726	0.384549	0.026442	0.385041	-0.916375	-0.109546
13600		-0.016199	0.112322	-0.993540	0.925525	0.377680	0.027607	0.378341	-0.919098	-0.110075
13601		-0.014819	0.113660	-0.993409	0.929642	0.367385	0.028167	0.368166	-0.923098	-0.111107
13602		-0.013189	0.115142	-0.993262	0.934007	0.356087	0.028877	0.357012	-0.927332	-0.112239
13603		-0.010995	0.116867	-0.993087	0.937278	0.347247	0.030487	0.348410	-0.930463	-0.113355
13604		-0.008446	0.119660	-0.992779	0.938962	0.342408	0.033282	0.343918	-0.931900	-0.115248
13605		-0.005574	0.123500	-0.992329	0.940319	0.338296	0.036821	0.340249	-0.932901	-0.118015
13606		-0.002100	0.127367	-0.991853	0.942284	0.332333	0.040681	0.334807	-0.934523	-0.120714
13607		0.002173	0.130782	-0.991409	0.945418	0.322787	0.044653	0.325853	-0.937393	-0.122942
13608		0.007311	0.133075	-0.991079	0.948692	0.312391	0.048943	0.316117	-0.940587	-0.123963
13609		0.013176	0.135897	-0.990635	0.951005	0.304351	0.054400	0.308894	-0.942816	-0.125229
13610		0.019760	0.138951	-0.990102	0.952324	0.298937	0.060959	0.304448	-0.944102	-0.126419
13611		0.026752	0.142257	-0.989468	0.953031	0.295094	0.068193	0.301687	-0.944819	-0.127681
13612		0.033969	0.145310	-0.988803	0.953350	0.292223	0.075694	0.299950	-0.945246	-0.128604
13613		0.041097	0.148997	-0.987983	0.953228	0.290500	0.083461	0.299444	-0.945204	-0.130090
13614		0.047645	0.154120	-0.986903	0.952624	0.290125	0.091298	0.300396	-0.944497	-0.132995
13615		0.053786	0.160211	-0.985616	0.951871	0.290040	0.099090	0.301743	-0.943509	-0.136900
13616		0.059532	0.166233	-0.984288	0.951047	0.290109	0.106517	0.303257	-0.942445	-0.140825
13617		0.064825	0.172564	-0.982863	0.950038	0.290691	0.113698	0.305329	-0.941127	-0.145098
13618		0.069615	0.179353	-0.981319	0.948452	0.292981	0.120831	0.309179	-0.939146	-0.149712
13619		0.074092	0.185962	-0.979759	0.946409	0.296583	0.127862	0.314358	-0.936726	-0.154021
13620		0.078328	0.191579	-0.978347	0.944237	0.300564	0.134454	0.319815	-0.934323	-0.157353
13621		0.082170	0.195803	-0.977195	0.942219	0.304252	0.140193	0.324764	-0.932251	-0.159489
13622		0.085203	0.199063	-0.976276	0.940238	0.308155	0.144891	0.329687	-0.930276	-0.160911
13623		0.087246	0.201637	-0.975567	0.938169	0.312693	0.148531	0.335002	-0.928206	-0.161888
13624		0.088364	0.203189	-0.975144	0.936243	0.317274	0.150949	0.340059	-0.926310	-0.162199
13625		0.088809	0.204205	-0.974891	0.934579	0.321429	0.152465	0.344493	-0.924653	-0.162300
13626		0.088473	0.205112	-0.974732	0.933095	0.325385	0.153164	0.348579	-0.923068	-0.162601
13627		0.087342	0.206592	-0.974521	0.931581	0.329599	0.153366	0.352886	-0.921241	-0.163670
13628		0.085502	0.208388	-0.974302	0.929831	0.334597	0.153165	0.357917	-0.919031	-0.165157
13629		0.083131	0.210237	-0.974110	0.927957	0.340024	0.152578	0.363298	-0.916615	-0.166824
13630		0.080152	0.212205	-0.973933	0.925928	0.345950	0.151579	0.369098	-0.913941	-0.168758
13631		0.076539	0.214069	-0.973815	0.923740	0.352398	0.150069	0.375295	-0.911038	-0.170772
13632		0.072124	0.215240	-0.973894	0.921346	0.359591	0.147706	0.381995	-0.907946	-0.172375
13633		0.066568	0.215902	-0.974143	0.918803	0.367425	0.144220	0.389062	-0.904646	-0.173913
13634		0.059702	0.216215	-0.974519	0.916006	0.376106	0.139563	0.396698	-0.900997	-0.175599
13635		0.051552	0.215932	-0.975047	0.913088	0.385257	0.133595	0.404491	-0.897190	-0.177304
13636		0.042354	0.214644	-0.975774	0.910013	0.394854	0.126356	0.412410	-0.893319	-0.178605
13637		0.032124	0.213202	-0.976480	0.906490	0.405310	0.118316	0.421003	-0.888970	-0.180245
13638		0.021103	0.211778	-0.977090	0.902495	0.416480	0.109761	0.430183	-0.884135	-0.182340
13639		0.009318	0.210752	-0.977495	0.898059	0.428153	0.100872	0.439776	-0.878788	-0.185279
13640		-0.003270	0.209466	-0.977810	0.893749	0.439220	0.091100	0.448556	-0.873619	-0.188647
13641		-0.016421	0.206342	-0.978342	0.890541	0.447899	0.079519	0.454607	-0.869948	-0.191110
13642		-0.030017	0.201461	-0.979036	0.889335	0.452490	0.065844	0.456270	-0.868715	-0.192749
13643		-0.044183	0.194991	-0.979809	0.890082	0.453047	0.050023	0.453654	-0.869900	-0.193575
13644		-0.058654	0.185980	-0.980801	0.893066	0.448807	0.031696	0.446085	-0.874062	-0.192417
13645		-0.074463	0.176002	-0.981569	0.898409	0.439033	0.010567	0.432802	-0.881063	-0.190814
13646		-0.092242	0.168797	-0.981325	0.903978	0.427425	-0.011451	0.417510	-0.888153	-0.192015
13647		-0.110596	0.163217	-0.980372	0.907102	0.419657	-0.032464	0.406121	-0.892888	-0.194467
13648		-0.124894	0.153460	-0.980230	0.907745	0.416477	-0.050456	0.400500	-0.896101	-0.191318
13649		-0.136123	0.143825	-0.980196	0.905395	0.419696	-0.064152	0.402158	-0.896197	-0.187349
13650		-0.146012	0.137000	-0.979751	0.903601	0.421632	-0.075707	0.402723	-0.896358	-0.185357
13651		-0.154731	0.133891	-0.978842	0.902191	0.422926	-0.084764	0.402629	-0.896218	-0.186235
13652		-0.162408	0.134968	-0.977449	0.900825	0.424527	-0.091057	0.402664	-0.895299	-0.190529
13653		-0.168146	0.137491	-0.976127	0.901699	0.421584	-0.095943	0.398328	-0.896305	-0.194863
13654		-0.170455	0.142913	-0.974947	0.903866	0.416686	-0.096948	0.392391	-0.897747	-0.200200
13655		-0.168427	0.152602	-0.973830	0.907060	0.410709	-0.092520	0.385842	-0.898905	-0.207593
13656		-0.161498	0.156384	-0.974404	0.907246	0.412079	-0.084231	0.388359	-0.897627	-0.208429
13657		-0.150395	0.157785	-0.975954	0.906460	0.416034	-0.072424	0.394602	-0.895555	-0.205595
13658		-0.135918	0.161410	-0.977483	0.908300	0.414296	-0.057886	0.395624	-0.895715	-0.202919
13659		-0.118062	0.167601	-0.978760	0.911730	0.408842	-0.039968	0.393460	-0.897083	-0.201075
13660		-0.096999	0.174882	-0.979800	0.914101	0.405078	-0.018194	0.393714	-0.897401	-0.199152
13661		-0.073839	0.181557	-0.980604	0.915467	0.402355	0.005561	0.395560	-0.897300	-0.195919
13662		-0.050620	0.186093	-0.981227	0.916802	0.398342	0.028251	0.396122	-0.898161	-0.190774
13663		-0.028671	0.186580	-0.982021	0.918222	0.393159	0.047891	0.395026	-0.900341	-0.182594
13664		-0.008064	0.178797	-0.983853	0.918898	0.389394	0.063234	0.394413	-0.903551	-0.167436
13665		0.008788	0.169419	-0.985505	0.919052	0.386988	0.074723	0.394039	-0.906387	-0.152304
13666		0.020874	0.162384	-0.986507	0.918623	0.386314	0.083027	0.394583	-0.907961	-0.141106
13667		0.029814	0.153878	-0.987640	0.917305	0.388296	0.088189	0.397067	-0.908597	-0.129577
13668		0.036913	0.140439	-0.989401	0.914843	0.393652	0.090008	0.402120	-0.908469	-0.113949
13669		0.041787	0.123505	-0.991464	0.911707	0.401217	0.088404	0.408711	-0.907619	-0.095835
13670		0.042087	0.108341	-0.993222	0.908380	0.409787	0.083192	0.416023	-0.905724	-0.081168
13671		0.038838	0.092200	-0.994983	0.909585	0.408982	0.073403	0.413698	-0.907873	-0.067980
13672		0.035374	0.071972	-0.996779	0.915054	0.398653	0.061259	0.401778	-0.914273	-0.051757
13673		0.032078	0.052720	-0.998094	0.921712	0.384647	0.049941	0.386547	-0.921557	-0.036254
13674		0.030567	0.034686	-0.998931	0.928525	0.368973	0.041225	0.370008	-0.928793	-0.020929
13675		0.031829	0.017679	-0.999337	0.933843	0.355863	0.036039	0.356264	-0.934371	-0.005183
13676		0.035582	0.002472	-0.999364	0.937402	0.346563	0.034233	0.346427	-0.938024	0.010014
13677		0.041519	-0.012076	-0.999065	0.938992	0.342164	0.034887	0.341423	-0.939562	0.025546
13678		0.048949	-0.026845	-0.998440	0.939232	0.341298	0.036870	0.339776	-0.939572	0.041920
13679		0.056983	-0.041283	-0.997521	0.939111	0.341334	0.039520	0.338856	-0.939035	0.058220
13680		0.065129	-0.055245	-0.996346	0.939023	0.341223	0.042461	0.337631	-0.938357	0.074100
13681		0.073385	-0.069820	-0.994857	0.940087	0.337866	0.045634	0.332942	-0.938601	0.090431
13682		0.081355	-0.085711	-0.992993	0.943698	0.327147	0.049078	0.320648	-0.941078	0.107501
13683		0.088467	-0.102036	-0.990839	0.950545	0.305968	0.053361	0.297720	-0.946558	0.124058
13684		0.094473	-0.119722	-0.988302	0.960733	0.271131	0.058993	0.260896	-0.955068	0.140636
13685		0.099227	-0.139787	-0.985197	0.971962	0.225723	0.065867	0.213175	-0.964110	0.158265
13686		0.102806	-0.162630	-0.981317	0.981887	0.174435	0.073957	0.159149	-0.971146	0.177617
13687		0.104774	-0.186900	-0.976776	0.988735	0.125142	0.082112	0.106889	-0.974376	0.197906
13688		0.104914	-0.209919	-0.972074	0.992528	0.083339	0.089125	0.062302	-0.974161	0.217094
13689		0.103153	-0.228796	-0.967994	0.994290	0.050446	0.094032	0.027317	-0.972166	0.232694
13690		0.098739	-0.242376	-0.965145	0.995109	0.026877	0.095055	0.002901	-0.969810	0.243844
13691		0.090419	-0.250093	-0.963991	0.995886	0.016933	0.089017	-0.005940	-0.968074	0.250595
13692		0.078644	-0.254041	-0.963991	0.996884	0.014087	0.077615	-0.006138	-0.967091	0.254357
13693		0.066082	-0.254415	-0.964835	0.997761	0.006902	0.066517	-0.010263	-0.967071	0.254301
13694		0.054047	-0.251611	-0.966318	0.998456	0.001193	0.055534	-0.012820	-0.967828	0.251287
13695		0.042728	-0.252546	-0.966641	0.999079	0.006883	0.042363	-0.004046	-0.967560	0.252608
13696		0.033536	-0.247447	-0.968321	0.999069	0.034605	0.025758	0.027135	-0.968283	0.248377
13697		0.026881	-0.235707	-0.971452	0.996571	0.082389	0.007586	0.078249	-0.968326	0.237113
13698		0.020749	-0.224740	-0.974198	0.991124	0.132601	-0.009480	0.131310	-0.965354	0.225496
13699		0.013170	-0.205926	-0.978479	0.982623	0.183855	-0.025467	0.185142	-0.961141	0.204769
13700		0.005976	-0.200441	-0.979688	0.981927	0.186505	-0.032169	0.189165	-0.961790	0.197933
13702		0.019954	-0.224716	-0.974220	0.990589	0.136414	-0.011176	0.135409	-0.964828	0.225323
13703		0.034681	-0.228103	-0.973019	0.993473	0.113730	0.008748	0.108666	-0.966972	0.230558
13704		0.057361	-0.226032	-0.972430	0.994375	0.099810	0.035456	0.089044	-0.968993	0.230485
13705		0.084864	-0.213233	-0.973309	0.993615	0.091002	0.066697	0.074351	-0.972754	0.219594
13706		0.112214	-0.195441	-0.974274	0.990714	0.097751	0.094499	0.076767	-0.975832	0.204595
13707		0.136096	-0.176031	-0.974931	0.986980	0.109247	0.118052	0.085728	-0.978304	0.188607
13708		0.154555	-0.156940	-0.975440	0.983505	0.118350	0.136791	0.093976	-0.980491	0.172643
13709		0.166705	-0.138054	-0.976294	0.980983	0.123047	0.150106	0.099408	-0.982752	0.155941
13710		0.173815	-0.121378	-0.977270	0.979069	0.128008	0.158236	0.105892	-0.984318	0.141087
13711		0.175703	-0.106958	-0.978616	0.977291	0.138561	0.160321	0.118450	-0.984561	0.128875
13712		0.172154	-0.093613	-0.980612	0.975037	0.157907	0.156101	0.140232	-0.983007	0.118461
13713		0.164218	-0.083828	-0.982856	0.972586	0.180072	0.147144	0.164650	-0.980075	0.111101
13714		0.152536	-0.080383	-0.985024	0.969968	0.203246	0.133618	0.189461	-0.975823	0.108971
13715		0.136964	-0.081047	-0.987255	0.966271	0.230354	0.115142	0.218086	-0.969726	0.109864
13716		0.118004	-0.077674	-0.989971	0.959876	0.264316	0.093678	0.254389	-0.961303	0.105748
13717		0.097328	-0.068262	-0.992909	0.950060	0.303586	0.072256	0.296501	-0.950356	0.094400
13718		0.077105	-0.055054	-0.995502	0.937336	0.344286	0.053559	0.339789	-0.937249	0.078151
13719		0.058302	-0.039872	-0.997502	0.922212	0.384762	0.038522	0.382265	-0.922154	0.059203
13720		0.039978	-0.021302	-0.998973	0.904129	0.426400	0.027090	0.425385	-0.904284	0.036306
13721		0.021907	-0.001158	-0.999759	0.883318	0.468397	0.018813	0.468263	-0.883517	0.011284
13722		0.004604	0.016845	-0.999848	0.865249	0.501188	0.012428	0.501321	-0.865174	-0.012267
13723		-0.009530	0.028044	-0.999561	0.855924	0.517063	0.006346	0.517014	-0.855488	-0.028931
13724		-0.021478	0.034908	-0.999160	0.858036	0.513590	-0.000501	0.513141	-0.857325	-0.040984
13725		-0.031513	0.039017	-0.998742	0.869186	0.494418	-0.008110	0.493479	-0.868348	-0.049493
13726		-0.039612	0.041863	-0.998338	0.882358	0.470330	-0.015288	0.468908	-0.881497	-0.055569
13727		-0.046094	0.043836	-0.997975	0.892324	0.450887	-0.021409	0.449036	-0.891504	-0.059899
13728		-0.051431	0.045755	-0.997628	0.901366	0.432238	-0.026645	0.429994	-0.900598	-0.063473
13729		-0.056112	0.050790	-0.997132	0.910956	0.411388	-0.030308	0.408669	-0.910044	-0.069351
13730		-0.060200	0.060475	-0.996353	0.920002	0.390614	-0.031878	0.387261	-0.918566	-0.079153
13731		-0.063513	0.073295	-0.995286	0.928217	0.370665	-0.031936	0.366577	-0.925870	-0.091576
13732		-0.066193	0.086955	-0.994011	0.935013	0.353224	-0.031365	0.348381	-0.931489	-0.104685
13733		-0.067586	0.099091	-0.992780	0.938521	0.343953	-0.029562	0.338541	-0.933744	-0.116246
13734		-0.068049	0.112601	-0.991307	0.938899	0.343251	-0.025462	0.337400	-0.932470	-0.129079
13735		-0.069760	0.130944	-0.988932	0.933608	0.357819	-0.018479	0.351439	-0.924564	-0.147212
13736		-0.073159	0.148629	-0.986183	0.924793	0.380303	-0.011289	0.373371	-0.912841	-0.165274
13737		-0.076679	0.161667	-0.983862	0.915847	0.401490	-0.005406	0.394137	-0.901482	-0.178848
13738		-0.080099	0.173289	-0.981608	0.911529	0.411232	-0.001784	0.403359	-0.894908	-0.190898
13739		-0.080972	0.182846	-0.979801	0.917806	0.397026	-0.001757	0.388686	-0.899409	-0.199965
13740		-0.079652	0.201879	-0.976166	0.921731	0.387797	0.004989	0.379562	-0.899365	-0.216967
13741		-0.081682	0.208038	-0.974704	0.910712	0.412872	0.011803	0.404884	-0.886711	-0.223187
13742		-0.084454	0.191426	-0.977867	0.896911	0.442118	0.009086	0.434072	-0.876292	-0.209031
13743		-0.103470	0.198053	-0.974715	0.901960	0.431746	-0.008020	0.419241	-0.879983	-0.223309
13744		-0.112909	0.190270	-0.975217	0.909685	0.414580	-0.024435	0.399656	-0.889899	-0.219895
13745		-0.115433	0.175711	-0.977651	0.915991	0.399550	-0.036343	0.384235	-0.899714	-0.207071
13746		-0.120626	0.172858	-0.977532	0.928158	0.368906	-0.049299	0.352096	-0.913252	-0.204939
13747		-0.119588	0.167990	-0.978508	0.938024	0.342028	-0.055921	0.325283	-0.924552	-0.198481
13748		-0.109391	0.161126	-0.980853	0.941028	0.334616	-0.049982	0.320156	-0.928477	-0.188228
13749		-0.094136	0.152412	-0.983824	0.936143	0.349835	-0.035378	0.338784	-0.924330	-0.175612
13750		-0.080505	0.143346	-0.986393	0.923544	0.382986	-0.019719	0.374948	-0.912564	-0.163219
13751		-0.071058	0.139894	-0.987613	0.911448	0.411350	-0.007311	0.405232	-0.900678	-0.156736
13752		-0.061989	0.135566	-0.988827	0.900872	0.434075	0.003035	0.429636	-0.890618	-0.149035
13753		-0.051362	0.126627	-0.990620	0.892583	0.450740	0.011337	0.447947	-0.883628	-0.136176
13754		-0.038416	0.110169	-0.993170	0.886812	0.461821	0.016926	0.460532	-0.880105	-0.115440
13755		-0.025260	0.089878	-0.995632	0.882733	0.469450	0.019983	0.469196	-0.878373	-0.091196
13756		-0.014895	0.072359	-0.997267	0.880446	0.473671	0.021218	0.473912	-0.877724	-0.070764
13757		-0.007935	0.057866	-0.998293	0.880938	0.472792	0.020403	0.473165	-0.879272	-0.054727
13758		-0.002481	0.041318	-0.999143	0.885129	0.465033	0.017032	0.465339	-0.884328	-0.037725
13759		0.001731	0.024332	-0.999702	0.891606	0.452638	0.012561	0.452809	-0.891362	-0.020911
13760		0.004486	0.011057	-0.999929	0.900965	0.433803	0.008839	0.433869	-0.900940	-0.008016
13761		0.007748	0.000032	-0.999970	0.912313	0.409431	0.007082	0.409419	-0.912341	0.003143
13762		0.013735	-0.013330	-0.999817	0.923407	0.383747	0.007569	0.383576	-0.923342	0.017580
