// Start Time: Unknown
// Update Rate: 100.0Hz
// Filter Profile: human (46.1)
// Option Flags: AHS Disabled ICC Disabled 
// Firmware Version: 4.0.2
PacketCounter	SampleTimeFine	Mat[1][1]	Mat[2][1]	Mat[3][1]	Mat[1][2]	Mat[2][2]	Mat[3][2]	Mat[1][3]	Mat[2][3]	Mat[3][3]
16630		0.239067	0.015645	-0.970877	-0.676095	-0.714990	-0.178002	-0.696952	0.698960	-0.160353
16631		0.239276	0.015797	-0.970823	-0.674651	-0.716370	-0.177936	-0.698279	0.697542	-0.160753
16632		0.239449	0.015900	-0.970779	-0.673410	-0.717556	-0.177854	-0.699416	0.696319	-0.161111
16633		0.239564	0.015925	-0.970750	-0.672360	-0.718574	-0.177715	-0.700386	0.695268	-0.161437
16634		0.239610	0.015944	-0.970738	-0.671423	-0.719492	-0.177547	-0.701269	0.694318	-0.161692
16635		0.239585	0.015886	-0.970745	-0.670546	-0.720374	-0.177283	-0.702117	0.693403	-0.161939
16636		0.239520	0.015729	-0.970764	-0.669685	-0.721264	-0.176920	-0.702960	0.692482	-0.162223
16637		0.239487	0.015541	-0.970775	-0.668842	-0.722133	-0.176562	-0.703773	0.691580	-0.162547
16638		0.239470	0.015321	-0.970783	-0.668036	-0.722968	-0.176199	-0.704544	0.690712	-0.162894
16639		0.239477	0.015056	-0.970785	-0.667251	-0.723783	-0.175825	-0.705285	0.689863	-0.163284
16640		0.239471	0.014809	-0.970791	-0.666444	-0.724617	-0.175450	-0.706049	0.688993	-0.163655
16641		0.239466	0.014566	-0.970795	-0.665683	-0.725404	-0.175088	-0.706769	0.688169	-0.164013
16642		0.239420	0.014359	-0.970810	-0.664975	-0.726137	-0.174735	-0.707450	0.687400	-0.164304
16643		0.239420	0.014128	-0.970813	-0.664313	-0.726822	-0.174408	-0.708073	0.686680	-0.164631
16644		0.239372	0.013949	-0.970828	-0.663650	-0.727505	-0.174086	-0.708710	0.685961	-0.164887
16645		0.239392	0.013772	-0.970825	-0.662925	-0.728234	-0.173799	-0.709382	0.685190	-0.165204
16646		0.239383	0.013709	-0.970828	-0.662205	-0.728942	-0.173577	-0.710057	0.684439	-0.165418
16647		0.239380	0.013695	-0.970829	-0.661561	-0.729565	-0.173414	-0.710658	0.683774	-0.165583
16648		0.239354	0.013754	-0.970835	-0.661029	-0.730070	-0.173316	-0.711161	0.683234	-0.165653
16649		0.239364	0.013876	-0.970831	-0.660639	-0.730421	-0.173324	-0.711520	0.682857	-0.165669
16650		0.239323	0.014116	-0.970837	-0.660326	-0.730686	-0.173403	-0.711825	0.682568	-0.165549
16651		0.239271	0.014426	-0.970846	-0.660026	-0.730927	-0.173529	-0.712120	0.682303	-0.165368
16652		0.239236	0.014806	-0.970849	-0.659759	-0.731121	-0.173728	-0.712380	0.682088	-0.165141
16653		0.239186	0.015177	-0.970855	-0.659503	-0.731308	-0.173912	-0.712633	0.681879	-0.164909
16654		0.239210	0.015551	-0.970843	-0.659197	-0.731529	-0.174140	-0.712908	0.681633	-0.164738
16655		0.239226	0.015895	-0.970834	-0.658848	-0.731798	-0.174330	-0.713225	0.681337	-0.164592
16656		0.239243	0.016230	-0.970824	-0.658425	-0.732138	-0.174497	-0.713610	0.680963	-0.164472
16657		0.239288	0.016502	-0.970808	-0.657980	-0.732506	-0.174632	-0.714005	0.680560	-0.164422
16658		0.239340	0.016760	-0.970791	-0.657551	-0.732860	-0.174765	-0.714383	0.680173	-0.164382
16659		0.239393	0.016930	-0.970775	-0.657128	-0.733223	-0.174835	-0.714754	0.679778	-0.164404
16660		0.239461	0.017094	-0.970756	-0.656782	-0.733511	-0.174928	-0.715050	0.679463	-0.164420
16661		0.239498	0.017236	-0.970744	-0.656543	-0.733705	-0.175007	-0.715256	0.679249	-0.164405
16662		0.239589	0.017279	-0.970721	-0.656394	-0.733824	-0.175071	-0.715363	0.679120	-0.164475
16663		0.239662	0.017275	-0.970703	-0.656297	-0.733904	-0.175098	-0.715427	0.679034	-0.164551
16664		0.239747	0.017289	-0.970681	-0.656218	-0.733962	-0.175151	-0.715472	0.678970	-0.164620
16665		0.239804	0.017268	-0.970668	-0.656170	-0.734002	-0.175165	-0.715497	0.678928	-0.164686
16666		0.239815	0.017273	-0.970665	-0.656185	-0.733984	-0.175180	-0.715479	0.678947	-0.164686
16667		0.239883	0.017280	-0.970648	-0.656225	-0.733933	-0.175243	-0.715419	0.679002	-0.164719
16668		0.239987	0.017298	-0.970622	-0.656302	-0.733839	-0.175349	-0.715314	0.679103	-0.164759
16669		0.240103	0.017357	-0.970592	-0.656366	-0.733749	-0.175491	-0.715217	0.679199	-0.164783
16670		0.240272	0.017413	-0.970549	-0.656393	-0.733684	-0.175662	-0.715135	0.679268	-0.164854
16671		0.240407	0.017504	-0.970514	-0.656327	-0.733706	-0.175812	-0.715150	0.679241	-0.164900
16672		0.240533	0.017596	-0.970481	-0.656190	-0.733798	-0.175941	-0.715233	0.679140	-0.164957
16673		0.240662	0.017724	-0.970447	-0.655967	-0.733964	-0.176079	-0.715395	0.678957	-0.165011
16674		0.240776	0.017857	-0.970416	-0.655705	-0.734169	-0.176201	-0.715596	0.678731	-0.165061
16675		0.240910	0.018008	-0.970380	-0.655446	-0.734365	-0.176351	-0.715789	0.678516	-0.165112
16676		0.241077	0.018177	-0.970336	-0.655201	-0.734536	-0.176543	-0.715956	0.678326	-0.165171
16677		0.241212	0.018314	-0.970300	-0.655090	-0.734594	-0.176718	-0.716013	0.678260	-0.165195
16678		0.241332	0.018450	-0.970267	-0.655131	-0.734510	-0.176916	-0.715935	0.678347	-0.165174
16679		0.241418	0.018535	-0.970244	-0.655336	-0.734285	-0.177089	-0.715718	0.678589	-0.165123
16680		0.241497	0.018570	-0.970224	-0.655659	-0.733958	-0.177247	-0.715395	0.678941	-0.165073
16681		0.241553	0.018539	-0.970211	-0.656088	-0.733547	-0.177362	-0.714983	0.679386	-0.165027
16682		0.241595	0.018449	-0.970202	-0.656619	-0.733051	-0.177448	-0.714481	0.679924	-0.164988
16683		0.241657	0.018322	-0.970189	-0.657217	-0.732494	-0.177534	-0.713910	0.680527	-0.164971
16684		0.241690	0.018170	-0.970183	-0.657807	-0.731953	-0.177580	-0.713355	0.681113	-0.164953
16685		0.241690	0.017948	-0.970188	-0.658373	-0.731452	-0.177543	-0.712833	0.681656	-0.164968
16686		0.241682	0.017749	-0.970193	-0.658873	-0.731013	-0.177503	-0.712374	0.682133	-0.164978
16687		0.241705	0.017535	-0.970191	-0.659320	-0.730619	-0.177463	-0.711952	0.682560	-0.165033
16688		0.241719	0.017329	-0.970191	-0.659803	-0.730191	-0.177430	-0.711500	0.683023	-0.165068
16689		0.241772	0.017146	-0.970182	-0.660266	-0.729770	-0.177437	-0.711052	0.683477	-0.165117
16690		0.241835	0.016981	-0.970169	-0.660687	-0.729384	-0.177457	-0.710639	0.683894	-0.165171
16691		0.241895	0.016904	-0.970155	-0.661057	-0.729032	-0.177528	-0.710275	0.684271	-0.165175
16692		0.241963	0.016806	-0.970140	-0.661337	-0.728768	-0.177569	-0.709991	0.684555	-0.165221
16693		0.242102	0.016794	-0.970105	-0.661565	-0.728526	-0.177714	-0.709731	0.684813	-0.165268
16694		0.242236	0.016864	-0.970071	-0.661715	-0.728345	-0.177898	-0.709546	0.685003	-0.165272
16695		0.242375	0.016934	-0.970035	-0.661817	-0.728208	-0.178075	-0.709403	0.685147	-0.165292
16696		0.242510	0.017077	-0.969999	-0.661795	-0.728180	-0.178275	-0.709378	0.685173	-0.165289
16697		0.242623	0.017266	-0.969967	-0.661676	-0.728239	-0.178472	-0.709450	0.685105	-0.165263
16698		0.242743	0.017467	-0.969933	-0.661502	-0.728349	-0.178669	-0.709571	0.684984	-0.165247
16699		0.242808	0.017665	-0.969914	-0.661337	-0.728460	-0.178827	-0.709702	0.684861	-0.165193
16700		0.242893	0.017776	-0.969890	-0.661254	-0.728505	-0.178952	-0.709750	0.684810	-0.165194
16701		0.242921	0.017802	-0.969883	-0.661246	-0.728503	-0.178990	-0.709749	0.684811	-0.165197
16702		0.242938	0.017806	-0.969878	-0.661388	-0.728362	-0.179038	-0.709611	0.684961	-0.165170
16703		0.242959	0.017713	-0.969875	-0.661619	-0.728153	-0.179038	-0.709388	0.685186	-0.165192
16704		0.242989	0.017607	-0.969869	-0.661869	-0.727925	-0.179038	-0.709144	0.685430	-0.165225
16705		0.243024	0.017481	-0.969863	-0.662041	-0.727776	-0.179009	-0.708972	0.685592	-0.165294
16706		0.243067	0.017356	-0.969854	-0.662132	-0.727703	-0.178968	-0.708872	0.685673	-0.165389
16707		0.243088	0.017242	-0.969851	-0.662127	-0.727726	-0.178896	-0.708870	0.685651	-0.165485
16708		0.243075	0.017110	-0.969857	-0.662073	-0.727804	-0.178775	-0.708924	0.685572	-0.165583
16709		0.243041	0.016986	-0.969867	-0.662046	-0.727860	-0.178650	-0.708962	0.685516	-0.165654
16710		0.242988	0.016830	-0.969883	-0.662059	-0.727884	-0.178498	-0.708967	0.685493	-0.165724
16711		0.242930	0.016604	-0.969902	-0.662072	-0.727924	-0.178290	-0.708975	0.685456	-0.165841
16712		0.242874	0.016336	-0.969920	-0.662051	-0.728004	-0.178043	-0.709014	0.685378	-0.165998
16713		0.242887	0.016013	-0.969923	-0.662027	-0.728084	-0.177804	-0.709032	0.685301	-0.166241
16714		0.242915	0.015681	-0.969921	-0.662094	-0.728075	-0.177591	-0.708960	0.685318	-0.166478
16715		0.242953	0.015406	-0.969916	-0.662266	-0.727952	-0.177453	-0.708785	0.685456	-0.166655
16716		0.242945	0.015139	-0.969922	-0.662503	-0.727773	-0.177302	-0.708567	0.685651	-0.166779
16717		0.242907	0.014885	-0.969935	-0.662748	-0.727589	-0.177142	-0.708351	0.685852	-0.166871
16718		0.242869	0.014704	-0.969948	-0.662932	-0.727451	-0.177022	-0.708192	0.686002	-0.166928
16719		0.242822	0.014576	-0.969961	-0.663042	-0.727376	-0.176918	-0.708105	0.686085	-0.166958
16720		0.242774	0.014522	-0.969974	-0.663115	-0.727323	-0.176860	-0.708053	0.686142	-0.166946
16721		0.242751	0.014552	-0.969979	-0.663174	-0.727265	-0.176879	-0.708006	0.686203	-0.166894
16722		0.242711	0.014640	-0.969988	-0.663256	-0.727176	-0.176935	-0.707943	0.686295	-0.166784
16723		0.242665	0.014691	-0.969999	-0.663375	-0.727060	-0.176969	-0.707847	0.686417	-0.166686
16724		0.242653	0.014727	-0.970001	-0.663491	-0.726942	-0.177014	-0.707742	0.686540	-0.166623
16725		0.242629	0.014669	-0.970008	-0.663461	-0.726987	-0.176946	-0.707779	0.686495	-0.166655
16726		0.242766	0.014452	-0.969977	-0.663348	-0.727112	-0.176856	-0.707838	0.686367	-0.166931
16727		0.242890	0.014159	-0.969951	-0.663244	-0.727244	-0.176702	-0.707893	0.686233	-0.167249
16728		0.242949	0.013877	-0.969940	-0.663075	-0.727448	-0.176494	-0.708030	0.686022	-0.167532
16729		0.242968	0.013538	-0.969940	-0.663106	-0.727477	-0.176261	-0.707995	0.685999	-0.167776
16730		0.242987	0.013007	-0.969942	-0.663481	-0.727207	-0.175965	-0.707637	0.686295	-0.168072
16731		0.242979	0.012327	-0.969953	-0.664240	-0.726594	-0.175630	-0.706927	0.686956	-0.168359
16732		0.242918	0.011417	-0.969980	-0.665413	-0.725628	-0.175184	-0.705844	0.687993	-0.168671
16733		0.242792	0.010343	-0.970023	-0.666928	-0.724365	-0.174652	-0.704457	0.689340	-0.168972
16734		0.242797	0.008952	-0.970036	-0.668486	-0.723085	-0.173994	-0.702976	0.690701	-0.169579
16735		0.242824	0.007257	-0.970043	-0.670237	-0.721660	-0.173175	-0.701298	0.692210	-0.170372
16736		0.242450	0.005567	-0.970148	-0.672006	-0.720276	-0.172075	-0.699732	0.693665	-0.170890
16737		0.241878	0.003713	-0.970300	-0.673919	-0.718804	-0.170746	-0.698089	0.695203	-0.171361
16738		0.241196	0.001449	-0.970475	-0.676096	-0.717145	-0.169104	-0.696217	0.696922	-0.171993
16739		0.240515	-0.001335	-0.970645	-0.678317	-0.715517	-0.167096	-0.694290	0.698594	-0.172998
16740		0.239677	-0.004627	-0.970842	-0.680440	-0.714083	-0.164580	-0.692500	0.700046	-0.174298
16741		0.238725	-0.008497	-0.971050	-0.682063	-0.713251	-0.161438	-0.691231	0.700857	-0.176066
16742		0.237716	-0.013142	-0.971246	-0.683841	-0.712378	-0.157733	-0.689821	0.701673	-0.178330
16743		0.236458	-0.018473	-0.971466	-0.686270	-0.710961	-0.153521	-0.687838	0.702989	-0.180790
16744		0.234605	-0.024393	-0.971785	-0.688957	-0.709423	-0.148518	-0.685784	0.704361	-0.183240
16745		0.232056	-0.030909	-0.972211	-0.691756	-0.707910	-0.142608	-0.683830	0.705626	-0.185656
16746		0.228975	-0.038394	-0.972675	-0.694450	-0.706651	-0.135585	-0.682136	0.706520	-0.188468
16747		0.225005	-0.046641	-0.973241	-0.696204	-0.706502	-0.127098	-0.681669	0.706172	-0.191438
16748		0.219819	-0.055470	-0.973962	-0.695827	-0.708667	-0.116685	-0.683743	0.703359	-0.194376
16749		0.213930	-0.064872	-0.974692	-0.692756	-0.713552	-0.104558	-0.688711	0.697592	-0.197591
16750		0.206364	-0.074601	-0.975627	-0.688403	-0.719650	-0.090583	-0.695353	0.690318	-0.199865
16751		0.196627	-0.084527	-0.976828	-0.685029	-0.724625	-0.075187	-0.701479	0.683940	-0.200384
16752		0.184553	-0.094908	-0.978229	-0.683637	-0.727483	-0.058394	-0.706103	0.679530	-0.199141
16753		0.171053	-0.106073	-0.979535	-0.683938	-0.728412	-0.040554	-0.709204	0.676878	-0.197144
16754		0.156580	-0.118076	-0.980582	-0.682867	-0.730238	-0.021110	-0.713565	0.672912	-0.194971
16755		0.141612	-0.130481	-0.981285	-0.676494	-0.736448	0.000299	-0.722705	0.663791	-0.192559
16756		0.126539	-0.143137	-0.981580	-0.667707	-0.744086	0.022428	-0.733591	0.652570	-0.189729
16757		0.112184	-0.155200	-0.981493	-0.660191	-0.749859	0.043113	-0.742672	0.643136	-0.186584
16758		0.098995	-0.166315	-0.981091	-0.659813	-0.748999	0.060394	-0.744881	0.641358	-0.183884
16759		0.088096	-0.176461	-0.980357	-0.666919	-0.741493	0.073536	-0.739904	0.647341	-0.183008
16761		0.071365	-0.193654	-0.978471	-0.680821	-0.726380	0.094106	-0.728965	0.659447	-0.183682
16762		0.066211	-0.201097	-0.977331	-0.686227	-0.720241	0.101709	-0.724368	0.663937	-0.185686
16763		0.062397	-0.206719	-0.976409	-0.690614	-0.715221	0.107289	-0.720527	0.667627	-0.187390
16764		0.061239	-0.210656	-0.975640	-0.693889	-0.711616	0.110095	-0.717473	0.670244	-0.189750
16765		0.061436	-0.212564	-0.975214	-0.697688	-0.707854	0.110336	-0.713762	0.673617	-0.191791
16767		0.063444	-0.210631	-0.975505	-0.710492	-0.695968	0.104065	-0.700840	0.686486	-0.193806
16768		0.064681	-0.206443	-0.976318	-0.717710	-0.689380	0.098222	-0.693331	0.694361	-0.192756
16770		0.067057	-0.187629	-0.979948	-0.739605	-0.668576	0.077401	-0.669693	0.719584	-0.183604
16771		0.067865	-0.174342	-0.982344	-0.753603	-0.654202	0.064042	-0.653817	0.735951	-0.175782
16772		0.068459	-0.160949	-0.984586	-0.768150	-0.638241	0.050922	-0.636599	0.752823	-0.167327
16773		0.069226	-0.148108	-0.986545	-0.783517	-0.620199	0.038130	-0.617502	0.770336	-0.158979
16774		0.069071	-0.134835	-0.988458	-0.799006	-0.600756	0.026116	-0.597343	0.787980	-0.149229
16776		0.065462	-0.107118	-0.992089	-0.824758	-0.565447	0.006632	-0.561684	0.817799	-0.125362
16777		0.061213	-0.093295	-0.993755	-0.835447	-0.549571	0.000133	-0.546151	0.830222	-0.111584
16779		0.049523	-0.066639	-0.996547	-0.857633	-0.514196	-0.008236	-0.511871	0.855080	-0.082616
16780		0.043168	-0.053211	-0.997650	-0.868995	-0.494694	-0.011216	-0.492934	0.867437	-0.067595
16781		0.037512	-0.040423	-0.998478	-0.878567	-0.477422	-0.013679	-0.476143	0.877744	-0.053423
16782		0.032433	-0.028176	-0.999077	-0.884488	-0.466304	-0.015563	-0.465435	0.884176	-0.040045
16783		0.026877	-0.015136	-0.999524	-0.886802	-0.461842	-0.016852	-0.461367	0.886833	-0.025836
16784		0.020778	-0.001982	-0.999782	-0.886601	-0.462203	-0.017510	-0.462068	0.886772	-0.011360
16785		0.013497	0.010974	-0.999849	-0.883203	-0.468680	-0.017066	-0.468796	0.883300	0.003367
16786		0.004151	0.025796	-0.999659	-0.876247	-0.481594	-0.016066	-0.481844	0.876015	0.020605
16787		-0.006524	0.041638	-0.999111	-0.865163	-0.501259	-0.015240	-0.501448	0.864295	0.039294
16788		-0.017535	0.058018	-0.998162	-0.850445	-0.525832	-0.015624	-0.525771	0.848608	0.058562
16789		-0.027716	0.074062	-0.996868	-0.834679	-0.550452	-0.017689	-0.550039	0.831575	0.077074
16790		-0.036016	0.089368	-0.995347	-0.822313	-0.568636	-0.021300	-0.567894	0.817720	0.093969
16791		-0.042928	0.103991	-0.993651	-0.814291	-0.579896	-0.025510	-0.578867	0.808026	0.109572
16792		-0.048909	0.117510	-0.991867	-0.808802	-0.587331	-0.029702	-0.586044	0.800771	0.123768
16793		-0.054462	0.130883	-0.989901	-0.805106	-0.592155	-0.033998	-0.590625	0.795124	0.137625
16794		-0.059779	0.143511	-0.987842	-0.801668	-0.596550	-0.038152	-0.594773	0.789641	0.150709
16795		-0.065433	0.155075	-0.985733	-0.798168	-0.600999	-0.041566	-0.598870	0.784061	0.163101
16796		-0.071630	0.165544	-0.983598	-0.796419	-0.603177	-0.043518	-0.600488	0.780239	0.175048
16797		-0.078140	0.174012	-0.981638	-0.796813	-0.602665	-0.043405	-0.599152	0.778791	0.185747
16798		-0.085412	0.181200	-0.979730	-0.798591	-0.600446	-0.041431	-0.595782	0.778866	0.195990
16799		-0.095933	0.189114	-0.977258	-0.799646	-0.599300	-0.037476	-0.592758	0.777866	0.208717
16800		-0.109259	0.195996	-0.974499	-0.799320	-0.600101	-0.031077	-0.590889	0.775541	0.222230
16801		-0.122665	0.198464	-0.972402	-0.798080	-0.602142	-0.022220	-0.589934	0.773329	0.232252
16802		-0.136107	0.197831	-0.970741	-0.796210	-0.604908	-0.011640	-0.589512	0.771329	0.239847
16803		-0.149641	0.197458	-0.968823	-0.787494	-0.616310	-0.003978	-0.597881	0.762347	0.247722
16804		-0.160132	0.195377	-0.967567	-0.777303	-0.629125	0.001607	-0.608406	0.752350	0.252610
16805		-0.170719	0.194496	-0.965933	-0.777997	-0.628171	0.011017	-0.604628	0.753374	0.258558
16806		-0.177632	0.187839	-0.966004	-0.791028	-0.611201	0.026609	-0.585424	0.768863	0.257155
16807		-0.181495	0.174135	-0.967852	-0.804512	-0.592282	0.044302	-0.565527	0.786689	0.247590
16808		-0.183605	0.157473	-0.970305	-0.818375	-0.571315	0.062137	-0.544565	0.805482	0.233769
16809		-0.193106	0.145117	-0.970387	-0.817191	-0.571173	0.077204	-0.543055	0.807900	0.228885
16810		-0.207081	0.137125	-0.968666	-0.792481	-0.604099	0.083900	-0.573665	0.785023	0.233767
16811		-0.209628	0.134455	-0.968493	-0.772731	-0.629693	0.079836	-0.599119	0.765120	0.235899
16812		-0.200509	0.140242	-0.969602	-0.762630	-0.643599	0.064619	-0.614972	0.752405	0.236000
16813		-0.184752	0.144285	-0.972136	-0.757998	-0.650524	0.047504	-0.625544	0.745654	0.229553
16814		-0.168345	0.151495	-0.974017	-0.756541	-0.653296	0.029146	-0.631906	0.741791	0.224591
16815		-0.148585	0.161862	-0.975563	-0.758525	-0.651602	0.007417	-0.634478	0.741091	0.219595
16816		-0.128065	0.174887	-0.976224	-0.759901	-0.649824	-0.016727	-0.637299	0.739691	0.216117
16817		-0.106658	0.186323	-0.976682	-0.762256	-0.646038	-0.040004	-0.638427	0.740215	0.210931
16818		-0.084723	0.194447	-0.977247	-0.763582	-0.642757	-0.061692	-0.640129	0.740982	0.202932
16819		-0.065062	0.200241	-0.977584	-0.760692	-0.644003	-0.081286	-0.645844	0.738352	0.194222
16820		-0.051667	0.205127	-0.977371	-0.754864	-0.648779	-0.096258	-0.653843	0.732809	0.188364
16821		-0.044370	0.207679	-0.977190	-0.753149	-0.649600	-0.103860	-0.656352	0.731361	0.185235
16822		-0.038526	0.203069	-0.978406	-0.760272	-0.641359	-0.103178	-0.648462	0.739880	0.179097
16823		-0.030724	0.188968	-0.981503	-0.775466	-0.624067	-0.095877	-0.630641	0.758176	0.165712
16824		-0.021636	0.167937	-0.985560	-0.789956	-0.607088	-0.086105	-0.612782	0.776686	0.145798
16825		-0.016296	0.146079	-0.989139	-0.796199	-0.600301	-0.075537	-0.604815	0.786321	0.126090
16826		-0.014598	0.124041	-0.992170	-0.801886	-0.594200	-0.062488	-0.597298	0.794695	0.108141
16827		-0.012453	0.098356	-0.995073	-0.812949	-0.580419	-0.047196	-0.582202	0.808356	0.087187
16828		-0.009142	0.070497	-0.997470	-0.828631	-0.558885	-0.031905	-0.559720	0.826243	0.063526
16829		-0.006377	0.043881	-0.999016	-0.843978	-0.536070	-0.018159	-0.536340	0.843032	0.040453
16830		-0.002680	0.019523	-0.999806	-0.853712	-0.520686	-0.007879	-0.520739	0.853525	0.018063
16831		0.002282	-0.001562	-0.999996	-0.855282	-0.518162	-0.001142	-0.518158	0.855281	-0.002519
16832		0.007745	-0.016527	-0.999833	-0.849379	-0.527779	0.002145	-0.527727	0.849221	-0.018125
16833		0.011752	-0.024015	-0.999643	-0.838703	-0.544580	0.003223	-0.544462	0.838365	-0.026541
16834		0.017700	-0.029867	-0.999397	-0.829212	-0.558930	0.002018	-0.558654	0.828676	-0.034659
16835		0.029472	-0.038113	-0.998839	-0.821992	-0.569494	-0.002524	-0.568736	0.821112	-0.048113
16836		0.045755	-0.048292	-0.997785	-0.817986	-0.575157	-0.009673	-0.573416	0.816616	-0.065819
16837		0.063525	-0.058199	-0.996282	-0.815639	-0.578275	-0.018226	-0.575064	0.813764	-0.084204
16838		0.082287	-0.067747	-0.994303	-0.814102	-0.580054	-0.027852	-0.574863	0.811756	-0.102884
16839		0.101029	-0.076072	-0.991971	-0.813315	-0.580561	-0.038311	-0.572985	0.810655	-0.120524
16840		0.116783	-0.080950	-0.989853	-0.812840	-0.580471	-0.048428	-0.570660	0.810248	-0.133588
16841		0.130021	-0.083682	-0.987974	-0.812674	-0.579841	-0.057838	-0.568028	0.810421	-0.143397
16842		0.141357	-0.087687	-0.986068	-0.812861	-0.578814	-0.065055	-0.565045	0.810732	-0.153096
16843		0.150319	-0.093779	-0.984180	-0.816006	-0.573794	-0.069958	-0.558156	0.813613	-0.162777
16844		0.155711	-0.101764	-0.982547	-0.829370	-0.553767	-0.074081	-0.536563	0.826430	-0.170628
16845		0.157323	-0.110807	-0.981311	-0.843504	-0.531835	-0.075176	-0.513566	0.839567	-0.177136
16846		0.151158	-0.112118	-0.982131	-0.842304	-0.534619	-0.068607	-0.517374	0.837623	-0.175249
16847		0.140603	-0.112033	-0.983707	-0.835935	-0.545826	-0.057319	-0.530512	0.830375	-0.170397
16848		0.129393	-0.123696	-0.983848	-0.831490	-0.554120	-0.039687	-0.540261	0.823195	-0.174551
16849		0.124991	-0.137869	-0.982532	-0.828580	-0.559222	-0.026936	-0.545740	0.817474	-0.184133
16850		0.127098	-0.137699	-0.982286	-0.844857	-0.533880	-0.034476	-0.519675	0.834273	-0.184191
16851		0.136991	-0.149592	-0.979212	-0.849012	-0.526986	-0.038270	-0.510306	0.836605	-0.199198
16852		0.142980	-0.157343	-0.977139	-0.854014	-0.518595	-0.041458	-0.500216	0.840418	-0.208522
16853		0.145044	-0.156487	-0.976972	-0.860459	-0.507397	-0.046474	-0.488440	0.847384	-0.208245
16854		0.138949	-0.149249	-0.978988	-0.855553	-0.515945	-0.042773	-0.498720	0.843520	-0.199381
16855		0.127842	-0.139314	-0.981961	-0.851646	-0.522832	-0.036700	-0.508288	0.840975	-0.185486
16856		0.115575	-0.127141	-0.985128	-0.849330	-0.526913	-0.031639	-0.515054	0.840356	-0.168883
16857		0.110325	-0.116047	-0.987097	-0.852925	-0.520919	-0.034088	-0.510242	0.845681	-0.156450
16858		0.104771	-0.101238	-0.989330	-0.855619	-0.516226	-0.037786	-0.506892	0.850448	-0.140707
16859		0.097628	-0.086701	-0.991439	-0.861391	-0.506321	-0.040544	-0.498472	0.857975	-0.124115
16860		0.089332	-0.074717	-0.993195	-0.872049	-0.487635	-0.041751	-0.481197	0.869845	-0.108718
16861		0.079564	-0.064765	-0.994724	-0.880521	-0.472344	-0.039676	-0.467282	0.879031	-0.094609
16863		0.051397	-0.041127	-0.997831	-0.883384	-0.467916	-0.026216	-0.465823	0.882815	-0.060381
16864		0.036857	-0.028261	-0.998921	-0.884837	-0.465493	-0.019478	-0.464440	0.884600	-0.042163
16865		0.025604	-0.018222	-0.999506	-0.888237	-0.459160	-0.014383	-0.458671	0.888167	-0.027941
16866		0.016461	-0.008556	-0.999828	-0.889125	-0.457539	-0.010723	-0.457369	0.889148	-0.015139
16867		0.008602	0.002631	-0.999960	-0.887088	-0.461516	-0.008846	-0.461521	0.887128	-0.001636
16868		0.001711	0.015278	-0.999882	-0.882912	-0.469458	-0.008684	-0.469535	0.882823	0.012686
16869		-0.005417	0.028998	-0.999565	-0.875951	-0.482311	-0.009245	-0.482369	0.875520	0.028014
16870		-0.014511	0.044426	-0.998907	-0.867543	-0.497271	-0.009513	-0.497150	0.866457	0.045758
16871		-0.025392	0.060793	-0.997827	-0.859980	-0.510244	-0.009203	-0.509695	0.857878	0.065236
16872		-0.036315	0.077133	-0.996359	-0.854284	-0.519727	-0.009098	-0.518536	0.850843	0.084768
16873		-0.044460	0.091605	-0.994802	-0.852338	-0.522894	-0.010057	-0.521098	0.847461	0.101327
16874		-0.048552	0.103374	-0.993457	-0.854397	-0.519475	-0.012298	-0.517348	0.848209	0.113544
16875		-0.050979	0.114775	-0.992083	-0.859007	-0.511742	-0.015063	-0.509419	0.851438	0.124680
16876		-0.054123	0.128516	-0.990229	-0.863792	-0.503522	-0.018137	-0.500934	0.854370	0.138263
16877		-0.058636	0.143322	-0.987938	-0.864917	-0.501458	-0.021413	-0.498478	0.853229	0.153365
16878		-0.065676	0.159592	-0.984996	-0.864276	-0.502456	-0.023782	-0.498712	0.849746	0.170931
16879		-0.074040	0.175627	-0.981669	-0.863811	-0.503202	-0.024875	-0.498346	0.846134	0.188965
16880		-0.084704	0.189666	-0.978188	-0.861964	-0.506422	-0.023553	-0.499843	0.841168	0.206381
16881		-0.097631	0.200760	-0.974763	-0.857930	-0.513385	-0.019806	-0.504405	0.834345	0.222360
16882		-0.112818	0.208946	-0.971398	-0.852491	-0.522571	-0.013396	-0.510423	0.826596	0.237080
16883		-0.130384	0.215688	-0.967718	-0.846504	-0.532362	-0.004602	-0.516169	0.818577	0.251992
16884		-0.148553	0.220086	-0.964103	-0.838042	-0.545586	0.004583	-0.524992	0.808640	0.265490
16885		-0.166572	0.221698	-0.960783	-0.823944	-0.566542	0.012120	-0.541637	0.793650	0.277037
16886		-0.189214	0.226071	-0.955558	-0.806960	-0.590263	0.020142	-0.559476	0.774908	0.294116
16887		-0.210847	0.231979	-0.949594	-0.791810	-0.610182	0.026750	-0.573220	0.757538	0.312338
16889		-0.239221	0.228782	-0.943627	-0.763176	-0.645127	0.037064	-0.600280	0.729020	0.328929
16890		-0.244166	0.220119	-0.944421	-0.770637	-0.635216	0.051185	-0.588644	0.740303	0.324730
16891		-0.242570	0.203797	-0.948486	-0.786505	-0.613686	0.069285	-0.567953	0.762795	0.309149
16892		-0.247936	0.189764	-0.950009	-0.785421	-0.613447	0.082445	-0.567135	0.766598	0.301140
16893		-0.258934	0.183336	-0.948336	-0.765510	-0.637686	0.085735	-0.589022	0.748161	0.305464
16894		-0.266733	0.187353	-0.945385	-0.738913	-0.669525	0.075795	-0.618758	0.718774	0.317022
16895		-0.263860	0.193264	-0.945001	-0.726441	-0.684347	0.062877	-0.634557	0.703078	0.320967
16896		-0.252384	0.202178	-0.946270	-0.717889	-0.694827	0.043016	-0.648797	0.690173	0.320504
16897		-0.236101	0.212133	-0.948291	-0.715422	-0.698349	0.021902	-0.657592	0.683599	0.316645
16898		-0.216764	0.223633	-0.950264	-0.716975	-0.697099	-0.000505	-0.662541	0.681206	0.311445
16899		-0.196949	0.235420	-0.951729	-0.721071	-0.692509	-0.022082	-0.664280	0.681916	0.306144
16900		-0.176858	0.244335	-0.953426	-0.727373	-0.685038	-0.040629	-0.663060	0.686311	0.298877
16901		-0.157807	0.251179	-0.954990	-0.730818	-0.680094	-0.058112	-0.664080	0.688753	0.290890
16902		-0.141548	0.255820	-0.956305	-0.730399	-0.679050	-0.073541	-0.668192	0.688075	0.282969
16903		-0.128159	0.256503	-0.958009	-0.728929	-0.679368	-0.084384	-0.672486	0.687506	0.274040
16904		-0.119087	0.254252	-0.959778	-0.728956	-0.678705	-0.089347	-0.674123	0.688996	0.266163
16905		-0.113003	0.249006	-0.961887	-0.731722	-0.675771	-0.088975	-0.672170	0.693780	0.258568
16906		-0.107630	0.240137	-0.964754	-0.737172	-0.670385	-0.084625	-0.667078	0.702082	0.249176
16907		-0.103456	0.229228	-0.967859	-0.747241	-0.660138	-0.076473	-0.656451	0.715313	0.239583
16908		-0.102048	0.218259	-0.970541	-0.759678	-0.646980	-0.065618	-0.642243	0.730602	0.231830
16909		-0.102662	0.207031	-0.972933	-0.773174	-0.631985	-0.052897	-0.625830	0.746816	0.224952
16910		-0.102516	0.193186	-0.975792	-0.788714	-0.613547	-0.038608	-0.606152	0.765663	0.215267
16911		-0.097730	0.174691	-0.979761	-0.807072	-0.589937	-0.024681	-0.582309	0.788326	0.198643
16912		-0.088159	0.151047	-0.984588	-0.828530	-0.559822	-0.011697	-0.552961	0.814729	0.174501
16913		-0.074983	0.124209	-0.989419	-0.850184	-0.526483	-0.001663	-0.521118	0.841064	0.145078
16914		-0.061367	0.096089	-0.993479	-0.866830	-0.498575	0.005322	-0.494813	0.861504	0.113889
16915		-0.048374	0.069927	-0.996379	-0.877928	-0.478708	0.009027	-0.476343	0.875185	0.084548
16916		-0.035010	0.045656	-0.998344	-0.883943	-0.467496	0.009619	-0.466283	0.882815	0.056724
16917		-0.021466	0.026476	-0.999419	-0.885001	-0.465542	0.006676	-0.465094	0.884630	0.033424
16918		-0.011003	0.012465	-0.999862	-0.878977	-0.476849	0.003728	-0.476737	0.878897	0.016203
16919		-0.002771	0.000598	-0.999996	-0.863762	-0.503895	0.002092	-0.503892	0.863765	0.001913
16920		0.005598	-0.012534	-0.999906	-0.843101	-0.537751	0.002021	-0.537726	0.843010	-0.013578
16921		0.015022	-0.027559	-0.999507	-0.822944	-0.568113	0.003296	-0.567924	0.822489	-0.031213
16922		0.025095	-0.042810	-0.998768	-0.808469	-0.588518	0.004912	-0.588003	0.807350	-0.049380
16923		0.034036	-0.055444	-0.997882	-0.799027	-0.601264	0.006154	-0.600331	0.797125	-0.064766
16924		0.044621	-0.067084	-0.996749	-0.797806	-0.602895	0.004862	-0.601261	0.794995	-0.080422
16925		0.058945	-0.079748	-0.995071	-0.801786	-0.597611	0.000399	-0.594697	0.797811	-0.099167
16926		0.075603	-0.093337	-0.992760	-0.806786	-0.590815	-0.005893	-0.585987	0.801390	-0.119970
16927		0.093051	-0.107489	-0.989842	-0.812262	-0.583148	-0.013032	-0.575823	0.805224	-0.141572
16928		0.107068	-0.116584	-0.987393	-0.812659	-0.582418	-0.019354	-0.572819	0.804486	-0.157101
16929		0.116091	-0.120037	-0.985958	-0.809651	-0.586423	-0.023937	-0.575316	0.801061	-0.165267
16930		0.122562	-0.121372	-0.985011	-0.803189	-0.595129	-0.026608	-0.582980	0.794412	-0.170425
16931		0.131210	-0.123820	-0.983592	-0.788789	-0.614029	-0.027926	-0.600496	0.779510	-0.178235
16932		0.149275	-0.128837	-0.980366	-0.789955	-0.611867	-0.039872	-0.594717	0.780397	-0.193112
16933		0.143517	-0.120256	-0.982314	-0.815518	-0.576692	-0.048549	-0.560655	0.808062	-0.180836
16934		0.127174	-0.120197	-0.984571	-0.821768	-0.568637	-0.036725	-0.555449	0.813759	-0.171090
16935		0.104676	-0.125309	-0.986580	-0.790712	-0.612158	-0.006142	-0.603173	0.780743	-0.163162
16936		0.079658	-0.126470	-0.988767	-0.768786	-0.639199	0.019822	-0.634526	0.758571	-0.148146
16937		0.062286	-0.129735	-0.989590	-0.763866	-0.644348	0.036395	-0.642362	0.753647	-0.139234
16938		0.053931	-0.134238	-0.989480	-0.759951	-0.648313	0.046533	-0.647739	0.749447	-0.136979
16939		0.052380	-0.136074	-0.989313	-0.763949	-0.643484	0.048060	-0.643147	0.753267	-0.137659
16940		0.055929	-0.136121	-0.989112	-0.774435	-0.631185	0.043073	-0.630176	0.763595	-0.140718
16941		0.064166	-0.134054	-0.988894	-0.787211	-0.615832	0.032403	-0.613337	0.776389	-0.145044
16942		0.075642	-0.130413	-0.988570	-0.801701	-0.597470	0.017475	-0.592920	0.791216	-0.149746
16943		0.090700	-0.125762	-0.987906	-0.815207	-0.579169	-0.001115	-0.572024	0.805448	-0.155053
16944		0.105054	-0.120542	-0.987134	-0.825411	-0.564214	-0.018945	-0.554671	0.816782	-0.158769
16945		0.114739	-0.115746	-0.986629	-0.829661	-0.557401	-0.031093	-0.546349	0.822136	-0.159986
16946		0.119746	-0.112762	-0.986380	-0.827867	-0.559734	-0.036515	-0.547993	0.820964	-0.160378
16947		0.120110	-0.112707	-0.986342	-0.819646	-0.571832	-0.034469	-0.560137	0.812592	-0.161063
16948		0.116355	-0.116225	-0.986384	-0.804822	-0.592987	-0.025066	-0.582000	0.796780	-0.162538
16949		0.107336	-0.121215	-0.986806	-0.786165	-0.617942	-0.009607	-0.608625	0.776823	-0.161623
16950		0.092687	-0.125608	-0.987741	-0.772502	-0.634959	0.008256	-0.628211	0.762267	-0.155885
16951		0.074824	-0.131437	-0.988497	-0.764593	-0.643916	0.027744	-0.640156	0.753721	-0.148676
16952		0.055906	-0.141019	-0.988427	-0.760017	-0.648018	0.049466	-0.647495	0.748455	-0.143405
16953		0.037192	-0.153447	-0.987457	-0.756938	-0.649462	0.072414	-0.652427	0.744751	-0.140305
16954		0.021018	-0.165935	-0.985913	-0.756239	-0.647669	0.092885	-0.653958	0.743633	-0.139099
16955		0.009390	-0.178346	-0.983923	-0.760710	-0.639920	0.108732	-0.649024	0.747459	-0.141679
16956		0.001030	-0.189446	-0.981891	-0.766670	-0.630564	0.120856	-0.642041	0.752661	-0.145892
16957		-0.003450	-0.200999	-0.979585	-0.769832	-0.624682	0.130888	-0.638238	0.754567	-0.152580
16958		-0.004766	-0.212208	-0.977213	-0.769370	-0.623466	0.139142	-0.638786	0.752501	-0.160295
16959		-0.005454	-0.219942	-0.975498	-0.769944	-0.621548	0.144444	-0.638088	0.751866	-0.165953
16960		-0.004083	-0.226413	-0.974023	-0.772970	-0.617245	0.146719	-0.634430	0.753489	-0.172491
16961		0.000018	-0.231312	-0.972880	-0.774820	-0.615041	0.146218	-0.632182	0.753804	-0.179237
16962		0.005284	-0.230969	-0.972947	-0.774274	-0.616671	0.142187	-0.632829	0.752576	-0.182091
16963		0.010456	-0.224592	-0.974397	-0.771299	-0.621972	0.135084	-0.636387	0.750139	-0.179731
16964		0.016170	-0.215126	-0.976452	-0.766743	-0.629471	0.125984	-0.641751	0.746650	-0.175125
16965		0.023621	-0.205736	-0.978322	-0.762116	-0.637043	0.115566	-0.647009	0.742865	-0.171842
16966		0.032127	-0.196313	-0.980015	-0.757279	-0.644706	0.104320	-0.652301	0.738793	-0.169376
16967		0.040247	-0.186489	-0.981632	-0.751226	-0.653413	0.093334	-0.658817	0.733671	-0.166394
16968		0.046546	-0.176764	-0.983152	-0.741527	-0.665573	0.084560	-0.669307	0.725097	-0.162055
16969		0.049637	-0.168243	-0.984495	-0.729655	-0.679204	0.079283	-0.682012	0.714406	-0.156472
16970		0.048652	-0.160977	-0.985758	-0.715899	-0.693836	0.077972	-0.696507	0.701910	-0.148999
16971		0.043624	-0.154555	-0.987021	-0.699048	-0.710545	0.080366	-0.713743	0.686469	-0.139039
16972		0.035949	-0.148413	-0.988272	-0.681472	-0.726963	0.084382	-0.730960	0.670447	-0.127272
16973		0.027381	-0.143665	-0.989247	-0.666159	-0.740469	0.089098	-0.745307	0.656556	-0.115978
16974		0.018974	-0.140309	-0.989926	-0.652352	-0.752053	0.094090	-0.757678	0.643995	-0.105800
16975		0.011907	-0.138968	-0.990225	-0.639793	-0.762111	0.099261	-0.768455	0.632357	-0.097985
16976		0.005461	-0.137611	-0.990471	-0.630044	-0.769637	0.103456	-0.776540	0.623475	-0.090905
16977		0.000961	-0.135696	-0.990750	-0.625265	-0.773276	0.105304	-0.780412	0.619380	-0.085589
16978		-0.001928	-0.133345	-0.991068	-0.616522	-0.780147	0.106165	-0.787335	0.611220	-0.080706
16979		-0.004550	-0.129836	-0.991525	-0.605870	-0.788467	0.106027	-0.795551	0.601217	-0.075076
16980		-0.005328	-0.124897	-0.992155	-0.599044	-0.794041	0.103175	-0.800698	0.594895	-0.070588
16981		-0.002210	-0.120275	-0.992738	-0.599210	-0.794620	0.097606	-0.800589	0.595074	-0.070314
16982		0.003138	-0.116992	-0.993128	-0.602958	-0.792513	0.091454	-0.797767	0.598528	-0.073028
16983		0.005276	-0.113422	-0.993533	-0.609934	-0.787697	0.086685	-0.792435	0.605532	-0.073336
16984		0.003925	-0.111248	-0.993785	-0.623328	-0.777375	0.084560	-0.781950	0.619122	-0.072395
16985		0.000340	-0.111301	-0.993787	-0.640666	-0.763073	0.085242	-0.767820	0.636656	-0.071567
16986		-0.004795	-0.113788	-0.993493	-0.660558	-0.745532	0.088577	-0.750760	0.656685	-0.071588
16987		-0.010436	-0.118793	-0.992864	-0.679338	-0.727752	0.094214	-0.733751	0.675474	-0.073105
16988		-0.015250	-0.126625	-0.991833	-0.694383	-0.712394	0.101626	-0.719444	0.690262	-0.077063
16989		-0.021657	-0.134812	-0.990634	-0.702802	-0.702674	0.110989	-0.711055	0.698624	-0.079529
16990		-0.031223	-0.142298	-0.989331	-0.703131	-0.700355	0.122924	-0.710375	0.699468	-0.078186
16991		-0.042751	-0.149907	-0.987775	-0.700672	-0.700284	0.136602	-0.712201	0.697947	-0.075097
16992		-0.053397	-0.160161	-0.985646	-0.700763	-0.697176	0.151250	-0.711393	0.698780	-0.075008
16993		-0.059161	-0.177359	-0.982366	-0.708281	-0.686013	0.166509	-0.703448	0.705642	-0.085035
16994		-0.065321	-0.197993	-0.978024	-0.707560	-0.681923	0.185307	-0.703627	0.704116	-0.095548
16995		-0.079978	-0.212063	-0.973978	-0.681750	-0.701200	0.208654	-0.727201	0.680697	-0.088493
16996		-0.094776	-0.226341	-0.969426	-0.643063	-0.729450	0.233180	-0.759926	0.645502	-0.076417
16997		-0.122289	-0.228797	-0.965762	-0.594074	-0.762622	0.255896	-0.795060	0.605028	-0.042662
16998		-0.142452	-0.235521	-0.961372	-0.547602	-0.790340	0.274763	-0.824523	0.565591	-0.016386
16999		-0.155617	-0.247841	-0.956221	-0.516514	-0.804723	0.292633	-0.842019	0.539440	-0.002785
17000		-0.166893	-0.256492	-0.952029	-0.509806	-0.804032	0.305990	-0.843946	0.536418	0.003426
17001		-0.168373	-0.273710	-0.946960	-0.516173	-0.793950	0.321261	-0.839771	0.542887	-0.007602
17002		-0.171627	-0.306622	-0.936230	-0.527731	-0.773865	0.350188	-0.831892	0.554180	-0.028997
17003		-0.203580	-0.325206	-0.923470	-0.539532	-0.749814	0.382993	-0.816982	0.576212	-0.022812
17004		-0.249070	-0.328725	-0.910991	-0.508200	-0.756368	0.411875	-0.824437	0.565551	0.021331
17005		-0.279710	-0.334160	-0.900055	-0.484929	-0.759931	0.432838	-0.828617	0.557532	0.050516
17006		-0.297115	-0.341890	-0.891535	-0.485905	-0.749623	0.449402	-0.821961	0.566725	0.056598
17007		-0.308521	-0.349159	-0.884818	-0.488982	-0.739664	0.462379	-0.815911	0.575314	0.057470
17008		-0.313530	-0.356411	-0.880154	-0.489660	-0.733469	0.471440	-0.813592	0.578787	0.055444
17009		-0.317351	-0.360981	-0.876916	-0.490871	-0.728661	0.477596	-0.811378	0.582018	0.054046
17010		-0.321277	-0.364419	-0.874059	-0.493391	-0.723404	0.482962	-0.808298	0.586418	0.052612
17012		-0.331298	-0.369554	-0.868142	-0.488044	-0.720335	0.492881	-0.807499	0.586982	0.058287
17013		-0.336274	-0.372428	-0.864995	-0.477420	-0.724301	0.497452	-0.811782	0.580246	0.065759
17014		-0.340397	-0.376356	-0.861676	-0.465382	-0.728853	0.502187	-0.817037	0.571952	0.072950
17015		-0.342075	-0.382228	-0.858421	-0.455802	-0.731369	0.507290	-0.821723	0.564801	0.075963
17016		-0.341853	-0.389181	-0.855380	-0.448356	-0.732400	0.512413	-0.825901	0.558685	0.075881
17017		-0.340255	-0.396444	-0.852677	-0.443238	-0.732110	0.517258	-0.829317	0.553938	0.073385
17018		-0.338809	-0.402909	-0.850219	-0.437577	-0.732506	0.521499	-0.832907	0.548725	0.071876
17019		-0.337361	-0.407849	-0.848438	-0.428994	-0.735643	0.524207	-0.837945	0.540822	0.073212
17020		-0.333872	-0.411715	-0.847950	-0.424161	-0.737729	0.525208	-0.841794	0.535020	0.071673
17021		-0.327538	-0.413799	-0.849405	-0.429081	-0.735802	0.523914	-0.841789	0.536065	0.063450
17022		-0.318020	-0.413202	-0.853304	-0.439940	-0.732948	0.518884	-0.839831	0.540418	0.051308
17023		-0.306267	-0.408035	-0.860063	-0.450886	-0.733529	0.508564	-0.838393	0.543547	0.040678
17024		-0.292039	-0.397633	-0.869828	-0.462752	-0.737184	0.492363	-0.837003	0.546304	0.031281
17025		-0.274394	-0.383099	-0.882011	-0.474038	-0.744138	0.470688	-0.836658	0.547261	0.022584
17026		-0.252775	-0.365604	-0.895789	-0.490706	-0.749498	0.444366	-0.833854	0.551894	0.010050
17027		-0.229078	-0.345145	-0.910164	-0.509091	-0.754475	0.414239	-0.829669	0.558249	-0.002877
17028		-0.202884	-0.322723	-0.924493	-0.527844	-0.759167	0.380849	-0.824754	0.565256	-0.016325
17029		-0.174898	-0.298471	-0.938257	-0.548086	-0.762132	0.344611	-0.817932	0.574517	-0.030293
17030		-0.145520	-0.272643	-0.951047	-0.570557	-0.762199	0.305806	-0.808263	0.587127	-0.044643
17031		-0.114617	-0.246599	-0.962316	-0.594865	-0.758785	0.265295	-0.795612	0.602855	-0.059723
17032		-0.079754	-0.221605	-0.971870	-0.626298	-0.747363	0.221809	-0.775494	0.626370	-0.079185
17033		-0.044535	-0.196420	-0.979508	-0.661782	-0.728693	0.176213	-0.748372	0.656069	-0.097535
17034		-0.018958	-0.166766	-0.985814	-0.695483	-0.706158	0.132833	-0.718293	0.688135	-0.102595
17035		-0.008805	-0.133161	-0.991055	-0.726465	-0.680202	0.097848	-0.687147	0.720828	-0.090748
17036		-0.009897	-0.100664	-0.994871	-0.747167	-0.660474	0.074262	-0.664562	0.744070	-0.068676
17037		-0.015994	-0.078939	-0.996751	-0.749978	-0.658342	0.064172	-0.661269	0.748568	-0.048673
17038		-0.006970	-0.086145	-0.996258	-0.742748	-0.666616	0.062838	-0.669534	0.740407	-0.059338
17039		0.015788	-0.117710	-0.992923	-0.740112	-0.669082	0.067551	-0.672298	0.733807	-0.097682
17040		0.033922	-0.144477	-0.988927	-0.768585	-0.636273	0.066592	-0.638848	0.757815	-0.132626
17041		0.037882	-0.160372	-0.986329	-0.792408	-0.606175	0.068127	-0.608814	0.778995	-0.150043
17042		0.032541	-0.169713	-0.984956	-0.805129	-0.588367	0.074778	-0.592207	0.790583	-0.155787
17043		0.019736	-0.169514	-0.985330	-0.803337	-0.589383	0.085305	-0.595197	0.789869	-0.147809
17044		0.006124	-0.161480	-0.986857	-0.788815	-0.607326	0.094483	-0.614601	0.777869	-0.131097
17045		0.001231	-0.150545	-0.988602	-0.776094	-0.623574	0.093992	-0.630616	0.767132	-0.117605
17046		0.007154	-0.137849	-0.990427	-0.773306	-0.628718	0.081920	-0.633992	0.765318	-0.111098
17047		0.027417	-0.134036	-0.990597	-0.777864	-0.625260	0.063074	-0.627835	0.768820	-0.121404
17048		0.047861	-0.126257	-0.990842	-0.776642	-0.628502	0.042572	-0.628122	0.767492	-0.128138
17049		0.064995	-0.114903	-0.991248	-0.788759	-0.614394	0.019501	-0.611257	0.780588	-0.130563
17050		0.085148	-0.107979	-0.990500	-0.805413	-0.592696	-0.004624	-0.586566	0.798155	-0.137434
17051		0.104637	-0.098275	-0.989643	-0.803052	-0.595351	-0.025788	-0.586651	0.797433	-0.141215
17052		0.124281	-0.086029	-0.988511	-0.781670	-0.622129	-0.044133	-0.611184	0.778174	-0.144565
17053		0.146934	-0.076317	-0.986198	-0.759460	-0.647492	-0.063046	-0.633744	0.758241	-0.153099
17054		0.168790	-0.065502	-0.983473	-0.748991	-0.657133	-0.084780	-0.640720	0.750923	-0.159978
17055		0.192873	-0.054447	-0.979712	-0.746332	-0.656345	-0.110452	-0.637015	0.752494	-0.167227
17056		0.220582	-0.043442	-0.974401	-0.741747	-0.656189	-0.138660	-0.633368	0.753345	-0.176966
17057		0.249837	-0.032061	-0.967757	-0.736625	-0.654983	-0.168469	-0.628463	0.754963	-0.187256
17058		0.277558	-0.021319	-0.960472	-0.746713	-0.633822	-0.201717	-0.604468	0.773185	-0.191841
17059		0.302076	-0.014396	-0.953175	-0.770841	-0.591957	-0.235351	-0.560851	0.805841	-0.189913
17060		0.319224	-0.016246	-0.947540	-0.776919	-0.577035	-0.251849	-0.542672	0.816558	-0.196825
17061		0.326997	-0.030648	-0.944528	-0.776065	-0.579033	-0.249887	-0.539254	0.814728	-0.213127
17062		0.323774	-0.042143	-0.945195	-0.779241	-0.578479	-0.241134	-0.536614	0.814608	-0.220136
17063		0.313865	-0.050838	-0.948106	-0.777461	-0.586960	-0.225901	-0.545016	0.808018	-0.223751
17064		0.303139	-0.066313	-0.950636	-0.780662	-0.589387	-0.207824	-0.546511	0.805125	-0.230434
17065		0.290030	-0.086692	-0.953083	-0.785580	-0.590344	-0.185360	-0.546578	0.802482	-0.239321
17066		0.273117	-0.109383	-0.955742	-0.797386	-0.581511	-0.161311	-0.538130	0.806152	-0.246041
17067		0.250459	-0.129828	-0.959382	-0.814092	-0.564554	-0.136131	-0.523950	0.815121	-0.247090
17068		0.222706	-0.144370	-0.964137	-0.829336	-0.547911	-0.109524	-0.512450	0.823985	-0.241754
17069		0.195575	-0.149983	-0.969152	-0.843700	-0.529500	-0.088315	-0.499921	0.834946	-0.230097
17070		0.176784	-0.153662	-0.972181	-0.858124	-0.507820	-0.075778	-0.482049	0.847648	-0.221636
17071		0.165683	-0.154262	-0.974039	-0.872667	-0.482987	-0.071948	-0.459350	0.861932	-0.214642
17072		0.162275	-0.152151	-0.974944	-0.885619	-0.458168	-0.075905	-0.435139	0.875747	-0.209097
17073		0.162979	-0.147802	-0.975496	-0.892308	-0.443950	-0.081815	-0.420979	0.883777	-0.204239
17074		0.164865	-0.143468	-0.975826	-0.893626	-0.440452	-0.086221	-0.417435	0.886239	-0.200822
17075		0.167696	-0.139990	-0.975849	-0.891999	-0.443042	-0.089730	-0.419781	0.885503	-0.199167
17076		0.172637	-0.135653	-0.975600	-0.887936	-0.450148	-0.094533	-0.426341	0.882590	-0.198163
17077		0.181101	-0.130407	-0.974780	-0.882239	-0.459523	-0.102433	-0.434576	0.878540	-0.198270
17078		0.192993	-0.123506	-0.973396	-0.876470	-0.467657	-0.114439	-0.441082	0.875239	-0.198504
17079		0.208043	-0.115483	-0.971278	-0.870086	-0.475493	-0.129833	-0.446843	0.872107	-0.199403
17080		0.224958	-0.107167	-0.968457	-0.865313	-0.478881	-0.148007	-0.447914	0.871314	-0.200461
17081		0.239018	-0.098039	-0.966053	-0.860746	-0.481871	-0.164061	-0.449429	0.870740	-0.199563
17082		0.249706	-0.089060	-0.964217	-0.854858	-0.487987	-0.176312	-0.454823	0.868296	-0.197987
17083		0.257019	-0.079735	-0.963111	-0.851012	-0.490929	-0.186461	-0.457952	0.867543	-0.194033
17084		0.259805	-0.071024	-0.963046	-0.843310	-0.502554	-0.190440	-0.470457	0.861623	-0.190461
17085		0.262587	-0.061638	-0.962938	-0.829982	-0.523401	-0.192827	-0.492117	0.849854	-0.188597
17086		0.261649	-0.052821	-0.963716	-0.809552	-0.555677	-0.189337	-0.525514	0.829719	-0.188154
17087		0.256334	-0.048681	-0.965362	-0.792873	-0.581827	-0.181193	-0.552852	0.811855	-0.187740
17088		0.243499	-0.046707	-0.968776	-0.785099	-0.595981	-0.168599	-0.569497	0.801639	-0.181790
17089		0.223617	-0.048240	-0.973483	-0.784339	-0.601838	-0.150346	-0.578626	0.797160	-0.172417
17090		0.200283	-0.058318	-0.978001	-0.783369	-0.609040	-0.124108	-0.588404	0.790992	-0.167665
17091		0.173561	-0.073302	-0.982091	-0.780182	-0.618796	-0.091692	-0.600993	0.782124	-0.164588
17092		0.144468	-0.088452	-0.985548	-0.777578	-0.626125	-0.057788	-0.611965	0.774689	-0.159234
17093		0.114501	-0.102869	-0.988083	-0.780692	-0.624397	-0.025462	-0.614337	0.774303	-0.151803
17094		0.086930	-0.117745	-0.989232	-0.783176	-0.621778	0.005186	-0.615693	0.774292	-0.146267
17095		0.061409	-0.129360	-0.989694	-0.782900	-0.621292	0.032630	-0.619110	0.772827	-0.139429
17096		0.039851	-0.136762	-0.989802	-0.787546	-0.613962	0.053124	-0.614966	0.777397	-0.132173
17097		0.027060	-0.145824	-0.988940	-0.797860	-0.599162	0.066518	-0.602236	0.787236	-0.132560
17098		0.023041	-0.155611	-0.987550	-0.809522	-0.582546	0.072906	-0.586638	0.797763	-0.139393
17099		0.020276	-0.162757	-0.986458	-0.821161	-0.565555	0.076433	-0.570336	0.808491	-0.145117
17100		0.017950	-0.169417	-0.985381	-0.834617	-0.545203	0.078533	-0.550538	0.821006	-0.151185
17101		0.014866	-0.176846	-0.984126	-0.844055	-0.529878	0.082469	-0.536051	0.829430	-0.157145
17102		0.010586	-0.184210	-0.982830	-0.849444	-0.520228	0.088356	-0.527572	0.833924	-0.161983
17103		0.003164	-0.189538	-0.981868	-0.847651	-0.521439	0.097926	-0.530545	0.831971	-0.162312
17104		-0.009117	-0.192190	-0.981315	-0.843632	-0.525378	0.110733	-0.536844	0.828879	-0.157347
17105		-0.024286	-0.193941	-0.980713	-0.839280	-0.529040	0.125403	-0.543157	0.826138	-0.149922
17106		-0.040551	-0.197118	-0.979541	-0.836375	-0.529657	0.141210	-0.546656	0.824990	-0.143387
17107		-0.054860	-0.205928	-0.977028	-0.840688	-0.518421	0.156472	-0.538734	0.829960	-0.144681
17108		-0.064103	-0.222284	-0.972872	-0.850716	-0.497472	0.169718	-0.521702	0.838518	-0.157211
17109		-0.071042	-0.242811	-0.967469	-0.857968	-0.479838	0.183428	-0.508766	0.843089	-0.174236
17110		-0.078751	-0.263501	-0.961439	-0.858338	-0.472574	0.199824	-0.507005	0.840976	-0.188957
17111		-0.088235	-0.282643	-0.955159	-0.852877	-0.473947	0.219033	-0.514602	0.833959	-0.199241
17112		-0.100093	-0.301627	-0.948158	-0.838018	-0.488167	0.243761	-0.536384	0.818971	-0.203907
17113		-0.113552	-0.322599	-0.939700	-0.814076	-0.511985	0.274137	-0.569549	0.796116	-0.204483
17114		-0.124818	-0.349302	-0.928660	-0.791563	-0.529262	0.305466	-0.598204	0.773220	-0.210433
17115		-0.139431	-0.369657	-0.918647	-0.761020	-0.553562	0.338256	-0.633567	0.746272	-0.204133
17116		-0.160675	-0.377525	-0.911953	-0.723816	-0.583090	0.368912	-0.671024	0.719361	-0.179571
17117		-0.175756	-0.391524	-0.903227	-0.704469	-0.590859	0.393202	-0.687628	0.705403	-0.171970
17118		-0.174137	-0.409345	-0.895608	-0.711797	-0.576155	0.401734	-0.680457	0.707448	-0.191040
17119		-0.186153	-0.411902	-0.892011	-0.700184	-0.581290	0.414541	-0.689268	0.701740	-0.180198
17120		-0.201958	-0.417182	-0.886100	-0.687962	-0.583520	0.431524	-0.697081	0.696753	-0.169159
17121		-0.218277	-0.423895	-0.879015	-0.671977	-0.587890	0.450369	-0.707673	0.688984	-0.156525
17122		-0.237391	-0.428125	-0.871983	-0.649275	-0.597755	0.470245	-0.722556	0.677789	-0.136069
17123		-0.256315	-0.425968	-0.867672	-0.624708	-0.611987	0.484986	-0.737592	0.666351	-0.109244
17124		-0.267933	-0.422757	-0.865730	-0.611953	-0.619360	0.491840	-0.744127	0.661566	-0.092761
17125		-0.269655	-0.423509	-0.864827	-0.616635	-0.613865	0.492880	-0.739627	0.666190	-0.095618
17126		-0.269077	-0.423583	-0.864971	-0.624713	-0.606778	0.491481	-0.733029	0.672605	-0.101347
17127		-0.266579	-0.423219	-0.865922	-0.633619	-0.600046	0.488335	-0.726266	0.678845	-0.108200
17128		-0.260708	-0.423289	-0.867674	-0.644960	-0.592403	0.482789	-0.718371	0.685482	-0.118560
17129		-0.252658	-0.421317	-0.871009	-0.654552	-0.588528	0.474548	-0.712548	0.690019	-0.127078
17130		-0.241695	-0.416525	-0.876408	-0.663226	-0.588378	0.462539	-0.708318	0.693049	-0.134042
17131		-0.227824	-0.408522	-0.883859	-0.670108	-0.592790	0.446716	-0.706436	0.694053	-0.138702
17132		-0.214400	-0.395513	-0.893085	-0.674401	-0.601472	0.428270	-0.706552	0.694119	-0.137779
17133		-0.202271	-0.379554	-0.902788	-0.677349	-0.611568	0.408879	-0.707308	0.694207	-0.133388
17134		-0.190334	-0.362531	-0.912329	-0.679502	-0.622085	0.388958	-0.708555	0.693961	-0.127937
17135		-0.178067	-0.344915	-0.921589	-0.682569	-0.631314	0.368161	-0.708796	0.694605	-0.123012
17136		-0.165055	-0.327186	-0.930433	-0.687163	-0.638574	0.346454	-0.707506	0.696543	-0.119430
17137		-0.152350	-0.309646	-0.938568	-0.692731	-0.643882	0.324870	-0.704921	0.699668	-0.116406
17138		-0.139883	-0.292641	-0.945935	-0.700843	-0.645593	0.303364	-0.699466	0.705387	-0.114788
17139		-0.127882	-0.277057	-0.952305	-0.712742	-0.642023	0.282498	-0.689670	0.714875	-0.115367
17140		-0.117102	-0.262722	-0.957739	-0.728526	-0.632674	0.262628	-0.674935	0.728492	-0.117313
17141		-0.109521	-0.250608	-0.961874	-0.745006	-0.619905	0.246339	-0.658005	0.743581	-0.118812
17142		-0.104598	-0.243087	-0.964348	-0.759208	-0.606821	0.235311	-0.642388	0.756754	-0.121081
17143		-0.100967	-0.241885	-0.965037	-0.770867	-0.594185	0.229584	-0.628944	0.767096	-0.126468
17144		-0.096878	-0.248253	-0.963839	-0.779239	-0.583539	0.228623	-0.619194	0.773210	-0.136916
17145		-0.094750	-0.256713	-0.961832	-0.780871	-0.580113	0.231755	-0.617466	0.773025	-0.145494
17146		-0.096495	-0.262298	-0.960150	-0.773866	-0.586889	0.238102	-0.625956	0.766003	-0.146352
17147		-0.101674	-0.265145	-0.958833	-0.761012	-0.600032	0.246623	-0.640721	0.754758	-0.140771
17148		-0.104909	-0.269859	-0.957168	-0.739679	-0.622167	0.256482	-0.664733	0.734904	-0.134337
17149		-0.107131	-0.268668	-0.957257	-0.713374	-0.649870	0.262233	-0.692546	0.710975	-0.122039
17150		-0.111613	-0.251394	-0.961428	-0.702769	-0.664061	0.255224	-0.702608	0.704148	-0.102554
17151		-0.099444	-0.242985	-0.964919	-0.711110	-0.660950	0.239726	-0.696013	0.710003	-0.107061
17152		-0.077742	-0.240896	-0.967432	-0.737057	-0.639542	0.218479	-0.671344	0.730038	-0.127834
17153		-0.057601	-0.236776	-0.969855	-0.740296	-0.641650	0.200617	-0.669809	0.729536	-0.138325
17154		-0.037261	-0.226257	-0.973355	-0.729955	-0.659055	0.181142	-0.682479	0.717255	-0.140600
17155		-0.012395	-0.215976	-0.976320	-0.724976	-0.670517	0.157533	-0.688663	0.709761	-0.148266
17156		0.011606	-0.203664	-0.978972	-0.723660	-0.677350	0.132336	-0.690059	0.706907	-0.155245
17157		0.034956	-0.189006	-0.981353	-0.727292	-0.678290	0.104731	-0.685437	0.710070	-0.161173
17158		0.058411	-0.175177	-0.982803	-0.735326	-0.673402	0.076326	-0.675192	0.718222	-0.168146
17159		0.075876	-0.163261	-0.983661	-0.750838	-0.658486	0.051374	-0.656114	0.734672	-0.172546
17160		0.088291	-0.158146	-0.983461	-0.766810	-0.640961	0.034229	-0.635773	0.751105	-0.177859
17161		0.091869	-0.162277	-0.982459	-0.757150	-0.652196	0.036925	-0.646748	0.740477	-0.182785
17162		0.088123	-0.169491	-0.981584	-0.756713	-0.652218	0.044684	-0.647781	0.738840	-0.185732
17163		0.083357	-0.189308	-0.978373	-0.772972	-0.631926	0.056417	-0.628940	0.751553	-0.199005
17164		0.078773	-0.214444	-0.973554	-0.801848	-0.593880	0.065934	-0.592313	0.775449	-0.218734
17165		0.060398	-0.226377	-0.972165	-0.794238	-0.600820	0.090562	-0.604597	0.766661	-0.216085
17166		0.026182	-0.234998	-0.971643	-0.751358	-0.645743	0.135932	-0.659376	0.726492	-0.193474
17167		-0.004754	-0.244931	-0.969529	-0.749856	-0.640566	0.165502	-0.661584	0.727794	-0.180618
17168		-0.034417	-0.254625	-0.966427	-0.745730	-0.637241	0.194451	-0.665359	0.727386	-0.167950
17169		-0.056532	-0.265845	-0.962357	-0.736566	-0.639602	0.219954	-0.673999	0.721274	-0.159655
17170		-0.068395	-0.271294	-0.960063	-0.741125	-0.630398	0.230936	-0.667874	0.727322	-0.157947
17171		-0.067052	-0.269127	-0.960768	-0.758427	-0.611931	0.224343	-0.648300	0.743714	-0.163083
17172		-0.054244	-0.267453	-0.962043	-0.779037	-0.591355	0.208325	-0.624627	0.760768	-0.176279
17173		-0.036142	-0.265127	-0.963536	-0.797715	-0.573105	0.187618	-0.601950	0.775408	-0.190782
17174		-0.016213	-0.263152	-0.964618	-0.816575	-0.553257	0.164655	-0.577011	0.790353	-0.205913
17175		0.004164	-0.260324	-0.965512	-0.831481	-0.537289	0.141279	-0.555537	0.802217	-0.218692
17176		0.022889	-0.256520	-0.966268	-0.839213	-0.530199	0.120875	-0.543321	0.808138	-0.227411
17177		0.038231	-0.249823	-0.967537	-0.838233	-0.535100	0.105044	-0.543971	0.807005	-0.229867
17178		0.049617	-0.241459	-0.969142	-0.832053	-0.546738	0.093620	-0.552472	0.801732	-0.228034
17179		0.058020	-0.233977	-0.970509	-0.820711	-0.564670	0.087070	-0.568390	0.791456	-0.224789
17180		0.063633	-0.225751	-0.972105	-0.805985	-0.586041	0.083337	-0.588506	0.778198	-0.219243
17181		0.066564	-0.215826	-0.974160	-0.786889	-0.611657	0.081745	-0.613494	0.761115	-0.210545
17182		0.068708	-0.205890	-0.976160	-0.765969	-0.637803	0.080611	-0.639195	0.742170	-0.201528
17183		0.070971	-0.195730	-0.978086	-0.745529	-0.661852	0.078351	-0.662684	0.723631	-0.192895
17184		0.073895	-0.186009	-0.979765	-0.727450	-0.682090	0.074630	-0.682170	0.707215	-0.185716
17185		0.078792	-0.177833	-0.980901	-0.714870	-0.695871	0.068736	-0.694804	0.695801	-0.181957
17186		0.086019	-0.170537	-0.981589	-0.709128	-0.702530	0.059912	-0.699813	0.690919	-0.181363
17187		0.094762	-0.163527	-0.981977	-0.708707	-0.703812	0.048814	-0.699110	0.691308	-0.182587
17188		0.104833	-0.157293	-0.981972	-0.713488	-0.699746	0.035916	-0.692780	0.696860	-0.185583
17189		0.115112	-0.151950	-0.981662	-0.720805	-0.692766	0.022709	-0.683513	0.704972	-0.189272
17190		0.124589	-0.146648	-0.981311	-0.728875	-0.684577	0.009765	-0.673215	0.714037	-0.192179
17191		0.133569	-0.142504	-0.980740	-0.737229	-0.675639	-0.002233	-0.662309	0.723329	-0.195303
17192		0.140731	-0.138626	-0.980295	-0.744068	-0.667990	-0.012356	-0.653114	0.731145	-0.197154
17193		0.145652	-0.134837	-0.980104	-0.748832	-0.662454	-0.020146	-0.646558	0.736867	-0.197458
17194		0.148354	-0.131080	-0.980209	-0.751066	-0.659737	-0.025449	-0.643344	0.739977	-0.196325
17195		0.149520	-0.127610	-0.980489	-0.751271	-0.659367	-0.028749	-0.642834	0.740912	-0.194458
17196		0.149653	-0.123857	-0.980950	-0.749705	-0.661049	-0.030909	-0.644628	0.740049	-0.191784
17197		0.149582	-0.120246	-0.981410	-0.746208	-0.664931	-0.032264	-0.648690	0.737162	-0.189190
17198		0.150178	-0.117103	-0.981699	-0.742026	-0.669526	-0.033648	-0.653332	0.733500	-0.187442
17199		0.151657	-0.114254	-0.981808	-0.738025	-0.673834	-0.035587	-0.657509	0.729996	-0.186514
17200		0.153950	-0.111499	-0.981767	-0.734737	-0.677271	-0.038296	-0.660652	0.727236	-0.186188
17201		0.155925	-0.107848	-0.981864	-0.731299	-0.680802	-0.041355	-0.663995	0.724484	-0.185023
17202		0.156757	-0.103100	-0.982241	-0.726395	-0.685872	-0.043934	-0.669162	0.720382	-0.182406
17203		0.157133	-0.098284	-0.982675	-0.721007	-0.691390	-0.046141	-0.674876	0.715766	-0.179503
17204		0.156647	-0.094169	-0.983155	-0.715778	-0.696723	-0.047312	-0.680532	0.711132	-0.176543
17205		0.154287	-0.090933	-0.983833	-0.711048	-0.701593	-0.046661	-0.686008	0.706752	-0.172904
17206		0.149557	-0.089366	-0.984706	-0.707528	-0.705349	-0.043446	-0.690679	0.703205	-0.168719
17207		0.141998	-0.089777	-0.985787	-0.705309	-0.707928	-0.037124	-0.694533	0.700556	-0.163845
17208		0.131854	-0.092826	-0.986913	-0.704736	-0.708937	-0.027474	-0.697109	0.699136	-0.158894
17209		0.119140	-0.099376	-0.987892	-0.706129	-0.707946	-0.013945	-0.697988	0.699240	-0.154517
17210		0.102876	-0.109813	-0.988614	-0.709402	-0.704790	0.004465	-0.697256	0.700865	-0.150408
17211		0.082850	-0.124880	-0.988707	-0.714954	-0.698597	0.028327	-0.694245	0.704533	-0.147162
17212		0.058923	-0.144348	-0.987771	-0.721993	-0.689491	0.057690	-0.689387	0.709764	-0.144845
17213		0.031114	-0.168593	-0.985194	-0.727160	-0.680082	0.093415	-0.685762	0.713488	-0.143755
17214		0.000074	-0.196412	-0.980521	-0.726622	-0.673665	0.134890	-0.687037	0.712459	-0.142767
17215		-0.034521	-0.225195	-0.973702	-0.711458	-0.678701	0.182191	-0.701881	0.699037	-0.136787
17216		-0.072420	-0.253572	-0.964602	-0.676954	-0.697754	0.234248	-0.732454	0.669955	-0.121125
17217		-0.113979	-0.280450	-0.953078	-0.630207	-0.721203	0.287585	-0.768015	0.633415	-0.094540
17218		-0.154358	-0.310334	-0.938012	-0.588907	-0.733411	0.339554	-0.793323	0.604815	-0.069550
17219		-0.190111	-0.340678	-0.920758	-0.571342	-0.724298	0.385955	-0.798390	0.599442	-0.056946
17220		-0.221789	-0.371150	-0.901697	-0.559589	-0.708848	0.429412	-0.798542	0.599819	-0.050477
17221		-0.253043	-0.401576	-0.880174	-0.541757	-0.694942	0.472816	-0.801541	0.596483	-0.041706
17222		-0.289551	-0.429729	-0.855274	-0.510040	-0.686851	0.517779	-0.809950	0.586147	-0.020301
17223		-0.326796	-0.458052	-0.826676	-0.481650	-0.671869	0.562677	-0.813153	0.582049	-0.001057
17224		-0.360332	-0.488437	-0.794727	-0.465486	-0.644155	0.606949	-0.808383	0.588638	0.004749
17225		-0.391720	-0.518403	-0.760141	-0.452000	-0.611176	0.649739	-0.801406	0.598099	0.005091
17226		-0.423990	-0.544156	-0.723966	-0.425526	-0.585952	0.689629	-0.799475	0.600462	0.016885
17227		-0.456579	-0.565283	-0.687016	-0.390011	-0.566881	0.725629	-0.799642	0.599251	0.038359
17228		-0.487936	-0.583560	-0.649135	-0.348619	-0.551500	0.757834	-0.800240	0.596075	0.065657
17229		-0.517382	-0.599956	-0.610220	-0.299712	-0.540876	0.785892	-0.801554	0.589497	0.100025
17230		-0.545845	-0.613605	-0.570562	-0.243661	-0.535280	0.808767	-0.801675	0.580485	0.142669
17231		-0.574795	-0.623414	-0.530062	-0.181959	-0.534171	0.825562	-0.797810	0.570978	0.193604
17232		-0.602151	-0.630651	-0.489585	-0.119801	-0.534905	0.836375	-0.789343	0.562277	0.246541
17233		-0.627950	-0.635254	-0.449590	-0.059072	-0.537118	0.841436	-0.776009	0.554938	0.299757
17234		-0.651316	-0.637676	-0.411286	-0.000141	-0.541915	0.840433	-0.758806	0.547445	0.352869
17235		-0.670644	-0.639490	-0.375885	0.054457	-0.547812	0.834827	-0.739778	0.539402	0.402212
17236		-0.684444	-0.641795	-0.345883	0.102419	-0.554356	0.825954	-0.721836	0.529894	0.445157
17237		-0.694919	-0.643867	-0.320192	0.144567	-0.561277	0.814904	-0.704406	0.520003	0.483124
17238		-0.704703	-0.644146	-0.297439	0.177277	-0.565783	0.805272	-0.686998	0.514748	0.512901
17239		-0.711890	-0.644739	-0.278432	0.202616	-0.568158	0.797586	-0.672428	0.511378	0.535100
17240		-0.717050	-0.645584	-0.262793	0.222105	-0.568995	0.791779	-0.660688	0.509377	0.551385
17241		-0.721629	-0.645997	-0.248878	0.236956	-0.568277	0.787980	-0.650464	0.509656	0.563158
17242		-0.726247	-0.645828	-0.235524	0.249480	-0.566868	0.785124	-0.640566	0.511436	0.572808
17243		-0.730365	-0.645815	-0.222465	0.260006	-0.564027	0.783754	-0.631636	0.514584	0.579861
17244		-0.732978	-0.647289	-0.209189	0.270971	-0.559892	0.783005	-0.623954	0.517241	0.585785
17245		-0.734295	-0.650226	-0.194980	0.283866	-0.555031	0.781896	-0.616629	0.518793	0.592133
17246		-0.734544	-0.654290	-0.179862	0.301780	-0.552399	0.777035	-0.607762	0.516488	0.603213
17247		-0.734783	-0.658419	-0.163029	0.322359	-0.550436	0.770133	-0.596807	0.513327	0.616699
17248		-0.734784	-0.662706	-0.144613	0.343579	-0.547457	0.763049	-0.584847	0.510990	0.629955
17249		-0.734308	-0.667291	-0.124559	0.366310	-0.544011	0.754897	-0.571497	0.508699	0.643907
17250		-0.733349	-0.672060	-0.102635	0.392546	-0.541842	0.743179	-0.555073	0.504721	0.661174
17251		-0.732275	-0.676399	-0.079100	0.420766	-0.540707	0.728417	-0.535471	0.500119	0.680553
17252		-0.731089	-0.679940	-0.056486	0.447629	-0.540484	0.712395	-0.514915	0.495539	0.699502
17253		-0.730944	-0.681487	-0.035988	0.469948	-0.540890	0.697557	-0.494842	0.492963	0.715625
17254		-0.731330	-0.681707	-0.020769	0.485041	-0.541275	0.686845	-0.479469	0.492237	0.726507
17255		-0.731512	-0.681726	-0.011826	0.493948	-0.541817	0.680037	-0.470006	0.491614	0.733083
17256		-0.731566	-0.681727	-0.007724	0.498692	-0.542807	0.675771	-0.464884	0.490520	0.737071
17257		-0.731849	-0.681434	-0.006727	0.500854	-0.544551	0.672762	-0.462106	0.488991	0.739828
17258		-0.732794	-0.680414	-0.007026	0.501937	-0.547492	0.669561	-0.459426	0.487124	0.742723
17259		-0.734196	-0.678890	-0.008056	0.502410	-0.551244	0.666119	-0.456662	0.485015	0.745802
17260		-0.735655	-0.677286	-0.009782	0.502230	-0.555089	0.663054	-0.454507	0.482866	0.748508
17261		-0.736921	-0.675870	-0.012083	0.501558	-0.558672	0.660549	-0.453196	0.480712	0.750686
17262		-0.737956	-0.674682	-0.015004	0.500149	-0.561711	0.659039	-0.453069	0.478838	0.751959
17263		-0.738627	-0.673850	-0.018844	0.497570	-0.563835	0.659177	-0.454811	0.477510	0.751752
17264		-0.739042	-0.673237	-0.023870	0.493614	-0.565294	0.660899	-0.458435	0.476649	0.750095
17265		-0.739300	-0.672712	-0.029898	0.488335	-0.566186	0.664050	-0.463642	0.476332	0.747091
17266		-0.739118	-0.672548	-0.037188	0.481936	-0.566595	0.668362	-0.470576	0.476076	0.742906
17267		-0.738271	-0.672940	-0.045909	0.473774	-0.565807	0.674834	-0.480098	0.476460	0.736540
17268		-0.736802	-0.673742	-0.056516	0.463686	-0.564377	0.682989	-0.492055	0.477022	0.728239
17269		-0.734676	-0.674915	-0.068863	0.452039	-0.562685	0.692132	-0.505878	0.477364	0.718478
17270		-0.732383	-0.675858	-0.082651	0.438809	-0.561319	0.701689	-0.520635	0.477638	0.707673
17271		-0.730087	-0.676320	-0.097793	0.423659	-0.560259	0.711774	-0.536177	0.478226	0.695568
17272		-0.727698	-0.676254	-0.114611	0.407452	-0.560624	0.720891	-0.551759	0.477893	0.683506
17273		-0.725256	-0.675495	-0.133075	0.390124	-0.562476	0.728989	-0.567280	0.476788	0.671466
17274		-0.722437	-0.674132	-0.153723	0.370455	-0.565100	0.737174	-0.583821	0.475614	0.657985
17275		-0.718544	-0.672520	-0.177234	0.347728	-0.568094	0.745892	-0.602312	0.474327	0.642054
17276		-0.713638	-0.670409	-0.203158	0.321815	-0.571351	0.754979	-0.622219	0.473402	0.623485
17277		-0.707569	-0.667957	-0.230609	0.294608	-0.575472	0.762914	-0.642302	0.471875	0.603971
17278		-0.700342	-0.665115	-0.259121	0.268018	-0.581476	0.768149	-0.661580	0.468517	0.585494
17279		-0.691468	-0.662040	-0.289093	0.241094	-0.588721	0.771545	-0.680988	0.463801	0.566695
17280		-0.680483	-0.658917	-0.320579	0.211485	-0.595480	0.775034	-0.701582	0.459600	0.544565
17281		-0.667777	-0.655413	-0.352857	0.178055	-0.600926	0.779221	-0.722752	0.457518	0.517984
17282		-0.654321	-0.650819	-0.385096	0.141991	-0.605918	0.782753	-0.742767	0.457491	0.488875
17283		-0.639235	-0.645272	-0.418333	0.103427	-0.611185	0.784701	-0.762024	0.458342	0.457430
17284		-0.622374	-0.638678	-0.452483	0.061768	-0.616363	0.785036	-0.780279	0.460637	0.423059
17285		-0.605131	-0.630294	-0.486361	0.019482	-0.622450	0.782417	-0.795888	0.463989	0.388943
17286		-0.587184	-0.620231	-0.520124	-0.021601	-0.630327	0.776029	-0.809165	0.466907	0.356720
17287		-0.566768	-0.609782	-0.554021	-0.059643	-0.640324	0.765786	-0.821716	0.467066	0.326546
17288		-0.545953	-0.598116	-0.586679	-0.094421	-0.651862	0.752436	-0.832478	0.466190	0.299411
17290		-0.503023	-0.571528	-0.648324	-0.158751	-0.676275	0.719340	-0.849568	0.464767	0.249451
17291		-0.481436	-0.556530	-0.677121	-0.191003	-0.687362	0.700751	-0.855416	0.466699	0.224622
17292		-0.459724	-0.540637	-0.704532	-0.222626	-0.697844	0.680773	-0.859705	0.469814	0.200456
17293		-0.436999	-0.524269	-0.730872	-0.255144	-0.706936	0.659654	-0.862516	0.474746	0.175166
17294		-0.415170	-0.506478	-0.755721	-0.286726	-0.715512	0.637049	-0.863378	0.481168	0.151839
17295		-0.394496	-0.487239	-0.779083	-0.313243	-0.725756	0.612501	-0.863859	0.485671	0.133683
17296		-0.373316	-0.467557	-0.801265	-0.336809	-0.736466	0.586667	-0.864404	0.488885	0.117457
17297		-0.351863	-0.447563	-0.822119	-0.357837	-0.747259	0.559961	-0.864954	0.491214	0.102778
17298		-0.330985	-0.427105	-0.841445	-0.373772	-0.759432	0.532501	-0.866454	0.490759	0.091721
17299		-0.309752	-0.406333	-0.859621	-0.388614	-0.771022	0.504485	-0.867775	0.490326	0.080919
17300		-0.286892	-0.386435	-0.876562	-0.404286	-0.780707	0.476497	-0.868473	0.491085	0.067748
17301		-0.263835	-0.366463	-0.892242	-0.421464	-0.788244	0.448375	-0.867617	0.494345	0.053516
17302		-0.241530	-0.346854	-0.906286	-0.437767	-0.794557	0.420760	-0.866039	0.498369	0.040068
17303		-0.218865	-0.328724	-0.918716	-0.453767	-0.799248	0.394078	-0.863825	0.503133	0.025763
17304		-0.197441	-0.311053	-0.929657	-0.467347	-0.803758	0.368184	-0.861745	0.507167	0.013325
17305		-0.176635	-0.292864	-0.939697	-0.481372	-0.807041	0.342004	-0.858534	0.512754	0.001576
17307		-0.138391	-0.258266	-0.956110	-0.507797	-0.810339	0.292391	-0.850288	0.525974	-0.019003
17308		-0.120801	-0.242644	-0.962565	-0.522609	-0.808862	0.269486	-0.843971	0.535599	-0.029096
17309		-0.105927	-0.229923	-0.967427	-0.535051	-0.806874	0.250349	-0.838153	0.544141	-0.037551
17311		-0.083752	-0.210401	-0.974021	-0.543743	-0.809465	0.221608	-0.835062	0.548178	-0.046610
17312		-0.077345	-0.201737	-0.976381	-0.537968	-0.816071	0.211230	-0.839409	0.541600	-0.045409
17313		-0.073989	-0.193450	-0.978316	-0.529752	-0.823524	0.202906	-0.844919	0.533278	-0.041548
17314		-0.073450	-0.185781	-0.979842	-0.524327	-0.828557	0.196401	-0.848343	0.528184	-0.036553
17315		-0.074775	-0.179846	-0.980849	-0.523420	-0.830134	0.192115	-0.848787	0.527762	-0.032062
17316		-0.076343	-0.175307	-0.981549	-0.532296	-0.825239	0.188790	-0.843109	0.536888	-0.030314
17317		-0.077437	-0.172357	-0.981986	-0.549799	-0.814262	0.186274	-0.831700	0.554320	-0.031708
17318		-0.077868	-0.170837	-0.982217	-0.567671	-0.802304	0.184549	-0.819565	0.571947	-0.034506
17319		-0.078489	-0.168746	-0.982530	-0.581246	-0.792970	0.182622	-0.809934	0.585425	-0.035843
17320		-0.081119	-0.165365	-0.982891	-0.583856	-0.791349	0.181326	-0.807795	0.588575	-0.032356
17321		-0.086184	-0.161081	-0.983171	-0.574943	-0.797893	0.181125	-0.813641	0.580878	-0.023847
17322		-0.090614	-0.157142	-0.983410	-0.563127	-0.806363	0.180739	-0.821387	0.570162	-0.015423
17323		-0.094467	-0.152339	-0.983803	-0.560947	-0.808264	0.179021	-0.822444	0.568773	-0.009100
17324		-0.098474	-0.146374	-0.984316	-0.565831	-0.805435	0.176381	-0.818620	0.574325	-0.003508
17325		-0.102806	-0.138424	-0.985023	-0.572481	-0.801589	0.172395	-0.813447	0.581630	0.003163
17326		-0.106182	-0.130028	-0.985808	-0.581942	-0.795763	0.167643	-0.806268	0.591484	0.008827
17327		-0.106754	-0.122208	-0.986747	-0.593284	-0.788555	0.161849	-0.797883	0.602699	0.011677
17328		-0.106409	-0.113646	-0.987807	-0.602696	-0.782776	0.154981	-0.790844	0.611838	0.014801
17329		-0.105806	-0.103713	-0.988964	-0.611730	-0.777296	0.146962	-0.783959	0.620528	0.018798
17330		-0.103700	-0.093320	-0.990221	-0.624087	-0.769101	0.137838	-0.774443	0.632278	0.021516
17331		-0.099453	-0.081885	-0.991667	-0.640009	-0.757839	0.126763	-0.761904	0.647283	0.022962
17332		-0.093381	-0.068943	-0.993241	-0.655985	-0.746196	0.113468	-0.748975	0.662146	0.024455
17333		-0.085302	-0.054477	-0.994865	-0.669200	-0.736629	0.097715	-0.738170	0.674099	0.026380
17334		-0.075333	-0.038994	-0.996396	-0.679590	-0.729226	0.079920	-0.729714	0.683161	0.028435
17335		-0.064718	-0.021798	-0.997665	-0.687337	-0.723823	0.060402	-0.723450	0.689641	0.031862
17336		-0.053775	-0.003177	-0.998548	-0.691658	-0.721142	0.039542	-0.720221	0.692780	0.036582
17337		-0.043012	0.017324	-0.998924	-0.692901	-0.720824	0.017335	-0.719749	0.692901	0.043008
17338		-0.033596	0.040640	-0.998609	-0.691764	-0.722098	-0.006114	-0.721342	0.690596	0.052373
17339		-0.024957	0.066723	-0.997459	-0.689465	-0.723649	-0.031156	-0.723889	0.686936	0.064064
17340		-0.015902	0.093685	-0.995475	-0.687484	-0.723947	-0.057149	-0.726025	0.683464	0.075919
17341		-0.005389	0.120790	-0.992663	-0.684999	-0.723646	-0.084337	-0.728524	0.679519	0.086640
17342		0.006040	0.147849	-0.988992	-0.683955	-0.720884	-0.111946	-0.729499	0.677102	0.096768
17343		0.018858	0.174771	-0.984428	-0.686639	-0.713428	-0.139812	-0.726754	0.678583	0.106551
17344		0.033264	0.201017	-0.979023	-0.692306	-0.701863	-0.167632	-0.720837	0.683360	0.115819
17345		0.048933	0.227064	-0.972650	-0.699945	-0.686899	-0.195569	-0.712518	0.690371	0.125321
17346		0.064553	0.252363	-0.965477	-0.706935	-0.671292	-0.222734	-0.704327	0.696907	0.135070
17347		0.079885	0.277893	-0.957285	-0.713493	-0.654699	-0.249595	-0.696094	0.702955	0.145974
17348		0.094859	0.302436	-0.948438	-0.718021	-0.639126	-0.275617	-0.689527	0.707143	0.156529
17349		0.109662	0.325794	-0.939059	-0.720365	-0.624913	-0.300928	-0.684871	0.709466	0.166161
17350		0.124170	0.347541	-0.929407	-0.721351	-0.611549	-0.325056	-0.681348	0.710790	0.174763
17351		0.138238	0.367814	-0.919567	-0.721476	-0.598683	-0.347924	-0.678500	0.711542	0.182608
17352		0.150611	0.387192	-0.909615	-0.720540	-0.586978	-0.369160	-0.676859	0.711013	0.190582
17353		0.161864	0.404612	-0.900049	-0.720147	-0.575147	-0.388065	-0.674676	0.710982	0.198285
17354		0.172883	0.418173	-0.891764	-0.720119	-0.564033	-0.404097	-0.671967	0.712038	0.203623
17355		0.182232	0.428573	-0.884939	-0.720158	-0.554596	-0.416889	-0.669451	0.713266	0.207575
17356		0.188498	0.437182	-0.879398	-0.720071	-0.547377	-0.426468	-0.667807	0.713618	0.211623
17357		0.191880	0.444525	-0.874974	-0.720267	-0.541798	-0.433210	-0.666631	0.713339	0.216216
17358		0.193490	0.449796	-0.871920	-0.721320	-0.537183	-0.437186	-0.665025	0.713525	0.220507
17359		0.192838	0.453729	-0.870025	-0.722069	-0.534754	-0.438925	-0.664402	0.712859	0.224502
17360		0.189547	0.456741	-0.869172	-0.722069	-0.535012	-0.438611	-0.665348	0.710739	0.228389
17361		0.184480	0.458002	-0.869599	-0.721268	-0.537943	-0.436337	-0.667638	0.707709	0.231102
17362		0.177851	0.457449	-0.871269	-0.720477	-0.542544	-0.431925	-0.670285	0.704547	0.233089
17363		0.169547	0.455082	-0.874159	-0.720685	-0.547759	-0.424939	-0.672210	0.702041	0.235100
17364		0.158925	0.451695	-0.877904	-0.720700	-0.554669	-0.415853	-0.674785	0.698795	0.237385
17365		0.146323	0.447124	-0.882422	-0.720836	-0.562715	-0.404657	-0.677484	0.695292	0.239965
17366		0.132722	0.440686	-0.887795	-0.721091	-0.571602	-0.391533	-0.680009	0.692147	0.241911
17367		0.118099	0.432449	-0.893891	-0.721497	-0.581134	-0.376465	-0.682272	0.689399	0.243379
17368		0.102205	0.422987	-0.900354	-0.722088	-0.590988	-0.359615	-0.684210	0.686889	0.245032
17369		0.085298	0.411925	-0.907217	-0.723318	-0.600604	-0.340714	-0.685227	0.685268	0.246723
17370		0.068325	0.398874	-0.914457	-0.725790	-0.609022	-0.319876	-0.684515	0.685559	0.247887
17371		0.051402	0.383990	-0.921905	-0.729049	-0.616466	-0.297418	-0.682529	0.687402	0.248260
17372		0.034206	0.367624	-0.929345	-0.732438	-0.623450	-0.273579	-0.679974	0.690045	0.247936
17373		0.016084	0.350631	-0.936376	-0.735869	-0.629876	-0.248500	-0.676932	0.693047	0.247888
17374		-0.003188	0.333733	-0.942662	-0.739084	-0.635776	-0.222585	-0.673606	0.695997	0.248683
17376		-0.044826	0.301704	-0.952347	-0.741398	-0.648991	-0.170704	-0.669567	0.698416	0.252774
17377		-0.066965	0.287342	-0.955484	-0.740749	-0.655875	-0.145325	-0.668436	0.698042	0.256769
17378		-0.088569	0.272924	-0.957950	-0.740588	-0.661176	-0.119899	-0.666097	0.698827	0.260684
17379		-0.108761	0.258416	-0.959892	-0.741187	-0.664554	-0.094926	-0.662430	0.701135	0.263812
17380		-0.127734	0.243721	-0.961397	-0.742172	-0.666506	-0.070357	-0.657924	0.704535	0.266018
17381		-0.145720	0.229114	-0.962430	-0.742641	-0.668067	-0.046597	-0.653644	0.707950	0.267500
17382		-0.162778	0.214222	-0.963126	-0.742255	-0.669705	-0.023510	-0.650046	0.711059	0.268021
17383		-0.177013	0.198031	-0.964080	-0.742361	-0.669999	-0.001321	-0.646194	0.715461	0.265609
17384		-0.189168	0.181894	-0.964951	-0.744465	-0.667358	0.020146	-0.640303	0.722183	0.261656
17385		-0.200133	0.166281	-0.965556	-0.746898	-0.663704	0.040512	-0.634106	0.729279	0.257024
17386		-0.210430	0.151763	-0.965757	-0.750061	-0.658648	0.059929	-0.626999	0.736987	0.252431
17387		-0.219296	0.137706	-0.965892	-0.754853	-0.651174	0.078545	-0.618147	0.746331	0.246747
17388		-0.227667	0.125517	-0.965615	-0.760266	-0.642519	0.095732	-0.608411	0.755920	0.241707
17389		-0.235602	0.116800	-0.964805	-0.765402	-0.634056	0.110149	-0.598875	0.764415	0.238784
17390		-0.242395	0.110981	-0.963809	-0.769028	-0.627632	0.121137	-0.591473	0.770559	0.237482
17391		-0.247183	0.106285	-0.963122	-0.769776	-0.625233	0.128564	-0.588511	0.773167	0.236363
17392		-0.249499	0.101966	-0.962992	-0.770468	-0.623318	0.133619	-0.586626	0.775292	0.234079
17393		-0.249260	0.097970	-0.963468	-0.772661	-0.619890	0.136863	-0.583836	0.778549	0.230212
17394		-0.244665	0.091668	-0.965265	-0.778072	-0.612594	0.139042	-0.578570	0.785064	0.221205
17395		-0.234855	0.080983	-0.968651	-0.784893	-0.603647	0.139835	-0.573399	0.793128	0.205332
17396		-0.224584	0.071602	-0.971821	-0.791746	-0.594791	0.139146	-0.568067	0.800685	0.190271
17397		-0.216100	0.066712	-0.974089	-0.794497	-0.591908	0.135720	-0.567517	0.803240	0.180914
17398		-0.211345	0.069517	-0.974936	-0.789263	-0.600507	0.128276	-0.576539	0.796592	0.181781
17399		-0.210727	0.078111	-0.974419	-0.779570	-0.614847	0.119302	-0.589800	0.784769	0.190458
17400		-0.214466	0.089624	-0.972611	-0.767634	-0.631184	0.111105	-0.603939	0.770437	0.204166
17401		-0.221088	0.100362	-0.970076	-0.752601	-0.650171	0.104259	-0.620252	0.753130	0.219277
17402		-0.230269	0.107947	-0.967121	-0.732464	-0.673537	0.099220	-0.640681	0.731229	0.234162
17403		-0.241592	0.110949	-0.964014	-0.706903	-0.700695	0.096514	-0.664772	0.704782	0.247712
17404		-0.253551	0.109122	-0.961147	-0.679782	-0.727000	0.096789	-0.688192	0.677912	0.258510
17405		-0.263993	0.101895	-0.959127	-0.657252	-0.746796	0.101567	-0.705923	0.657201	0.264120
17406		-0.272198	0.089776	-0.958044	-0.644298	-0.756504	0.112167	-0.714694	0.647798	0.263762
17407		-0.279633	0.074471	-0.957215	-0.640589	-0.757100	0.128234	-0.715158	0.649040	0.259415
17408		-0.286607	0.057377	-0.956328	-0.642675	-0.751806	0.147501	-0.710510	0.656884	0.252348
17409		-0.293244	0.039866	-0.955206	-0.646517	-0.744304	0.167414	-0.704289	0.666650	0.244037
17410		-0.299672	0.022237	-0.953783	-0.648382	-0.738116	0.186508	-0.699855	0.674307	0.235611
17411		-0.305556	0.004512	-0.952163	-0.646422	-0.735215	0.203957	-0.699124	0.677819	0.227566
17412		-0.311314	-0.013064	-0.950217	-0.641348	-0.734965	0.220225	-0.701254	0.677979	0.220426
17413		-0.317719	-0.029653	-0.947721	-0.633961	-0.736611	0.235580	-0.705087	0.675667	0.215236
17414		-0.324199	-0.045681	-0.944885	-0.625931	-0.738563	0.250469	-0.709299	0.672635	0.210849
17415		-0.328937	-0.062323	-0.942293	-0.619272	-0.739084	0.265060	-0.712953	0.670724	0.204517
17416		-0.331540	-0.079696	-0.940069	-0.615005	-0.737360	0.279409	-0.715437	0.670782	0.195451
17417		-0.332827	-0.097176	-0.937968	-0.611187	-0.735238	0.293045	-0.718106	0.670807	0.185314
17418		-0.333561	-0.114495	-0.935750	-0.606161	-0.734160	0.305904	-0.722015	0.669253	0.175485
17419		-0.334117	-0.131145	-0.933363	-0.599609	-0.734470	0.317842	-0.727211	0.665849	0.166763
17420		-0.334208	-0.147667	-0.930860	-0.592079	-0.735548	0.329259	-0.733313	0.661183	0.158396
17421		-0.333487	-0.163829	-0.928411	-0.583810	-0.737352	0.339821	-0.740238	0.655341	0.150252
17422		-0.332383	-0.179217	-0.925960	-0.573580	-0.740943	0.349300	-0.748684	0.647213	0.143482
17423		-0.332024	-0.192572	-0.923405	-0.560430	-0.747152	0.357326	-0.758735	0.636145	0.140149
17424		-0.332868	-0.203691	-0.920711	-0.544640	-0.755534	0.364054	-0.769783	0.622638	0.140554
17425		-0.334311	-0.212921	-0.918096	-0.527076	-0.765324	0.369417	-0.781298	0.607407	0.143631
17426		-0.335326	-0.220832	-0.915855	-0.509604	-0.775122	0.373482	-0.792376	0.591962	0.147382
17427		-0.335623	-0.227181	-0.914191	-0.493238	-0.784429	0.376015	-0.802541	0.577114	0.151218
17428		-0.334544	-0.232448	-0.913262	-0.478996	-0.792638	0.377211	-0.811568	0.563643	0.153831
17429		-0.331627	-0.236849	-0.913195	-0.466410	-0.800241	0.376930	-0.820052	0.550924	0.154913
17430		-0.327907	-0.240225	-0.913657	-0.454591	-0.807675	0.375510	-0.828145	0.538473	0.155638
17431		-0.324416	-0.242164	-0.914391	-0.443320	-0.815011	0.373129	-0.835597	0.526417	0.157046
17432		-0.320419	-0.243434	-0.915462	-0.434436	-0.821027	0.370378	-0.841782	0.516386	0.157316
17433		-0.314356	-0.245028	-0.917138	-0.430513	-0.824257	0.367775	-0.846072	0.510452	0.153623
17434		-0.305867	-0.247327	-0.919388	-0.432007	-0.824479	0.365518	-0.848419	0.508982	0.145334
17435		-0.295242	-0.250138	-0.922097	-0.437765	-0.822435	0.363268	-0.849232	0.510913	0.133315
17436		-0.283244	-0.252749	-0.925144	-0.446415	-0.819025	0.360433	-0.848815	0.515088	0.119153
17437		-0.270681	-0.254602	-0.928391	-0.457349	-0.814597	0.356740	-0.847091	0.521161	0.104054
17438		-0.257216	-0.255581	-0.931943	-0.470548	-0.809213	0.351794	-0.844053	0.529011	0.087879
17439		-0.242635	-0.255789	-0.935788	-0.485530	-0.803090	0.345408	-0.839874	0.538162	0.070665
17440		-0.227552	-0.255045	-0.939772	-0.502471	-0.795927	0.337673	-0.834112	0.549047	0.052962
17441		-0.212141	-0.253534	-0.943778	-0.519618	-0.788656	0.328662	-0.827643	0.560127	0.035565
17442		-0.196682	-0.251040	-0.947784	-0.535933	-0.781947	0.318331	-0.821031	0.570559	0.019254
17443		-0.181077	-0.247511	-0.951814	-0.551955	-0.775441	0.306654	-0.813976	0.580886	0.003800
17444		-0.164983	-0.243140	-0.955858	-0.567742	-0.769063	0.293618	-0.806505	0.591122	-0.011158
17445		-0.148421	-0.238305	-0.959782	-0.583071	-0.762806	0.279564	-0.798749	0.601114	-0.025733
17446		-0.131732	-0.232589	-0.963613	-0.597949	-0.756675	0.264384	-0.790635	0.611020	-0.039397
17447		-0.114732	-0.226178	-0.967306	-0.611339	-0.751435	0.248214	-0.783008	0.619830	-0.052058
17448		-0.097326	-0.219331	-0.970784	-0.622675	-0.747510	0.231312	-0.776405	0.626995	-0.063820
17449		-0.079403	-0.212558	-0.973917	-0.632731	-0.744212	0.214011	-0.770290	0.633220	-0.075400
17450		-0.061140	-0.205589	-0.976727	-0.641960	-0.741210	0.196200	-0.764296	0.639015	-0.086662
17451		-0.042970	-0.198061	-0.979247	-0.649966	-0.738834	0.177956	-0.758748	0.644124	-0.096985
17452		-0.024740	-0.190008	-0.981471	-0.656037	-0.737713	0.159355	-0.754323	0.647824	-0.106402
17453		-0.006289	-0.181646	-0.983344	-0.658334	-0.739440	0.140802	-0.752699	0.648254	-0.114933
17454		0.011898	-0.172463	-0.984944	-0.655072	-0.745549	0.122631	-0.755473	0.643750	-0.121846
17455		0.028336	-0.161795	-0.986418	-0.646338	-0.755738	0.105392	-0.762525	0.634573	-0.125988
17456		0.043440	-0.150364	-0.987676	-0.635048	-0.767341	0.088890	-0.771250	0.623361	-0.128822
17457		0.057873	-0.139091	-0.988587	-0.625049	-0.777187	0.072757	-0.778437	0.613705	-0.131917
17458		0.072685	-0.128196	-0.989082	-0.616183	-0.785571	0.056537	-0.784242	0.605346	-0.136091
17459		0.086316	-0.116475	-0.989436	-0.608035	-0.792887	0.040294	-0.789204	0.598133	-0.139260
17460		0.099687	-0.104083	-0.989560	-0.604447	-0.796317	0.022866	-0.790384	0.595857	-0.142295
17461		0.113600	-0.092905	-0.989173	-0.605144	-0.796099	0.005274	-0.787970	0.597993	-0.146658
17462		0.128308	-0.084232	-0.988151	-0.614584	-0.788752	-0.012567	-0.778347	0.608914	-0.152971
17463		0.141163	-0.078579	-0.986863	-0.632049	-0.774395	-0.028748	-0.761963	0.627804	-0.158982
17464		0.149820	-0.074510	-0.985902	-0.651248	-0.757718	-0.041700	-0.743929	0.648314	-0.162046
17465		0.153045	-0.071910	-0.985599	-0.660242	-0.749528	-0.047838	-0.735294	0.658056	-0.162190
17466		0.152697	-0.070194	-0.985777	-0.657497	-0.751907	-0.048305	-0.737822	0.655522	-0.160966
17467		0.151069	-0.069280	-0.986092	-0.650622	-0.757981	-0.046422	-0.744224	0.648587	-0.159583
17468		0.148918	-0.069094	-0.986433	-0.644401	-0.763431	-0.043809	-0.750047	0.642183	-0.158213
17469		0.147086	-0.069571	-0.986674	-0.640795	-0.766591	-0.041473	-0.753490	0.638356	-0.157335
17470		0.145859	-0.070099	-0.986819	-0.642229	-0.765439	-0.040553	-0.752507	0.639679	-0.156666
17471		0.145903	-0.070858	-0.986758	-0.648227	-0.760329	-0.041249	-0.747338	0.645661	-0.156866
17472		0.147881	-0.071735	-0.986400	-0.655264	-0.754153	-0.043392	-0.740784	0.652769	-0.158530
17473		0.151581	-0.072540	-0.985780	-0.661335	-0.748642	-0.046602	-0.734615	0.658994	-0.161453
17474		0.156008	-0.072556	-0.985087	-0.665657	-0.744542	-0.050581	-0.729769	0.663621	-0.164451
17475		0.160763	-0.071917	-0.984369	-0.669648	-0.740620	-0.055255	-0.725070	0.668064	-0.167223
17476		0.166300	-0.071665	-0.983467	-0.674892	-0.735430	-0.060531	-0.718933	0.673801	-0.170668
17477		0.171719	-0.071329	-0.982560	-0.679941	-0.730307	-0.065814	-0.712876	0.679385	-0.173907
17478		0.176317	-0.070054	-0.981837	-0.683502	-0.726497	-0.070907	-0.708335	0.683590	-0.175976
17479		0.179900	-0.067878	-0.981340	-0.685976	-0.723676	-0.075698	-0.705034	0.686794	-0.176752
17480		0.182775	-0.065393	-0.980978	-0.687829	-0.721443	-0.080064	-0.702484	0.689379	-0.176841
17481		0.185072	-0.063236	-0.980688	-0.688838	-0.720083	-0.083563	-0.700893	0.691001	-0.176827
17482		0.186821	-0.061536	-0.980465	-0.688902	-0.719723	-0.086095	-0.700365	0.691529	-0.176852
17483		0.187990	-0.060144	-0.980328	-0.687928	-0.720459	-0.087718	-0.701010	0.690885	-0.176814
17484		0.188938	-0.059202	-0.980203	-0.686252	-0.721938	-0.088675	-0.702396	0.689420	-0.177029
17485		0.189610	-0.058390	-0.980122	-0.683947	-0.724060	-0.089178	-0.704460	0.687261	-0.177224
17486		0.189984	-0.057424	-0.980106	-0.681411	-0.726405	-0.089525	-0.706814	0.684863	-0.177135
17487		0.190334	-0.056571	-0.980088	-0.679499	-0.728143	-0.089931	-0.708557	0.683086	-0.177030
17488		0.190698	-0.055518	-0.980078	-0.678141	-0.729321	-0.090635	-0.709759	0.681915	-0.176729
17489		0.191448	-0.054595	-0.979983	-0.677286	-0.729989	-0.091646	-0.710374	0.681274	-0.176731
17490		0.192518	-0.053834	-0.979816	-0.676756	-0.730329	-0.092845	-0.710590	0.680971	-0.177034
17491		0.193637	-0.053115	-0.979634	-0.676322	-0.730574	-0.094072	-0.710699	0.680764	-0.177389
17492		0.194858	-0.052691	-0.979415	-0.676649	-0.730107	-0.095343	-0.710054	0.681299	-0.177920
17493		0.195830	-0.052345	-0.979240	-0.677667	-0.729003	-0.096553	-0.708814	0.682506	-0.178233
17494		0.196474	-0.052094	-0.979124	-0.679209	-0.727428	-0.097590	-0.707158	0.684204	-0.178304
17495		0.196861	-0.052190	-0.979041	-0.680900	-0.725759	-0.098224	-0.705422	0.685966	-0.178410
17496		0.196844	-0.052347	-0.979036	-0.681976	-0.724729	-0.098368	-0.704387	0.687043	-0.178358
17497		0.196846	-0.052884	-0.979007	-0.682191	-0.724573	-0.098027	-0.704178	0.687166	-0.178706
17498		0.196421	-0.053264	-0.979072	-0.681231	-0.725588	-0.097194	-0.705225	0.686065	-0.178806
17499		0.195651	-0.053518	-0.979212	-0.679761	-0.727114	-0.096079	-0.706857	0.684428	-0.178640
17500		0.194848	-0.053634	-0.979366	-0.678936	-0.727998	-0.095208	-0.707870	0.683478	-0.178263
17501		0.194172	-0.053662	-0.979499	-0.678747	-0.728246	-0.094655	-0.708237	0.683212	-0.177828
17502		0.193727	-0.053683	-0.979586	-0.679065	-0.727983	-0.094400	-0.708054	0.683490	-0.177484
17503		0.193301	-0.053598	-0.979674	-0.679466	-0.727627	-0.094259	-0.707786	0.683876	-0.177069
17504		0.192923	-0.053605	-0.979749	-0.679504	-0.727626	-0.093991	-0.707853	0.683876	-0.176800
17505		0.192351	-0.053773	-0.979852	-0.678557	-0.728608	-0.093220	-0.708915	0.682817	-0.176637
17506		0.191453	-0.054103	-0.980009	-0.676975	-0.730241	-0.091938	-0.710669	0.681044	-0.176434
17507		0.190355	-0.054843	-0.980182	-0.674723	-0.732558	-0.090046	-0.713102	0.678492	-0.176450
17508		0.189375	-0.056265	-0.980291	-0.672358	-0.735013	-0.087701	-0.715592	0.675715	-0.177023
17509		0.187975	-0.057738	-0.980475	-0.669397	-0.738041	-0.084874	-0.718730	0.672281	-0.177383
17510		0.186458	-0.059311	-0.980671	-0.665959	-0.741492	-0.081775	-0.722310	0.668335	-0.177755
17511		0.184975	-0.060877	-0.980856	-0.663228	-0.744249	-0.078883	-0.725198	0.665123	-0.178043
17512		0.183535	-0.062311	-0.981036	-0.661456	-0.746087	-0.076359	-0.727180	0.662927	-0.178149
17513		0.182445	-0.063713	-0.981150	-0.660142	-0.747465	-0.074215	-0.728647	0.661239	-0.178431
17514		0.181534	-0.064798	-0.981247	-0.659129	-0.748526	-0.072511	-0.729791	0.659931	-0.178593
17515		0.180705	-0.065474	-0.981356	-0.658577	-0.749129	-0.071289	-0.730495	0.659180	-0.178491
17516		0.180085	-0.065926	-0.981439	-0.659025	-0.748797	-0.070626	-0.730243	0.659512	-0.178294
17517		0.179537	-0.066166	-0.981524	-0.660016	-0.747955	-0.070307	-0.729483	0.660444	-0.177956
17518		0.179104	-0.066488	-0.981581	-0.661140	-0.746986	-0.070037	-0.728571	0.661507	-0.177746
17519		0.178829	-0.067026	-0.981594	-0.661661	-0.746569	-0.069566	-0.728165	0.661923	-0.177857
17520		0.178563	-0.067658	-0.981600	-0.661115	-0.747126	-0.068767	-0.728726	0.661230	-0.178139
17521		0.178214	-0.068232	-0.981623	-0.659865	-0.748320	-0.067784	-0.729943	0.659819	-0.178385
17522		0.177762	-0.068624	-0.981678	-0.658876	-0.749268	-0.066932	-0.730946	0.658702	-0.178406
17523		0.177665	-0.069040	-0.981666	-0.658708	-0.749453	-0.066507	-0.731122	0.658447	-0.178629
17524		0.177882	-0.069329	-0.981607	-0.659286	-0.748939	-0.066577	-0.730548	0.659002	-0.178930
17525		0.178341	-0.069404	-0.981518	-0.660094	-0.748186	-0.067034	-0.729705	0.659849	-0.179246
17526		0.179119	-0.069320	-0.981382	-0.660739	-0.747548	-0.067793	-0.728931	0.660580	-0.179703
17527		0.180016	-0.069158	-0.981230	-0.661271	-0.746998	-0.068667	-0.728228	0.661219	-0.180203
17528		0.180778	-0.068790	-0.981115	-0.661576	-0.746646	-0.069550	-0.727761	0.661655	-0.180487
17529		0.181434	-0.068428	-0.981020	-0.662005	-0.746187	-0.070386	-0.727208	0.662210	-0.180683
17530		0.182269	-0.068321	-0.980872	-0.662203	-0.745944	-0.071095	-0.726819	0.662495	-0.181205
17531		0.183053	-0.068352	-0.980724	-0.662297	-0.745809	-0.071639	-0.726536	0.662644	-0.181792
17532		0.183824	-0.068556	-0.980565	-0.662372	-0.745703	-0.072038	-0.726272	0.662742	-0.182488
17533		0.184441	-0.068789	-0.980433	-0.662738	-0.745345	-0.072380	-0.725782	0.663120	-0.183062
17534		0.185222	-0.069195	-0.980257	-0.663848	-0.744306	-0.072896	-0.724567	0.664244	-0.183797
17535		0.185997	-0.069638	-0.980079	-0.665556	-0.742716	-0.073535	-0.722800	0.665975	-0.184491
17536		0.186798	-0.070038	-0.979899	-0.667444	-0.740946	-0.074276	-0.720850	0.667903	-0.185154
17537		0.187425	-0.070369	-0.979755	-0.668917	-0.739560	-0.074845	-0.719321	0.669402	-0.185683
17538		0.188118	-0.070738	-0.979596	-0.669928	-0.738596	-0.075315	-0.718198	0.670426	-0.186333
17539		0.188795	-0.071243	-0.979429	-0.670321	-0.738219	-0.075514	-0.717654	0.670788	-0.187128
17540		0.189384	-0.071547	-0.979293	-0.670394	-0.738132	-0.075718	-0.717430	0.670852	-0.187755
17541		0.189808	-0.071745	-0.979196	-0.670352	-0.738156	-0.075857	-0.717357	0.670804	-0.188203
17542		0.190450	-0.072016	-0.979052	-0.670758	-0.737751	-0.076213	-0.716807	0.671221	-0.188810
17543		0.191242	-0.072287	-0.978878	-0.671520	-0.736999	-0.076769	-0.715882	0.672018	-0.189487
17544		0.192201	-0.072492	-0.978675	-0.672512	-0.736011	-0.077557	-0.714693	0.673077	-0.190214
17545		0.193323	-0.072722	-0.978436	-0.673833	-0.734699	-0.078532	-0.713145	0.674485	-0.191036
17546		0.194367	-0.072878	-0.978218	-0.675280	-0.733259	-0.079546	-0.711490	0.676032	-0.191734
17547		0.195291	-0.073104	-0.978017	-0.676825	-0.731735	-0.080454	-0.709767	0.677658	-0.192379
17548		0.196058	-0.073212	-0.977855	-0.678227	-0.730341	-0.081303	-0.708215	0.679148	-0.192844
17549		0.196586	-0.073160	-0.977753	-0.679580	-0.728994	-0.082089	-0.706771	0.680599	-0.193028
17550		0.197201	-0.073242	-0.977623	-0.680686	-0.727884	-0.082772	-0.705534	0.681778	-0.193394
17551		0.197996	-0.073454	-0.977447	-0.681133	-0.727405	-0.083310	-0.704880	0.682266	-0.194056
17552		0.198779	-0.073503	-0.977284	-0.681220	-0.727260	-0.083861	-0.704576	0.682415	-0.194635
17553		0.199529	-0.073443	-0.977136	-0.681117	-0.727292	-0.084418	-0.704463	0.682388	-0.195139
17554		0.200353	-0.073305	-0.976978	-0.681064	-0.727262	-0.085101	-0.704280	0.682435	-0.195634
17555		0.201214	-0.073171	-0.976811	-0.681167	-0.727077	-0.085850	-0.703935	0.682646	-0.196140
17556		0.202140	-0.073019	-0.976631	-0.681443	-0.726716	-0.086708	-0.703402	0.683046	-0.196657
17557		0.203096	-0.072862	-0.976444	-0.681620	-0.726448	-0.087567	-0.702956	0.683348	-0.197203
17558		0.203933	-0.072663	-0.976285	-0.681575	-0.726401	-0.088308	-0.702757	0.683419	-0.197662
17559		0.204843	-0.072520	-0.976105	-0.681345	-0.726531	-0.089007	-0.702715	0.683296	-0.198236
17560		0.205675	-0.072246	-0.975950	-0.681155	-0.726616	-0.089761	-0.702656	0.683235	-0.198657
17561		0.206501	-0.072000	-0.975794	-0.681038	-0.726633	-0.090509	-0.702527	0.683242	-0.199085
17562		0.207412	-0.071766	-0.975618	-0.681234	-0.726337	-0.091398	-0.702068	0.683581	-0.199541
17563		0.208274	-0.071498	-0.975454	-0.681589	-0.725888	-0.092324	-0.701469	0.684087	-0.199915
17564		0.209186	-0.071165	-0.975283	-0.681595	-0.725765	-0.093235	-0.701192	0.684251	-0.200326
17565		0.210040	-0.070731	-0.975131	-0.681149	-0.726078	-0.094051	-0.701369	0.683964	-0.200684
17566		0.210926	-0.070119	-0.974984	-0.680538	-0.726532	-0.094975	-0.701697	0.683546	-0.200963
17567		0.211880	-0.069461	-0.974824	-0.679931	-0.726967	-0.095984	-0.701998	0.683150	-0.201258
17568		0.212962	-0.068775	-0.974637	-0.679352	-0.727358	-0.097115	-0.702231	0.682803	-0.201623
17569		0.214008	-0.067920	-0.974468	-0.678428	-0.728068	-0.098247	-0.702806	0.682132	-0.201891
17570		0.215168	-0.066964	-0.974279	-0.677422	-0.728832	-0.099514	-0.703421	0.681410	-0.202184
17571		0.216453	-0.065975	-0.974061	-0.676533	-0.729463	-0.100930	-0.703883	0.680831	-0.202529
17572		0.217690	-0.064728	-0.973869	-0.675532	-0.730175	-0.102472	-0.704463	0.680187	-0.202678
17573		0.218956	-0.063482	-0.973667	-0.674396	-0.731010	-0.103995	-0.705158	0.679408	-0.202871
17574		0.220210	-0.062167	-0.973469	-0.673153	-0.731934	-0.105533	-0.705955	0.678533	-0.203027
17575		0.221569	-0.060850	-0.973244	-0.671905	-0.732846	-0.107147	-0.706718	0.677668	-0.203261
17576		0.222964	-0.059578	-0.973004	-0.670810	-0.733605	-0.108797	-0.707319	0.676959	-0.203533
17577		0.224182	-0.058224	-0.972807	-0.669591	-0.734487	-0.110346	-0.708089	0.676120	-0.203645
17578		0.225296	-0.056684	-0.972640	-0.668123	-0.735589	-0.111890	-0.709121	0.675052	-0.203597
17579		0.226431	-0.055213	-0.972461	-0.666799	-0.736553	-0.113441	-0.710005	0.674123	-0.203594
17580		0.227620	-0.053729	-0.972267	-0.665797	-0.737197	-0.115133	-0.710566	0.673538	-0.203574
17581		0.228776	-0.052274	-0.972075	-0.664914	-0.737729	-0.116815	-0.711021	0.673070	-0.203532
17582		0.229903	-0.050846	-0.971885	-0.664232	-0.738072	-0.118513	-0.711295	0.672803	-0.203458
17583		0.231005	-0.049467	-0.971694	-0.663806	-0.738178	-0.120230	-0.711336	0.672790	-0.203359
17584		0.232245	-0.048169	-0.971464	-0.663688	-0.737982	-0.122074	-0.711042	0.673100	-0.203362
17585		0.233411	-0.046977	-0.971243	-0.663540	-0.737831	-0.123776	-0.710798	0.673349	-0.203389
17586		0.234679	-0.045922	-0.970988	-0.663524	-0.737556	-0.125486	-0.710395	0.673723	-0.203559
17587		0.235889	-0.044970	-0.970739	-0.663343	-0.737455	-0.127028	-0.710164	0.673897	-0.203788
17588		0.237034	-0.044006	-0.970504	-0.663077	-0.737438	-0.128510	-0.710031	0.673980	-0.203977
17589		0.237939	-0.042921	-0.970331	-0.662767	-0.737472	-0.129899	-0.710017	0.674012	-0.203921
17590		0.238826	-0.041958	-0.970155	-0.662344	-0.737632	-0.131150	-0.710115	0.673898	-0.203956
17591		0.239603	-0.041023	-0.970004	-0.661978	-0.737752	-0.132316	-0.710194	0.673825	-0.203924
17592		0.240278	-0.040078	-0.969876	-0.661422	-0.738062	-0.133363	-0.710483	0.673542	-0.203849
17593		0.240853	-0.039192	-0.969770	-0.660653	-0.738593	-0.134231	-0.711005	0.673012	-0.203784
17594		0.241269	-0.038230	-0.969705	-0.659726	-0.739281	-0.134999	-0.711724	0.672311	-0.203587
17595		0.241728	-0.037504	-0.969619	-0.658910	-0.739890	-0.135649	-0.712324	0.671682	-0.203564
17596		0.242083	-0.036705	-0.969561	-0.657936	-0.740648	-0.136237	-0.713103	0.670890	-0.203448
17597		0.242412	-0.036055	-0.969503	-0.657132	-0.741269	-0.136740	-0.713733	0.670239	-0.203385
17598		0.242722	-0.035491	-0.969446	-0.656859	-0.741404	-0.137316	-0.713878	0.670119	-0.203268
17599		0.243102	-0.035170	-0.969363	-0.656794	-0.741369	-0.137816	-0.713809	0.670175	-0.203328
17600		0.243697	-0.035131	-0.969215	-0.656524	-0.741538	-0.138196	-0.713855	0.669991	-0.203775
17601		0.244136	-0.035171	-0.969103	-0.656154	-0.741832	-0.138375	-0.714044	0.669663	-0.204185
17602		0.244316	-0.035088	-0.969061	-0.655852	-0.742079	-0.138481	-0.714261	0.669393	-0.204314
17603		0.244403	-0.035188	-0.969035	-0.655902	-0.742034	-0.138482	-0.714184	0.669438	-0.204435
17604		0.244461	-0.035433	-0.969011	-0.656091	-0.741885	-0.138390	-0.713991	0.669590	-0.204609
17605		0.244503	-0.035722	-0.968990	-0.656015	-0.741991	-0.138177	-0.714046	0.669457	-0.204854
17606		0.244552	-0.035979	-0.968968	-0.655909	-0.742121	-0.137985	-0.714127	0.669299	-0.205086
17607		0.244616	-0.036302	-0.968940	-0.655977	-0.742095	-0.137803	-0.714043	0.669311	-0.205341
17608		0.244848	-0.036695	-0.968867	-0.655916	-0.742177	-0.137651	-0.714019	0.669199	-0.205789
17609		0.245109	-0.037135	-0.968784	-0.655912	-0.742208	-0.137500	-0.713933	0.669140	-0.206279
17610		0.245261	-0.037377	-0.968736	-0.655969	-0.742169	-0.137441	-0.713829	0.669170	-0.206543
17611		0.245347	-0.037571	-0.968707	-0.656112	-0.742051	-0.137395	-0.713668	0.669289	-0.206711
17612		0.245522	-0.037764	-0.968655	-0.656264	-0.741913	-0.137417	-0.713468	0.669432	-0.206939
17613		0.245659	-0.037980	-0.968612	-0.656135	-0.742045	-0.137313	-0.713539	0.669273	-0.207210
17614		0.245694	-0.038097	-0.968598	-0.655669	-0.742495	-0.137113	-0.713956	0.668767	-0.207406
17615		0.245618	-0.038070	-0.968619	-0.655092	-0.743041	-0.136911	-0.714511	0.668162	-0.207444
17616		0.245637	-0.038044	-0.968615	-0.654594	-0.743500	-0.136800	-0.714961	0.667653	-0.207535
17617		0.245847	-0.038156	-0.968557	-0.654212	-0.743845	-0.136754	-0.715238	0.667262	-0.207834
17618		0.246044	-0.038216	-0.968505	-0.653930	-0.744091	-0.136767	-0.715429	0.666985	-0.208070
17619		0.246158	-0.038137	-0.968479	-0.653770	-0.744214	-0.136863	-0.715536	0.666852	-0.208127
17620		0.246358	-0.038103	-0.968430	-0.653883	-0.744077	-0.137065	-0.715363	0.667007	-0.208224
17621		0.246669	-0.038232	-0.968345	-0.654221	-0.743739	-0.137287	-0.714947	0.667376	-0.208469
17622		0.247061	-0.038349	-0.968241	-0.654561	-0.743386	-0.137578	-0.714500	0.667763	-0.208764
17623		0.247341	-0.038384	-0.968168	-0.654824	-0.743108	-0.137829	-0.714163	0.668070	-0.208936
17624		0.247559	-0.038349	-0.968114	-0.655183	-0.742738	-0.138117	-0.713758	0.668483	-0.208997
17625		0.247799	-0.038378	-0.968051	-0.655668	-0.742255	-0.138410	-0.713228	0.669018	-0.209094
17626		0.248126	-0.038498	-0.967962	-0.656186	-0.741742	-0.138705	-0.712638	0.669580	-0.209308
17627		0.248404	-0.038602	-0.967887	-0.656721	-0.741216	-0.138983	-0.712049	0.670155	-0.209472
17628		0.248613	-0.038672	-0.967831	-0.657218	-0.740730	-0.139226	-0.711517	0.670689	-0.209571
17629		0.248810	-0.038802	-0.967775	-0.657439	-0.740513	-0.139334	-0.711243	0.670921	-0.209757
17630		0.249031	-0.038983	-0.967711	-0.657629	-0.740330	-0.139411	-0.710990	0.671113	-0.210001
17631		0.249150	-0.039048	-0.967677	-0.657877	-0.740089	-0.139520	-0.710720	0.671374	-0.210082
17632		0.249257	-0.039054	-0.967650	-0.658335	-0.739643	-0.139729	-0.710258	0.671866	-0.210072
17633		0.249469	-0.039206	-0.967589	-0.658949	-0.739054	-0.139947	-0.709614	0.672504	-0.210206
17634		0.249720	-0.039400	-0.967516	-0.659673	-0.738360	-0.140197	-0.708852	0.673255	-0.210374
17635		0.249970	-0.039662	-0.967441	-0.660538	-0.737541	-0.140435	-0.707958	0.674136	-0.210562
17636		0.250212	-0.039875	-0.967370	-0.661341	-0.736773	-0.140688	-0.707122	0.674963	-0.210720
17637		0.250431	-0.040144	-0.967302	-0.662244	-0.735919	-0.140911	-0.706199	0.675879	-0.210882
17638		0.250641	-0.040444	-0.967235	-0.663208	-0.735010	-0.141124	-0.705219	0.676849	-0.211046
17639		0.250767	-0.040690	-0.967192	-0.664127	-0.734145	-0.141305	-0.704309	0.677772	-0.211123
17640		0.250943	-0.040899	-0.967137	-0.665177	-0.733138	-0.141590	-0.703255	0.678848	-0.211181
17641		0.251159	-0.041159	-0.967070	-0.666456	-0.731909	-0.141936	-0.701966	0.680158	-0.211257
17642		0.251401	-0.041402	-0.966997	-0.667731	-0.730672	-0.142313	-0.700666	0.681472	-0.211337
17643		0.251593	-0.041657	-0.966936	-0.668977	-0.729468	-0.142639	-0.699407	0.682745	-0.211396
17644		0.251785	-0.041890	-0.966876	-0.670119	-0.728358	-0.142950	-0.698244	0.683915	-0.211461
17645		0.251935	-0.042131	-0.966826	-0.671146	-0.727364	-0.143191	-0.697202	0.684957	-0.211525
