// Start Time: Unknown
// Update Rate: 100.0Hz
// Filter Profile: human (46.1)
// Option Flags: AHS Disabled ICC Disabled 
// Firmware Version: 4.0.2
PacketCounter	SampleTimeFine	Mat[1][1]	Mat[2][1]	Mat[3][1]	Mat[1][2]	Mat[2][2]	Mat[3][2]	Mat[1][3]	Mat[2][3]	Mat[3][3]
37291		-0.138952	0.253122	-0.957404	0.987666	-0.035036	-0.152607	-0.072172	-0.966800	-0.245131
37292		-0.139645	0.253476	-0.957209	0.987451	-0.036358	-0.153685	-0.073758	-0.966658	-0.245218
37293		-0.140214	0.253853	-0.957026	0.987212	-0.038193	-0.154768	-0.075840	-0.966488	-0.245252
37294		-0.140976	0.254161	-0.956832	0.987018	-0.039043	-0.155794	-0.076955	-0.966374	-0.245357
37295		-0.141697	0.254310	-0.956686	0.986821	-0.040007	-0.156795	-0.078149	-0.966295	-0.245290
37296		-0.142620	0.254360	-0.956536	0.986589	-0.040974	-0.157997	-0.079381	-0.966241	-0.245105
37297		-0.143432	0.254423	-0.956398	0.986219	-0.043773	-0.159549	-0.082458	-0.966102	-0.244638
37298		-0.144647	0.254328	-0.956240	0.985812	-0.046130	-0.161389	-0.085157	-0.966017	-0.244047
37299		-0.145637	0.254403	-0.956070	0.985292	-0.050014	-0.163396	-0.089385	-0.965804	-0.243377
37300		-0.147095	0.254424	-0.955841	0.984805	-0.052516	-0.165531	-0.092312	-0.965666	-0.242833
37301		-0.148381	0.254622	-0.955589	0.984241	-0.055969	-0.167743	-0.096195	-0.965420	-0.242304
37302		-0.150117	0.254528	-0.955343	0.983808	-0.057241	-0.169840	-0.097914	-0.965370	-0.241814
37303		-0.151447	0.254586	-0.955118	0.983295	-0.059901	-0.171881	-0.100971	-0.965193	-0.241261
37304		-0.153222	0.254094	-0.954966	0.982912	-0.060577	-0.173824	-0.102017	-0.965281	-0.240470
37305		-0.154523	0.253610	-0.954885	0.982384	-0.063365	-0.175802	-0.105092	-0.965229	-0.239351
37306		-0.156218	0.252715	-0.954846	0.981911	-0.064982	-0.177844	-0.106992	-0.965356	-0.237992
37307		-0.157216	0.252039	-0.954861	0.981179	-0.069911	-0.180003	-0.112123	-0.965189	-0.236304
37308		-0.158507	0.251235	-0.954859	0.980559	-0.073244	-0.182045	-0.115674	-0.965151	-0.234741
37309		-0.158959	0.251011	-0.954843	0.979695	-0.079593	-0.184020	-0.122190	-0.964706	-0.233262
37310		-0.160014	0.250296	-0.954855	0.979068	-0.083019	-0.185833	-0.125784	-0.964603	-0.231773
37311		-0.160151	0.250020	-0.954904	0.978087	-0.090185	-0.187652	-0.133035	-0.964031	-0.230098
37312		-0.161319	0.248775	-0.955033	0.977521	-0.092837	-0.189300	-0.135756	-0.964102	-0.228207
37313		-0.161572	0.247766	-0.955252	0.976649	-0.098744	-0.190803	-0.141600	-0.963775	-0.226026
37314		-0.162859	0.246048	-0.955478	0.976066	-0.101281	-0.192450	-0.144123	-0.963952	-0.223665
37315		-0.163132	0.245395	-0.955599	0.974979	-0.108153	-0.194214	-0.151010	-0.963371	-0.221612
37316		-0.164655	0.244158	-0.955655	0.974432	-0.109902	-0.195969	-0.152876	-0.963488	-0.219819
37317		-0.165296	0.243930	-0.955602	0.973433	-0.115317	-0.197816	-0.158450	-0.962912	-0.218388
37318		-0.167247	0.242880	-0.955530	0.972965	-0.115909	-0.199761	-0.159273	-0.963107	-0.216928
37319		-0.168664	0.242403	-0.955402	0.972085	-0.119485	-0.201924	-0.163103	-0.962790	-0.215483
37320		-0.171428	0.240733	-0.955332	0.971777	-0.118188	-0.204161	-0.162057	-0.963369	-0.213678
37321		-0.174241	0.239190	-0.955211	0.971251	-0.118050	-0.206727	-0.162210	-0.963770	-0.211744
37322		-0.177765	0.237502	-0.954983	0.970733	-0.116926	-0.209776	-0.161485	-0.964324	-0.209766
37323		-0.181457	0.236015	-0.954657	0.969973	-0.116912	-0.213271	-0.161946	-0.964691	-0.207714
37324		-0.185419	0.234461	-0.954279	0.969131	-0.116954	-0.217040	-0.162494	-0.965065	-0.205538
37325		-0.189536	0.232684	-0.953905	0.968242	-0.117034	-0.220933	-0.163047	-0.965485	-0.203112
37326		-0.193625	0.230877	-0.953522	0.967364	-0.116994	-0.224764	-0.163450	-0.965923	-0.200689
37327		-0.197614	0.228897	-0.953182	0.966482	-0.117077	-0.228486	-0.163896	-0.966385	-0.198089
37328		-0.201253	0.226938	-0.952889	0.965696	-0.117001	-0.231822	-0.164099	-0.966856	-0.195606
37329		-0.204593	0.225099	-0.952613	0.964957	-0.116985	-0.234887	-0.164315	-0.967287	-0.193276
37330		-0.207571	0.223162	-0.952425	0.964347	-0.116712	-0.237516	-0.164163	-0.967769	-0.190979
37331		-0.210130	0.221095	-0.952346	0.963898	-0.116093	-0.239631	-0.163542	-0.968318	-0.188718
37332		-0.212254	0.218925	-0.952376	0.963567	-0.115422	-0.241280	-0.162747	-0.968891	-0.186450
37333		-0.213876	0.216530	-0.952561	0.963463	-0.114192	-0.242281	-0.161236	-0.969574	-0.184196
37334		-0.215001	0.213841	-0.952915	0.963606	-0.112270	-0.242607	-0.158863	-0.970396	-0.181920
37335		-0.215526	0.210743	-0.953486	0.964012	-0.109729	-0.242158	-0.155659	-0.971363	-0.179509
37336		-0.215447	0.207157	-0.954289	0.964677	-0.106558	-0.240924	-0.151596	-0.972487	-0.176882
37337		-0.214549	0.203198	-0.955342	0.965630	-0.102806	-0.238725	-0.146723	-0.973726	-0.174158
37338		-0.212810	0.199100	-0.956593	0.966809	-0.098763	-0.235639	-0.141392	-0.974990	-0.171474
37339		-0.210049	0.194893	-0.958069	0.968239	-0.094464	-0.231495	-0.135620	-0.976265	-0.168861
37340		-0.206115	0.190756	-0.959754	0.969842	-0.090568	-0.226282	-0.130088	-0.977451	-0.166336
37341		-0.200813	0.186565	-0.961700	0.971570	-0.087741	-0.219895	-0.125405	-0.978517	-0.163642
37342		-0.194084	0.182269	-0.963903	0.973278	-0.087150	-0.212451	-0.122727	-0.979379	-0.160484
37343		-0.185656	0.177313	-0.966484	0.975020	-0.088811	-0.203589	-0.121933	-0.980139	-0.156395
37344		-0.175344	0.171560	-0.969444	0.976761	-0.092968	-0.193120	-0.123259	-0.980777	-0.151271
37345		-0.163144	0.164879	-0.972728	0.978547	-0.098689	-0.180848	-0.125816	-0.981364	-0.145241
37346		-0.149065	0.157427	-0.976215	0.980469	-0.104563	-0.166577	-0.128299	-0.981979	-0.138765
37347		-0.133247	0.149227	-0.979784	0.982637	-0.108896	-0.150220	-0.129111	-0.982788	-0.132126
37348		-0.116100	0.140703	-0.983221	0.985018	-0.110777	-0.132165	-0.127514	-0.983835	-0.125734
37349		-0.097648	0.132053	-0.986421	0.987554	-0.109936	-0.112478	-0.123296	-0.985127	-0.119675
37350		-0.078092	0.124249	-0.989173	0.989874	-0.108311	-0.091752	-0.118538	-0.986322	-0.114532
37351		-0.057938	0.117629	-0.991366	0.991771	-0.106782	-0.070632	-0.114168	-0.987300	-0.110474
37352		-0.037544	0.111915	-0.993008	0.992998	-0.107205	-0.049626	-0.112009	-0.987918	-0.107106
37353		-0.017702	0.106922	-0.994110	0.993327	-0.111452	-0.029675	-0.113968	-0.988001	-0.104236
37354		0.000532	0.102340	-0.994749	0.992951	-0.117959	-0.011604	-0.118527	-0.987731	-0.101681
37355		0.016604	0.097723	-0.995075	0.991967	-0.126432	0.004136	-0.125405	-0.987150	-0.099037
37356		0.030858	0.093510	-0.995140	0.990663	-0.135140	0.018021	-0.132798	-0.986404	-0.096807
37357		0.044471	0.089663	-0.994979	0.989234	-0.142950	0.031332	-0.139423	-0.985660	-0.095055
37358		0.058011	0.085851	-0.994618	0.987406	-0.151823	0.044486	-0.147187	-0.984672	-0.093578
37359		0.071713	0.082025	-0.994047	0.985296	-0.160779	0.057815	-0.155079	-0.983576	-0.092349
37360		0.085490	0.078735	-0.993223	0.982965	-0.169450	0.071174	-0.162698	-0.982389	-0.091881
37361		0.099237	0.076032	-0.992155	0.980479	-0.177558	0.084463	-0.169743	-0.981169	-0.092168
37362		0.112736	0.074364	-0.990838	0.978005	-0.184428	0.097434	-0.175493	-0.980029	-0.093520
37363		0.126013	0.072992	-0.989340	0.975712	-0.189256	0.110314	-0.179186	-0.979211	-0.095068
37364		0.138812	0.072053	-0.987694	0.973536	-0.192763	0.122760	-0.181546	-0.978596	-0.096904
37365		0.150989	0.071167	-0.985970	0.971938	-0.192690	0.134932	-0.180384	-0.978676	-0.098264
37366		0.162394	0.070111	-0.984232	0.970909	-0.189238	0.146716	-0.175967	-0.979425	-0.098803
37367		0.173169	0.069296	-0.982451	0.970427	-0.182341	0.158189	-0.168179	-0.980790	-0.098822
37368		0.183333	0.069042	-0.980623	0.970312	-0.172778	0.169240	-0.157745	-0.982538	-0.098668
37369		0.193069	0.069333	-0.978732	0.970333	-0.161439	0.179976	-0.145527	-0.984444	-0.098445
37370		0.202216	0.070008	-0.976836	0.970227	-0.150081	0.190092	-0.133296	-0.986192	-0.098273
37371		0.210751	0.070094	-0.975023	0.969942	-0.139109	0.199652	-0.121640	-0.987793	-0.097305
37372		0.218658	0.069836	-0.973299	0.969630	-0.127551	0.208682	-0.109571	-0.989370	-0.095605
37373		0.225639	0.069498	-0.971729	0.969444	-0.114574	0.216914	-0.096260	-0.990981	-0.093227
37374		0.231619	0.069107	-0.970349	0.969309	-0.100908	0.224184	-0.082423	-0.992493	-0.090358
37375		0.236756	0.068919	-0.969122	0.969185	-0.086591	0.230614	-0.068024	-0.993857	-0.087296
37376		0.241010	0.068940	-0.968071	0.969000	-0.072937	0.236047	-0.054335	-0.994951	-0.084382
37377		0.244475	0.068852	-0.967208	0.968753	-0.060358	0.240569	-0.041815	-0.995799	-0.081456
37378		0.247424	0.068550	-0.966479	0.968392	-0.050006	0.244367	-0.031578	-0.996394	-0.078756
37379		0.249864	0.068138	-0.965880	0.967984	-0.042274	0.247426	-0.023972	-0.996780	-0.076520
37380		0.251590	0.067879	-0.965451	0.967652	-0.036978	0.249564	-0.018760	-0.997008	-0.074987
37381		0.252567	0.067821	-0.965200	0.967475	-0.032324	0.250891	-0.014184	-0.997174	-0.073779
37382		0.252843	0.067845	-0.965126	0.967460	-0.027593	0.251515	-0.009567	-0.997314	-0.072614
37383		0.252415	0.067685	-0.965249	0.967606	-0.022855	0.251429	-0.005043	-0.997445	-0.071261
37384		0.251291	0.067320	-0.965568	0.967912	-0.017856	0.250656	-0.000367	-0.997572	-0.069646
37385		0.249453	0.066837	-0.966078	0.968377	-0.012729	0.249166	0.004357	-0.997683	-0.067899
37386		0.246880	0.066110	-0.966788	0.969005	-0.007622	0.246925	0.008955	-0.997783	-0.065942
37387		0.243782	0.065032	-0.967647	0.969732	-0.002147	0.244163	0.013801	-0.997881	-0.063587
37388		0.240143	0.064232	-0.968610	0.970562	0.003095	0.240833	0.018467	-0.997930	-0.061598
37389		0.235951	0.064078	-0.969650	0.971495	0.007953	0.236926	0.022893	-0.997913	-0.060375
37390		0.231449	0.063715	-0.970758	0.972443	0.013588	0.232743	0.028020	-0.997876	-0.058814
37391		0.226760	0.062782	-0.971925	0.973365	0.019978	0.228387	0.033756	-0.997827	-0.056580
37392		0.222163	0.061675	-0.973057	0.974226	0.025970	0.224076	0.039090	-0.997758	-0.054316
37393		0.217571	0.061416	-0.974110	0.975082	0.030638	0.219720	0.043339	-0.997642	-0.053219
37394		0.212930	0.062604	-0.975060	0.975952	0.034047	0.215310	0.046677	-0.997458	-0.053849
37395		0.208163	0.064840	-0.975943	0.976786	0.037806	0.210855	0.050568	-0.997179	-0.055465
37397		0.198522	0.067842	-0.977746	0.977743	0.055382	0.202365	0.067878	-0.996158	-0.055337
37398		0.194490	0.067401	-0.978586	0.977537	0.069272	0.199053	0.081205	-0.995318	-0.052415
37399		0.191394	0.067414	-0.979195	0.976919	0.083332	0.196687	0.094858	-0.994239	-0.049909
37400		0.189160	0.069794	-0.979463	0.976127	0.095063	0.195290	0.106741	-0.993022	-0.050145
37401		0.187506	0.074315	-0.979448	0.975483	0.102873	0.194552	0.115217	-0.991915	-0.053204
37402		0.186385	0.078914	-0.979302	0.974979	0.108050	0.194269	0.121145	-0.991008	-0.056801
37403		0.185643	0.082858	-0.979118	0.974604	0.111471	0.194221	0.125236	-0.990307	-0.060060
37404		0.185153	0.086214	-0.978921	0.974247	0.114347	0.194340	0.128692	-0.989693	-0.062822
37405		0.184610	0.089235	-0.978752	0.974045	0.116105	0.194308	0.130977	-0.989220	-0.065485
37406		0.183906	0.092056	-0.978624	0.974095	0.116219	0.193987	0.131592	-0.988948	-0.068298
37407		0.182845	0.095167	-0.978525	0.974528	0.113923	0.193177	0.129861	-0.988921	-0.071913
37408		0.181290	0.098938	-0.978440	0.975293	0.109632	0.191792	0.126244	-0.989036	-0.076618
37409		0.179215	0.103842	-0.978314	0.976267	0.104133	0.189893	0.121593	-0.989128	-0.082715
37410		0.176703	0.109937	-0.978105	0.977209	0.099176	0.187688	0.117639	-0.988978	-0.089907
37411		0.173517	0.117139	-0.977840	0.978131	0.095122	0.184963	0.114681	-0.988550	-0.098072
37412		0.169691	0.124164	-0.977644	0.978886	0.093480	0.181779	0.113960	-0.987849	-0.105680
37413		0.164774	0.130059	-0.977719	0.979661	0.093504	0.177540	0.114512	-0.987087	-0.112007
37414		0.158676	0.134771	-0.978089	0.980785	0.092371	0.171841	0.113506	-0.986562	-0.117524
37415		0.151796	0.138417	-0.978672	0.982255	0.089215	0.164970	0.110147	-0.986348	-0.122418
37416		0.145107	0.140547	-0.979383	0.983590	0.086774	0.158183	0.107217	-0.986264	-0.125649
37417		0.139158	0.142459	-0.979970	0.984501	0.086763	0.152414	0.106738	-0.985991	-0.128177
37418		0.134232	0.146267	-0.980096	0.985092	0.087684	0.148002	0.107586	-0.985351	-0.132317
37419		0.130092	0.153435	-0.979558	0.985481	0.088703	0.144773	0.109103	-0.984169	-0.139668
37420		0.126901	0.161226	-0.978725	0.985378	0.092603	0.143019	0.113691	-0.982563	-0.147118
37421		0.124667	0.166918	-0.978058	0.984763	0.099641	0.142526	0.121244	-0.980923	-0.151952
37422		0.122851	0.171170	-0.977552	0.983603	0.110046	0.142881	0.132033	-0.979076	-0.154844
37423		0.120762	0.175084	-0.977119	0.982453	0.119862	0.142898	0.142139	-0.977230	-0.157537
37424		0.117277	0.178100	-0.976999	0.981959	0.126145	0.140868	0.148332	-0.975893	-0.160093
37425		0.111630	0.180831	-0.977159	0.982473	0.127632	0.135856	0.149284	-0.975197	-0.163415
37426		0.103866	0.183577	-0.977503	0.984128	0.123216	0.127710	0.143889	-0.975252	-0.167865
37427		0.094638	0.186677	-0.977852	0.986647	0.113201	0.117100	0.132554	-0.975878	-0.173471
37428		0.084975	0.191342	-0.977838	0.989299	0.100613	0.105659	0.118600	-0.976353	-0.180745
37429		0.075772	0.197588	-0.977352	0.991577	0.088326	0.094732	0.105043	-0.976298	-0.189231
37430		0.067595	0.203423	-0.976755	0.993120	0.080110	0.085412	0.095623	-0.975808	-0.196608
37431		0.060584	0.207613	-0.976333	0.994053	0.076127	0.077872	0.090493	-0.975244	-0.201766
37432		0.054820	0.209784	-0.976210	0.994638	0.074393	0.071841	0.087695	-0.974914	-0.204581
37433		0.050105	0.210122	-0.976390	0.994992	0.074159	0.067019	0.086491	-0.974858	-0.205354
37434		0.045742	0.209529	-0.976732	0.995186	0.075274	0.062754	0.086672	-0.974901	-0.205078
37435		0.041100	0.209003	-0.977051	0.995466	0.075387	0.058001	0.085780	-0.975005	-0.204957
37436		0.035811	0.209041	-0.977251	0.995850	0.074408	0.052409	0.083671	-0.975072	-0.205508
37437		0.029547	0.209948	-0.977266	0.996424	0.071245	0.045432	0.079164	-0.975113	-0.207092
37438		0.022433	0.211597	-0.977099	0.997051	0.067004	0.037402	0.073384	-0.975057	-0.209470
37439		0.014546	0.213491	-0.976837	0.997701	0.061565	0.028312	0.066183	-0.975003	-0.212105
37440		0.005743	0.215418	-0.976505	0.998415	0.053445	0.017662	0.055994	-0.975058	-0.214770
37441		-0.003623	0.216692	-0.976233	0.998970	0.044950	0.006269	0.045240	-0.975205	-0.216631
37442		-0.013433	0.217086	-0.976060	0.999363	0.035203	-0.005924	0.033074	-0.975517	-0.217421
37443		-0.022996	0.217100	-0.975878	0.999488	0.026719	-0.017609	0.022251	-0.975784	-0.217603
37444		-0.032295	0.216325	-0.975787	0.999399	0.019286	-0.028801	0.012589	-0.976131	-0.216817
37445		-0.041351	0.215709	-0.975582	0.999137	0.012852	-0.039508	0.004016	-0.976373	-0.216054
37446		-0.049966	0.215494	-0.975226	0.998743	0.006810	-0.049666	-0.004061	-0.976481	-0.215564
37447		-0.057820	0.215274	-0.974840	0.998259	0.001047	-0.058977	-0.011675	-0.976553	-0.214960
37448		-0.064963	0.214908	-0.974471	0.997724	-0.003722	-0.067334	-0.018098	-0.976627	-0.214177
37449		-0.071677	0.214898	-0.974003	0.997148	-0.007709	-0.075081	-0.023644	-0.976606	-0.213732
37450		-0.078320	0.214980	-0.973473	0.996521	-0.011038	-0.082612	-0.028505	-0.976556	-0.213368
37451		-0.084774	0.215162	-0.972892	0.995866	-0.013667	-0.089799	-0.032618	-0.976483	-0.213114
37452		-0.091005	0.215617	-0.972228	0.995175	-0.016268	-0.096761	-0.036680	-0.976342	-0.213096
37453		-0.096952	0.216407	-0.971477	0.994460	-0.018759	-0.103424	-0.040605	-0.976123	-0.213390
37454		-0.102639	0.217124	-0.970733	0.993744	-0.020819	-0.109728	-0.044035	-0.975922	-0.213629
37455		-0.108209	0.217725	-0.969993	0.992991	-0.022985	-0.115934	-0.047537	-0.975739	-0.213712
37456		-0.113760	0.218534	-0.969176	0.992245	-0.024190	-0.121923	-0.050089	-0.975530	-0.214087
37457		-0.119321	0.219408	-0.968309	0.991465	-0.025274	-0.127901	-0.052536	-0.975306	-0.214519
37458		-0.124970	0.220065	-0.967447	0.990635	-0.026376	-0.133965	-0.054999	-0.975128	-0.214708
37459		-0.130788	0.220963	-0.966473	0.989738	-0.027496	-0.140222	-0.057558	-0.974894	-0.215100
37460		-0.136796	0.222260	-0.965343	0.988761	-0.028699	-0.146722	-0.060315	-0.974565	-0.215836
37461		-0.143103	0.223759	-0.964082	0.987677	-0.030077	-0.153586	-0.063363	-0.974180	-0.216698
37462		-0.149526	0.225207	-0.962769	0.986503	-0.031742	-0.160638	-0.066737	-0.973794	-0.217421
37463		-0.156026	0.226472	-0.961440	0.985226	-0.033899	-0.167871	-0.070610	-0.973428	-0.217837
37464		-0.162373	0.227472	-0.960152	0.983925	-0.035987	-0.174920	-0.074342	-0.973120	-0.217972
37465		-0.168465	0.228626	-0.958827	0.982595	-0.038285	-0.181770	-0.078267	-0.972761	-0.218197
37466		-0.174302	0.229597	-0.957551	0.981270	-0.040506	-0.188332	-0.082027	-0.972443	-0.218236
37467		-0.179655	0.230622	-0.956314	0.979972	-0.042928	-0.194452	-0.085898	-0.972096	-0.218291
37468		-0.184608	0.231699	-0.955110	0.978776	-0.044638	-0.200011	-0.088976	-0.971763	-0.218541
37469		-0.189261	0.232590	-0.953982	0.977709	-0.045315	-0.205016	-0.090914	-0.971519	-0.218829
37470		-0.193580	0.232961	-0.953025	0.976838	-0.044512	-0.209297	-0.091179	-0.971467	-0.218948
37471		-0.197624	0.233364	-0.952096	0.976092	-0.042817	-0.213099	-0.090495	-0.971446	-0.219323
37472		-0.201313	0.233579	-0.951270	0.975455	-0.040657	-0.216414	-0.089226	-0.971488	-0.219661
37473		-0.204467	0.234042	-0.950483	0.974900	-0.038707	-0.219251	-0.088104	-0.971456	-0.220253
37474		-0.207166	0.234745	-0.949725	0.974365	-0.037542	-0.221820	-0.087726	-0.971332	-0.220950
37475		-0.209405	0.235826	-0.948966	0.973850	-0.037160	-0.224131	-0.088120	-0.971085	-0.221878
37476		-0.211461	0.236788	-0.948270	0.973317	-0.037426	-0.226392	-0.089097	-0.970840	-0.222556
37477		-0.213644	0.237638	-0.947568	0.972743	-0.037760	-0.228790	-0.090150	-0.970619	-0.223094
37478		-0.216040	0.238199	-0.946883	0.972132	-0.037938	-0.231344	-0.091029	-0.970475	-0.223365
37479		-0.218611	0.238241	-0.946282	0.971382	-0.039163	-0.234270	-0.092872	-0.970416	-0.222862
37480		-0.221287	0.237904	-0.945745	0.970390	-0.042568	-0.237762	-0.096823	-0.970355	-0.221440
37481		-0.224073	0.237422	-0.945210	0.969148	-0.047904	-0.241781	-0.102683	-0.970225	-0.219363
37482		-0.226835	0.236761	-0.944717	0.967771	-0.054150	-0.245942	-0.109386	-0.970058	-0.216847
37483		-0.229415	0.235653	-0.944371	0.966346	-0.060868	-0.249942	-0.116381	-0.969929	-0.213759
37484		-0.231476	0.234091	-0.944256	0.965003	-0.067710	-0.253348	-0.123242	-0.969854	-0.210225
37485		-0.232925	0.232257	-0.944353	0.963753	-0.074779	-0.256101	-0.130099	-0.969776	-0.206420
37486		-0.233605	0.229830	-0.944779	0.962699	-0.081758	-0.257925	-0.136522	-0.969791	-0.202158
37487		-0.233469	0.226879	-0.945525	0.961855	-0.088693	-0.258783	-0.142574	-0.969876	-0.197518
37488		-0.232101	0.223516	-0.946663	0.961408	-0.095097	-0.258169	-0.147729	-0.970050	-0.192818
37489		-0.229348	0.219966	-0.948164	0.961358	-0.101213	-0.256020	-0.152282	-0.970243	-0.188253
37490		-0.224898	0.216115	-0.950113	0.961715	-0.107488	-0.252094	-0.156607	-0.970433	-0.183667
37491		-0.218563	0.212106	-0.952492	0.962348	-0.114797	-0.246389	-0.161604	-0.970481	-0.179029
37492		-0.209988	0.207499	-0.955432	0.963235	-0.123590	-0.238544	-0.167579	-0.970397	-0.173918
37493		-0.198994	0.202528	-0.958845	0.964218	-0.134423	-0.228502	-0.175169	-0.970007	-0.168531
37494		-0.185153	0.196809	-0.962800	0.965131	-0.148068	-0.215868	-0.185045	-0.969196	-0.162532
37495		-0.168502	0.190192	-0.967178	0.965909	-0.163781	-0.200488	-0.196537	-0.967989	-0.156111
37496		-0.148704	0.182162	-0.971959	0.967074	-0.178492	-0.181409	-0.206533	-0.966932	-0.149622
37497		-0.126299	0.173038	-0.976784	0.969166	-0.188493	-0.158706	-0.211579	-0.966710	-0.143896
37498		-0.101558	0.162257	-0.981508	0.972952	-0.189573	-0.132012	-0.207487	-0.968367	-0.138615
37499		-0.074954	0.152110	-0.985517	0.977725	-0.183094	-0.102621	-0.196052	-0.971256	-0.134998
37500		-0.046936	0.143443	-0.988545	0.982107	-0.174062	-0.071888	-0.182380	-0.974231	-0.132706
37501		-0.018898	0.138145	-0.990232	0.984743	-0.168783	-0.042340	-0.172984	-0.975924	-0.132848
37502		0.007152	0.134031	-0.990951	0.985463	-0.169157	-0.015767	-0.169739	-0.976433	-0.133292
37503		0.029110	0.128996	-0.991218	0.984194	-0.176995	0.005870	-0.174684	-0.975722	-0.132110
37504		0.047170	0.121328	-0.991491	0.981905	-0.187881	0.023723	-0.183404	-0.974669	-0.127995
37505		0.062876	0.112764	-0.991630	0.979343	-0.198302	0.039547	-0.192183	-0.973633	-0.122903
37506		0.079309	0.106642	-0.991130	0.976805	-0.206698	0.055923	-0.198901	-0.972576	-0.120561
37507		0.097132	0.103643	-0.989860	0.974012	-0.214365	0.073132	-0.204612	-0.971239	-0.121772
37508		0.115577	0.100398	-0.988212	0.970787	-0.222023	0.090982	-0.210271	-0.969859	-0.123125
37509		0.134320	0.096231	-0.986254	0.966717	-0.231430	0.109078	-0.217752	-0.968080	-0.124113
37510		0.153638	0.092117	-0.983824	0.961697	-0.242676	0.127461	-0.227010	-0.965724	-0.125873
37511		0.172898	0.089217	-0.980891	0.956580	-0.252471	0.145649	-0.234652	-0.963483	-0.128995
37513		0.209303	0.083126	-0.974311	0.948898	-0.257929	0.181838	-0.236188	-0.962581	-0.132864
37514		0.225536	0.078497	-0.971067	0.946355	-0.254401	0.199231	-0.231401	-0.963908	-0.131663
37515		0.240451	0.073580	-0.967868	0.944756	-0.246569	0.215964	-0.222756	-0.966328	-0.128803
37516		0.253694	0.068873	-0.964829	0.943790	-0.236132	0.231306	-0.211897	-0.969277	-0.124907
37517		0.265687	0.064893	-0.961873	0.943080	-0.224507	0.245349	-0.200026	-0.972309	-0.120848
37518		0.276531	0.062192	-0.958991	0.942214	-0.213920	0.257820	-0.189113	-0.974869	-0.117753
37519		0.286397	0.060891	-0.956174	0.940939	-0.205975	0.268717	-0.180586	-0.976661	-0.116286
37520		0.295383	0.059872	-0.953501	0.939797	-0.197727	0.278722	-0.171845	-0.978427	-0.114673
37521		0.303167	0.058409	-0.951146	0.939129	-0.187614	0.287816	-0.161637	-0.980505	-0.111732
37522		0.310011	0.056232	-0.949069	0.938633	-0.176859	0.296123	-0.151200	-0.982629	-0.107610
37523		0.315969	0.054688	-0.947192	0.938403	-0.165188	0.303500	-0.139867	-0.984745	-0.103514
37524		0.320724	0.053732	-0.945648	0.938326	-0.154165	0.309481	-0.129157	-0.986583	-0.099862
37525		0.323732	0.053652	-0.944626	0.938394	-0.145774	0.313317	-0.120892	-0.987862	-0.097538
37526		0.325064	0.053824	-0.944159	0.938711	-0.139451	0.315239	-0.114697	-0.988765	-0.095856
37527		0.324836	0.053662	-0.944247	0.939643	-0.131776	0.315763	-0.107484	-0.989826	-0.093228
37528		0.323064	0.053101	-0.944886	0.940924	-0.125051	0.314681	-0.101449	-0.990728	-0.090363
37529		0.320036	0.052159	-0.945968	0.942501	-0.118997	0.312302	-0.096278	-0.991524	-0.087243
37530		0.316011	0.051433	-0.947361	0.944215	-0.114623	0.308738	-0.092710	-0.992077	-0.084786
37531		0.311051	0.051357	-0.949005	0.946031	-0.112295	0.303999	-0.090956	-0.992347	-0.083514
37532		0.305074	0.051655	-0.950927	0.948042	-0.111104	0.298114	-0.090253	-0.992465	-0.082866
37533		0.297893	0.051353	-0.953217	0.950402	-0.109495	0.291114	-0.089423	-0.992660	-0.081424
37534		0.289646	0.049598	-0.955848	0.953134	-0.106149	0.283316	-0.087411	-0.993112	-0.078019
37535		0.280338	0.046262	-0.958786	0.956329	-0.099551	0.274817	-0.082734	-0.993956	-0.072150
37536		0.269806	0.042913	-0.961958	0.959966	-0.090102	0.265228	-0.075292	-0.995008	-0.065505
37537		0.258493	0.040290	-0.965173	0.963798	-0.078386	0.254853	-0.065388	-0.996109	-0.059094
37538		0.246851	0.038665	-0.968282	0.967550	-0.065471	0.244050	-0.053958	-0.997105	-0.053572
37539		0.235544	0.038405	-0.971105	0.970944	-0.052767	0.233418	-0.042278	-0.997868	-0.049718
37540		0.224917	0.039993	-0.973557	0.973852	-0.042041	0.223259	-0.032000	-0.998315	-0.048403
37541		0.215002	0.043000	-0.975666	0.976345	-0.032895	0.213702	-0.022906	-0.998533	-0.049056
37542		0.206088	0.046472	-0.977429	0.978436	-0.023879	0.205164	-0.013806	-0.998634	-0.050392
37543		0.197937	0.049068	-0.978986	0.980210	-0.012879	0.197539	-0.002915	-0.998712	-0.050646
37544		0.191646	0.049706	-0.980205	0.981420	-0.000210	0.191873	0.009331	-0.998764	-0.048822
37545		0.187752	0.050179	-0.980934	0.981970	0.012767	0.188604	0.021987	-0.998659	-0.046877
37546		0.185603	0.052264	-0.981234	0.982073	0.023600	0.187019	0.032932	-0.998354	-0.046947
37547		0.185381	0.053637	-0.981202	0.981828	0.031126	0.187201	0.040582	-0.998075	-0.046892
37548		0.186546	0.054268	-0.980946	0.981444	0.034790	0.188566	0.044360	-0.997920	-0.046771
37549		0.188728	0.054784	-0.980500	0.980874	0.037911	0.190918	0.047632	-0.997778	-0.046582
37550		0.191362	0.056253	-0.979906	0.980203	0.040732	0.193759	0.050813	-0.997585	-0.047345
37551		0.193967	0.058927	-0.979237	0.979575	0.042304	0.196579	0.053010	-0.997365	-0.049518
37552		0.196149	0.063106	-0.978541	0.979191	0.040381	0.198883	0.052065	-0.997190	-0.053872
37553		0.197595	0.069076	-0.977847	0.979115	0.034795	0.200309	0.047861	-0.997004	-0.060758
37554		0.197920	0.076819	-0.977203	0.979333	0.026851	0.200462	0.041638	-0.996683	-0.069917
37555		0.196694	0.085882	-0.976696	0.979763	0.020472	0.199111	0.037095	-0.996095	-0.080118
37556		0.193259	0.095797	-0.976460	0.980501	0.017277	0.195754	0.035623	-0.995251	-0.090590
37557		0.187585	0.104665	-0.976656	0.981626	0.015409	0.190191	0.034955	-0.994388	-0.099852
37558		0.180056	0.111531	-0.977313	0.983115	0.012560	0.182558	0.032636	-0.993682	-0.107386
37559		0.171760	0.115738	-0.978316	0.984702	0.009413	0.173995	0.029347	-0.993235	-0.112351
37560		0.164052	0.117954	-0.979374	0.986136	0.005516	0.165849	0.024965	-0.993004	-0.115414
37561		0.159624	0.121390	-0.979686	0.987013	-0.001491	0.160633	0.018038	-0.992604	-0.120052
37562		0.158818	0.132112	-0.978429	0.987273	-0.012957	0.158504	0.008263	-0.991150	-0.132488
37563		0.160676	0.147198	-0.975969	0.986989	-0.017976	0.159778	0.005975	-0.988944	-0.148171
37565		0.170058	0.166092	-0.971336	0.984387	0.016791	0.175214	0.045412	-0.985967	-0.160643
37566		0.174050	0.166632	-0.970536	0.982044	0.043463	0.183576	0.072772	-0.985061	-0.156075
37567		0.174752	0.165666	-0.970575	0.980919	0.056012	0.186175	0.085207	-0.984590	-0.152717
37568		0.171909	0.167257	-0.970810	0.981637	0.053621	0.183065	0.082674	-0.984454	-0.154968
37569		0.165944	0.169857	-0.971397	0.983666	0.041157	0.175236	0.069745	-0.984609	-0.160253
37570		0.157006	0.176004	-0.971788	0.986212	0.024172	0.163715	0.052304	-0.984093	-0.169782
37571		0.146867	0.185288	-0.971647	0.988587	0.005826	0.150539	0.033554	-0.982667	-0.182318
37572		0.136994	0.195555	-0.971077	0.990430	-0.010466	0.137616	0.016748	-0.980637	-0.195118
37573		0.127946	0.203172	-0.970748	0.991758	-0.019542	0.126625	0.006757	-0.978948	-0.203998
37574		0.119494	0.206095	-0.971208	0.992834	-0.023824	0.117100	0.000996	-0.978242	-0.207465
37575		0.111661	0.205816	-0.972199	0.993742	-0.026162	0.108596	-0.003084	-0.978241	-0.207450
37576		0.104395	0.205658	-0.973040	0.994520	-0.027143	0.100963	-0.005647	-0.978247	-0.207365
37577		0.097811	0.206768	-0.973489	0.995181	-0.027089	0.094236	-0.006886	-0.978015	-0.208421
37578		0.091702	0.207856	-0.973851	0.995767	-0.025179	0.088392	-0.006148	-0.977835	-0.209285
37579		0.085331	0.209259	-0.974130	0.996336	-0.023570	0.082213	-0.005756	-0.977576	-0.210503
37580		0.078576	0.211227	-0.974274	0.996885	-0.023312	0.075346	-0.006798	-0.977159	-0.212401
37581		0.071243	0.213391	-0.974366	0.997420	-0.023836	0.067708	-0.008777	-0.976676	-0.214538
37582		0.062952	0.215425	-0.974489	0.997926	-0.026772	0.058547	-0.013477	-0.976153	-0.216664
37583		0.053846	0.217581	-0.974556	0.998325	-0.032412	0.047923	-0.021160	-0.975504	-0.218962
37584		0.044395	0.219087	-0.974695	0.998558	-0.039213	0.036668	-0.030187	-0.974917	-0.220512
37585		0.034796	0.220204	-0.974833	0.998579	-0.047045	0.025016	-0.040353	-0.974319	-0.221528
37586		0.025620	0.221606	-0.974800	0.998381	-0.055199	0.013691	-0.050774	-0.973573	-0.222661
37587		0.016942	0.223007	-0.974670	0.998036	-0.062571	0.003031	-0.060311	-0.972807	-0.223629
37588		0.008322	0.224854	-0.974357	0.997549	-0.069569	-0.007535	-0.069479	-0.971906	-0.224881
37589		-0.000032	0.226962	-0.973904	0.996979	-0.075633	-0.017659	-0.077667	-0.970962	-0.226274
37590		-0.008247	0.228307	-0.973554	0.996221	-0.082301	-0.027740	-0.086457	-0.970104	-0.226765
37591		-0.016108	0.228950	-0.973305	0.995325	-0.089041	-0.037418	-0.095231	-0.969357	-0.226446
37592		-0.023346	0.229288	-0.973079	0.994310	-0.095863	-0.046443	-0.103931	-0.968626	-0.225746
37593		-0.029658	0.229334	-0.972896	0.993189	-0.102962	-0.054547	-0.112681	-0.967887	-0.224718
37594		-0.035375	0.229618	-0.972638	0.992146	-0.108772	-0.061763	-0.119978	-0.967184	-0.223967
37595		-0.040557	0.230246	-0.972287	0.991202	-0.113428	-0.068207	-0.125988	-0.966499	-0.223620
37597		-0.050641	0.232415	-0.971298	0.989619	-0.119292	-0.080141	-0.134494	-0.965273	-0.223961
37598		-0.055840	0.233740	-0.970694	0.989085	-0.119826	-0.085752	-0.136358	-0.964887	-0.224497
37599		-0.061273	0.235526	-0.969935	0.988519	-0.120146	-0.091621	-0.138113	-0.964413	-0.225460
37600		-0.066879	0.237204	-0.969155	0.987834	-0.120935	-0.097768	-0.140396	-0.963903	-0.226230
37601		-0.072718	0.238683	-0.968371	0.986995	-0.122343	-0.104272	-0.143362	-0.963360	-0.226682
37602		-0.078529	0.240078	-0.967572	0.985944	-0.124868	-0.111003	-0.147468	-0.962689	-0.226898
37603		-0.084202	0.242101	-0.966590	0.984576	-0.129081	-0.118100	-0.153361	-0.961626	-0.227498
37604		-0.089694	0.244315	-0.965539	0.983033	-0.134025	-0.125232	-0.160002	-0.960389	-0.228148
37605		-0.094893	0.246559	-0.964471	0.981287	-0.139891	-0.132309	-0.167543	-0.958978	-0.228670
37606		-0.099885	0.248583	-0.963447	0.979390	-0.146274	-0.139279	-0.175549	-0.957502	-0.228849
37607		-0.104486	0.250947	-0.962345	0.977373	-0.153032	-0.146023	-0.183914	-0.955828	-0.229279
37608		-0.108627	0.253153	-0.961308	0.975356	-0.159674	-0.152263	-0.192042	-0.954158	-0.229569
37609		-0.112360	0.255097	-0.960365	0.973357	-0.166153	-0.158015	-0.199876	-0.952533	-0.229631
37610		-0.115891	0.256181	-0.959657	0.971618	-0.171358	-0.163079	-0.206222	-0.951319	-0.229051
37611		-0.119106	0.256879	-0.959076	0.970229	-0.175048	-0.167376	-0.210880	-0.950459	-0.228382
37612		-0.121981	0.257265	-0.958611	0.969269	-0.177006	-0.170841	-0.213632	-0.949991	-0.227767
37613		-0.124360	0.258306	-0.958025	0.968555	-0.178088	-0.173743	-0.215491	-0.949507	-0.228036
37614		-0.126597	0.259504	-0.957409	0.967980	-0.178599	-0.176403	-0.216769	-0.949084	-0.228584
37615		-0.128683	0.261119	-0.956691	0.967510	-0.178657	-0.178901	-0.217634	-0.948630	-0.229645
37616		-0.130874	0.262384	-0.956048	0.967143	-0.178220	-0.181304	-0.217958	-0.948363	-0.230438
37617		-0.133027	0.263798	-0.955361	0.966572	-0.178646	-0.183916	-0.219188	-0.947890	-0.231215
37618		-0.135317	0.264752	-0.954775	0.965645	-0.180534	-0.186918	-0.221856	-0.947267	-0.231227
37619		-0.137725	0.265222	-0.954300	0.964469	-0.183403	-0.190165	-0.225457	-0.946584	-0.230539
37620		-0.140024	0.265381	-0.953922	0.963211	-0.186684	-0.193323	-0.229386	-0.945898	-0.229478
37621		-0.142358	0.265424	-0.953564	0.961810	-0.190448	-0.196600	-0.233786	-0.945135	-0.228175
37622		-0.144827	0.265269	-0.953235	0.960340	-0.194308	-0.199979	-0.238269	-0.944392	-0.226608
37623		-0.147935	0.264817	-0.952884	0.958650	-0.198448	-0.203981	-0.243115	-0.943658	-0.224509
37624		-0.151594	0.264478	-0.952403	0.956739	-0.202815	-0.208605	-0.248333	-0.942824	-0.222291
37625		-0.155911	0.264035	-0.951828	0.954307	-0.208432	-0.214136	-0.254930	-0.941723	-0.219474
37626		-0.160762	0.263348	-0.951212	0.951477	-0.214858	-0.220291	-0.262388	-0.940470	-0.216029
37627		-0.165925	0.262633	-0.950522	0.948185	-0.222347	-0.226953	-0.270951	-0.938928	-0.212132
37628		-0.171195	0.261893	-0.949792	0.944683	-0.230103	-0.233722	-0.279760	-0.937265	-0.208013
37629		-0.176549	0.261109	-0.949027	0.940930	-0.238254	-0.240595	-0.288930	-0.935445	-0.203622
37630		-0.181625	0.260398	-0.948264	0.937262	-0.245967	-0.247062	-0.297576	-0.933645	-0.199388
37631		-0.186303	0.259639	-0.947565	0.933702	-0.253361	-0.253000	-0.305765	-0.931877	-0.195224
37632		-0.190597	0.258515	-0.947018	0.930347	-0.260272	-0.258290	-0.313254	-0.930284	-0.190902
37633		-0.194549	0.256498	-0.946763	0.927349	-0.266438	-0.262743	-0.319646	-0.929096	-0.186028
37634		-0.197776	0.254237	-0.946704	0.924792	-0.271839	-0.266200	-0.325029	-0.928153	-0.181353
37635		-0.200148	0.251504	-0.946935	0.922655	-0.276769	-0.268526	-0.329618	-0.927440	-0.176657
37636		-0.201357	0.248219	-0.947546	0.920915	-0.281607	-0.269468	-0.333723	-0.926868	-0.171885
37637		-0.201024	0.243885	-0.948741	0.919708	-0.286433	-0.268503	-0.337235	-0.926540	-0.166723
37638		-0.198834	0.238553	-0.950556	0.918851	-0.291956	-0.265472	-0.340850	-0.926204	-0.161144
37639		-0.194324	0.231922	-0.953127	0.918361	-0.298472	-0.259862	-0.344749	-0.925811	-0.154988
37640		-0.187314	0.224080	-0.956401	0.917918	-0.306756	-0.251648	-0.349771	-0.925035	-0.148227
37641		-0.177674	0.213990	-0.960542	0.917524	-0.316862	-0.240308	-0.355783	-0.924017	-0.140043
37642		-0.165639	0.202065	-0.965263	0.917411	-0.327542	-0.225994	-0.361829	-0.922977	-0.131123
37643		-0.151450	0.187969	-0.970428	0.918758	-0.335373	-0.208347	-0.364618	-0.923143	-0.121906
37644		-0.135630	0.172819	-0.975571	0.922042	-0.338304	-0.188118	-0.362549	-0.925032	-0.113462
37645		-0.118338	0.156684	-0.980534	0.927473	-0.335263	-0.165507	-0.354669	-0.929004	-0.105646
37646		-0.099789	0.141419	-0.984908	0.933774	-0.328577	-0.141787	-0.343669	-0.933830	-0.099265
37647		-0.080318	0.127424	-0.988591	0.940211	-0.319650	-0.117589	-0.330987	-0.938929	-0.094132
37648		-0.060483	0.115649	-0.991447	0.945332	-0.312241	-0.094092	-0.320452	-0.942937	-0.090441
37649		-0.041023	0.105458	-0.993577	0.948580	-0.308268	-0.071885	-0.313869	-0.945436	-0.087389
37650		-0.023049	0.097036	-0.995014	0.949530	-0.309310	-0.052160	-0.312829	-0.945998	-0.085009
37651		-0.006762	0.089339	-0.995978	0.948693	-0.314296	-0.034633	-0.316126	-0.945112	-0.082630
37652		0.007689	0.081827	-0.996617	0.946446	-0.322294	-0.019159	-0.322771	-0.943097	-0.079923
37653		0.021556	0.073688	-0.997048	0.943767	-0.330586	-0.004028	-0.329907	-0.940895	-0.076670
37654		0.036140	0.066696	-0.997119	0.941407	-0.337073	0.011574	-0.335330	-0.939113	-0.074969
37655		0.051761	0.060336	-0.996835	0.939578	-0.341176	0.028137	-0.338398	-0.938061	-0.074350
37656		0.067500	0.054397	-0.996235	0.937564	-0.344930	0.044691	-0.341200	-0.937051	-0.074284
37657		0.083066	0.048492	-0.995363	0.935789	-0.347213	0.061179	-0.342636	-0.936532	-0.074220
37658		0.098030	0.043211	-0.994245	0.933616	-0.349937	0.076844	-0.344602	-0.935776	-0.074647
37659		0.112560	0.038473	-0.992900	0.931853	-0.350969	0.092040	-0.344936	-0.935597	-0.075356
37660		0.126612	0.034740	-0.991344	0.931028	-0.349009	0.106678	-0.342282	-0.936475	-0.076533
37661		0.140466	0.030701	-0.989609	0.931399	-0.343103	0.121560	-0.335806	-0.938796	-0.076790
37662		0.153828	0.026365	-0.987746	0.933086	-0.332772	0.136433	-0.325097	-0.942639	-0.075791
37663		0.167172	0.021934	-0.985684	0.935895	-0.317965	0.151652	-0.310087	-0.947849	-0.073682
37664		0.180293	0.017462	-0.983458	0.938742	-0.301596	0.166740	-0.293696	-0.953276	-0.070768
37665		0.193353	0.013603	-0.981035	0.941436	-0.284104	0.181610	-0.276246	-0.958697	-0.067739
37666		0.206049	0.011475	-0.978474	0.943575	-0.267246	0.195566	-0.259249	-0.963560	-0.065893
37667		0.218300	0.011181	-0.975818	0.945102	-0.251575	0.208546	-0.243159	-0.967773	-0.065486
37668		0.229873	0.012431	-0.973141	0.946020	-0.237605	0.220431	-0.228483	-0.971282	-0.066379
37669		0.240681	0.014464	-0.970497	0.946622	-0.224397	0.231416	-0.214429	-0.974390	-0.067700
37670		0.250688	0.016549	-0.967926	0.946843	-0.212414	0.241596	-0.201603	-0.977040	-0.068919
37671		0.260034	0.018855	-0.965415	0.947007	-0.200236	0.251165	-0.188575	-0.979566	-0.069924
37672		0.268661	0.021573	-0.962993	0.947264	-0.187218	0.260078	-0.174679	-0.982081	-0.070733
37673		0.276534	0.024871	-0.960682	0.947440	-0.174421	0.268207	-0.160893	-0.984357	-0.071797
37674		0.283771	0.028798	-0.958460	0.947678	-0.160843	0.275746	-0.146220	-0.986560	-0.072934
37675		0.290316	0.033048	-0.956360	0.947980	-0.146305	0.282716	-0.130577	-0.988687	-0.073804
37676		0.296233	0.037671	-0.954373	0.948225	-0.131414	0.289137	-0.114526	-0.990612	-0.074650
37677		0.301546	0.042530	-0.952502	0.948346	-0.116626	0.295023	-0.098539	-0.992265	-0.075501
37678		0.305977	0.046919	-0.950882	0.948289	-0.103583	0.300032	-0.084418	-0.993514	-0.076187
37679		0.309635	0.050573	-0.949510	0.948240	-0.090437	0.304404	-0.070476	-0.994617	-0.075957
37680		0.312545	0.054131	-0.948359	0.948298	-0.075796	0.308199	-0.055199	-0.995653	-0.075022
37681		0.314527	0.058109	-0.947468	0.948445	-0.060284	0.311155	-0.039036	-0.996488	-0.074074
37682		0.315410	0.062310	-0.946908	0.948687	-0.044442	0.313078	-0.022574	-0.997067	-0.073130
37683		0.315184	0.066094	-0.946726	0.949018	-0.027019	0.314060	-0.004822	-0.997448	-0.071240
37684		0.314099	0.069231	-0.946863	0.949286	-0.008120	0.314310	0.014071	-0.997568	-0.068270
37685		0.311951	0.071821	-0.947380	0.949590	0.009052	0.313365	0.031082	-0.997376	-0.065377
37686		0.309004	0.074269	-0.948157	0.949891	0.025323	0.311552	0.047148	-0.996917	-0.062722
37687		0.305528	0.076206	-0.949129	0.950084	0.041748	0.309188	0.063186	-0.996218	-0.059647
37688		0.301551	0.077768	-0.950273	0.949993	0.060285	0.306396	0.081115	-0.995147	-0.055700
37689		0.297009	0.079383	-0.951569	0.949400	0.082011	0.303173	0.102106	-0.993465	-0.051008
37690		0.291942	0.080813	-0.953016	0.947926	0.108174	0.299556	0.127300	-0.990842	-0.045024
37691		0.286406	0.081745	-0.954615	0.945365	0.137851	0.295436	0.155745	-0.987074	-0.037797
37692		0.280974	0.081201	-0.956274	0.941396	0.170439	0.291075	0.186622	-0.982017	-0.028553
37693		0.276346	0.079472	-0.957767	0.936246	0.202727	0.286958	0.216971	-0.976005	-0.018382
37694		0.272630	0.077504	-0.958992	0.930334	0.232848	0.283302	0.245257	-0.969420	-0.008623
37695		0.269439	0.077359	-0.959905	0.924065	0.259855	0.280320	0.271121	-0.962544	-0.001470
37696		0.266477	0.079239	-0.960579	0.917334	0.284992	0.277989	0.295784	-0.955249	0.003255
37697		0.263328	0.082680	-0.961157	0.910227	0.308781	0.275937	0.319601	-0.947533	0.006054
37698		0.259948	0.087433	-0.961656	0.902965	0.330886	0.274167	0.342170	-0.939612	0.007064
37699		0.256124	0.093600	-0.962102	0.895964	0.350604	0.272627	0.362834	-0.931835	0.005936
37700		0.251627	0.101035	-0.962536	0.889742	0.367207	0.271142	0.380845	-0.924636	0.002504
37701		0.246584	0.109540	-0.962911	0.884549	0.380500	0.269802	0.395942	-0.918271	-0.003068
37702		0.241289	0.118060	-0.963245	0.880050	0.391716	0.268460	0.409013	-0.912480	-0.009382
37703		0.235641	0.126560	-0.963564	0.875871	0.401954	0.266990	0.421098	-0.906872	-0.016133
37704		0.229197	0.135227	-0.963941	0.871641	0.412275	0.265087	0.433255	-0.900968	-0.023377
37705		0.221588	0.144235	-0.964414	0.867235	0.423061	0.262531	0.445873	-0.894548	-0.031340
37706		0.212981	0.153013	-0.965001	0.861554	0.436421	0.259350	0.460830	-0.886636	-0.038879
37707		0.203079	0.161396	-0.965769	0.854687	0.452051	0.255266	0.477775	-0.877269	-0.046141
37708		0.191609	0.168889	-0.966831	0.845555	0.471747	0.249981	0.498319	-0.865408	-0.052413
37709		0.179266	0.174666	-0.968171	0.832171	0.497988	0.243926	0.524744	-0.849411	-0.056080
37710		0.165418	0.179107	-0.969824	0.813559	0.531063	0.236841	0.557458	-0.828186	-0.057866
37711		0.149247	0.183608	-0.971604	0.789809	0.569056	0.228858	0.594917	-0.801538	-0.060085
37712		0.132925	0.186067	-0.973504	0.758845	0.612727	0.220726	0.637562	-0.768079	-0.059750
37713		0.118712	0.185881	-0.975375	0.721555	0.658667	0.213345	0.682104	-0.729113	-0.055932
37714		0.107577	0.183934	-0.977034	0.680795	0.702551	0.207220	0.724531	-0.687452	-0.049643
37715		0.100973	0.181707	-0.978155	0.642494	0.738759	0.203559	0.759609	-0.649013	-0.042151
37716		0.097399	0.181156	-0.978619	0.606979	0.768444	0.202660	0.788727	-0.613740	-0.035112
37717		0.095426	0.184586	-0.978173	0.568377	0.796620	0.205775	0.817215	-0.575607	-0.028896
37718		0.096115	0.189358	-0.977193	0.523136	0.825604	0.211439	0.846812	-0.531527	-0.019707
37719		0.098708	0.192730	-0.976274	0.475438	0.852717	0.216408	0.874194	-0.485519	-0.007461
37720		0.101769	0.192807	-0.975945	0.435086	0.873610	0.217959	0.894619	-0.446801	0.005019
37721		0.101185	0.191098	-0.976342	0.411072	0.885655	0.215950	0.905970	-0.423197	0.011060
37722		0.094230	0.188243	-0.977591	0.404678	0.889932	0.210371	0.909591	-0.415433	0.007680
37723		0.081989	0.184671	-0.979375	0.410656	0.889126	0.202032	0.908097	-0.418750	-0.002938
37724		0.067754	0.179682	-0.981389	0.419106	0.887527	0.191432	0.905406	-0.424276	-0.015172
37725		0.052969	0.173698	-0.983373	0.427830	0.885853	0.179518	0.902306	-0.430225	-0.027391
37726		0.037851	0.167609	-0.985127	0.436477	0.884046	0.167182	0.898919	-0.436314	-0.039695
37727		0.022303	0.162243	-0.986499	0.445068	0.881960	0.155112	0.895219	-0.442519	-0.052539
37728		0.008332	0.156492	-0.987644	0.452441	0.880208	0.143286	0.891756	-0.448044	-0.063469
37729		-0.002373	0.149812	-0.988712	0.457072	0.879554	0.132176	0.889427	-0.451599	-0.070562
37730		-0.010738	0.142610	-0.989721	0.457107	0.881007	0.121985	0.889347	-0.451098	-0.074648
37731		-0.017734	0.135913	-0.990562	0.451381	0.885101	0.113362	0.892155	-0.445111	-0.077046
37732		-0.023762	0.129705	-0.991268	0.439581	0.891907	0.106167	0.897889	-0.433219	-0.078209
37733		-0.029089	0.123757	-0.991886	0.422980	0.900608	0.099964	0.905672	-0.416640	-0.078545
37734		-0.033998	0.117517	-0.992489	0.402035	0.910779	0.094071	0.914993	-0.395817	-0.078210
37735		-0.038919	0.111041	-0.993053	0.378944	0.921211	0.088157	0.924601	-0.372881	-0.077931
37736		-0.044125	0.104007	-0.993597	0.354659	0.931415	0.081748	0.933954	-0.348781	-0.077986
37737		-0.049864	0.096677	-0.994066	0.330635	0.940781	0.074910	0.942440	-0.324938	-0.078876
37738		-0.055586	0.088619	-0.994513	0.306024	0.949627	0.067515	0.950400	-0.300592	-0.079905
37739		-0.061283	0.080461	-0.994872	0.281584	0.957652	0.060106	0.957578	-0.276456	-0.081345
37741		-0.070851	0.063975	-0.995433	0.235743	0.970745	0.045609	0.969229	-0.231435	-0.083860
37742		-0.074425	0.056177	-0.995643	0.213779	0.976100	0.039094	0.974043	-0.209938	-0.084656
37743		-0.077294	0.048404	-0.995833	0.193777	0.980503	0.032619	0.977996	-0.190449	-0.085166
37744		-0.080105	0.041048	-0.995941	0.175923	0.984050	0.026408	0.981139	-0.173093	-0.086048
37745		-0.082206	0.033202	-0.996062	0.158286	0.987194	0.019843	0.983965	-0.156032	-0.086409
37746		-0.084184	0.025120	-0.996134	0.141403	0.989867	0.013012	0.986366	-0.139761	-0.086883
37747		-0.086008	0.016769	-0.996153	0.124745	0.992171	0.005932	0.988454	-0.123755	-0.087426
37748		-0.087661	0.008320	-0.996116	0.107332	0.994223	-0.001141	0.990351	-0.107016	-0.088048
37749		-0.089325	-0.000466	-0.996002	0.091347	0.995781	-0.008658	0.991805	-0.091756	-0.088906
37750		-0.091416	-0.009146	-0.995771	0.077971	0.996822	-0.016314	0.992756	-0.079132	-0.090412
37751		-0.093159	-0.017667	-0.995494	0.066196	0.997520	-0.023898	0.993448	-0.068124	-0.091759
37752		-0.094170	-0.025423	-0.995231	0.056425	0.997931	-0.030831	0.993956	-0.059059	-0.092541
37753		-0.094003	-0.032476	-0.995042	0.047942	0.998161	-0.037107	0.994417	-0.051193	-0.092273
37754		-0.093427	-0.038470	-0.994883	0.042397	0.998193	-0.042580	0.994723	-0.046158	-0.091627
37755		-0.092787	-0.043856	-0.994720	0.038071	0.998143	-0.047558	0.994958	-0.042283	-0.090945
37756		-0.092749	-0.048536	-0.994506	0.032813	0.998120	-0.051773	0.995149	-0.037435	-0.090982
37757		-0.092789	-0.052917	-0.994279	0.025797	0.998124	-0.055529	0.995352	-0.030802	-0.091249
37758		-0.092266	-0.056690	-0.994119	0.014665	0.998192	-0.058283	0.995626	-0.019957	-0.091268
37759		-0.090787	-0.060426	-0.994035	-0.001711	0.998165	-0.060520	0.995869	-0.003793	-0.090724
37761		-0.086988	-0.068075	-0.993881	-0.041193	0.997055	-0.064687	0.995357	0.035314	-0.089536
37762		-0.084510	-0.072661	-0.993770	-0.062217	0.995776	-0.067517	0.994478	0.056123	-0.088674
37763		-0.082154	-0.077688	-0.993587	-0.082423	0.994071	-0.070911	0.993205	0.076069	-0.088070
37764		-0.078997	-0.083607	-0.993363	-0.102289	0.991897	-0.075349	0.991613	0.095658	-0.086909
37765		-0.075548	-0.089972	-0.993075	-0.120484	0.989448	-0.080477	0.989836	0.113569	-0.085591
37766		-0.071964	-0.097059	-0.992674	-0.137591	0.986705	-0.086500	0.987871	0.130358	-0.084362
37767		-0.068726	-0.104250	-0.992174	-0.153397	0.983803	-0.092745	0.985772	0.145822	-0.083605
37768		-0.064892	-0.111653	-0.991626	-0.169372	0.980535	-0.099320	0.983413	0.161509	-0.082540
37769		-0.060959	-0.118477	-0.991084	-0.184360	0.977183	-0.105475	0.980967	0.176286	-0.081411
37770		-0.056648	-0.125092	-0.990527	-0.199279	0.973573	-0.111555	0.978304	0.191072	-0.080079
37771		-0.052213	-0.131013	-0.990005	-0.214065	0.969781	-0.117047	0.975423	0.205814	-0.078680
37772		-0.047177	-0.136774	-0.989478	-0.227884	0.965932	-0.122654	0.972545	0.219700	-0.076739
37773		-0.042876	-0.142219	-0.988906	-0.239744	0.962360	-0.128007	0.969889	0.231596	-0.075359
37774		-0.038761	-0.147801	-0.988257	-0.252058	0.958465	-0.133459	0.966936	0.243925	-0.074405
37775		-0.035428	-0.153309	-0.987543	-0.265239	0.954167	-0.138612	0.963532	0.257024	-0.074468
37776		-0.031554	-0.158993	-0.986775	-0.279155	0.949381	-0.144041	0.959728	0.270918	-0.074341
37777		-0.027401	-0.164573	-0.985984	-0.292451	0.944518	-0.149524	0.955888	0.284255	-0.074010
37778		-0.022648	-0.170597	-0.985081	-0.304942	0.939557	-0.155702	0.952102	0.296866	-0.073301
37779		-0.017704	-0.176762	-0.984094	-0.315639	0.934905	-0.162248	0.948714	0.307746	-0.072344
37780		-0.012193	-0.183201	-0.983000	-0.325139	0.930377	-0.169361	0.945588	0.317546	-0.070909
37781		-0.007237	-0.189536	-0.981847	-0.332904	0.926321	-0.176363	0.942933	0.325585	-0.069801
37782		-0.002376	-0.195958	-0.980609	-0.340400	0.922209	-0.183463	0.940278	0.333364	-0.068895
37783		0.002197	-0.201986	-0.979386	-0.347423	0.918226	-0.190152	0.937706	0.340679	-0.068157
37784		0.007559	-0.207396	-0.978228	-0.355951	0.913623	-0.196449	0.934474	0.349686	-0.066917
37785		0.013307	-0.211599	-0.977266	-0.366213	0.908413	-0.201677	0.930436	0.360571	-0.065403
37786		0.019817	-0.215090	-0.976393	-0.376968	0.902902	-0.206552	0.926014	0.372162	-0.063189
37787		0.025901	-0.217780	-0.975654	-0.387545	0.897468	-0.210617	0.921487	0.383566	-0.061154
37788		0.031615	-0.220136	-0.974957	-0.398919	0.891605	-0.214252	0.916441	0.395702	-0.059629
37789		0.035951	-0.221839	-0.974420	-0.409769	0.886042	-0.216837	0.911480	0.407083	-0.059049
37790		0.039998	-0.222997	-0.973998	-0.421008	0.880266	-0.218826	0.906175	0.418813	-0.058674
37791		0.043486	-0.223197	-0.973803	-0.430743	0.875286	-0.219852	0.901426	0.429020	-0.058078
37792		0.047558	-0.222826	-0.973698	-0.439645	0.870631	-0.220713	0.896912	0.438578	-0.056559
37793		0.051673	-0.221519	-0.973786	-0.447632	0.866511	-0.220869	0.892723	0.447311	-0.054384
37794		0.056840	-0.219854	-0.973875	-0.455733	0.862184	-0.221238	0.888300	0.456403	-0.051188
37795		0.062188	-0.217199	-0.974144	-0.463100	0.858326	-0.220940	0.884121	0.464866	-0.047207
37796		0.068324	-0.213761	-0.974494	-0.471567	0.853853	-0.220361	0.879179	0.474595	-0.042464
37797		0.074198	-0.208780	-0.975144	-0.480622	0.849295	-0.218406	0.873783	0.484881	-0.037328
37798		0.080461	-0.202618	-0.975947	-0.491625	0.843672	-0.215688	0.867082	0.497155	-0.031730
37799		0.086305	-0.194533	-0.977092	-0.503453	0.837795	-0.211269	0.859701	0.510154	-0.025632
37800		0.091906	-0.185070	-0.978418	-0.515253	0.831970	-0.205768	0.852096	0.523044	-0.018895
37801		0.096113	-0.173756	-0.980087	-0.524707	0.827882	-0.198228	0.845840	0.533311	-0.011600
37802		0.098918	-0.161398	-0.981920	-0.532747	0.824843	-0.189248	0.840474	0.541834	-0.004392
37803		0.098724	-0.147906	-0.984062	-0.538995	0.823325	-0.177821	0.836503	0.547960	0.001562
37804		0.096390	-0.134075	-0.986272	-0.545376	0.821787	-0.165015	0.832631	0.553795	0.006090
37805		0.090770	-0.119411	-0.988687	-0.552712	0.819806	-0.149757	0.828414	0.560053	0.008414
37806		0.083244	-0.104489	-0.991036	-0.563172	0.815519	-0.133289	0.822136	0.569219	0.009042
37807		0.073164	-0.088959	-0.993345	-0.574957	0.810077	-0.114894	0.814906	0.579536	0.008121
37808		0.062380	-0.073746	-0.995324	-0.588985	0.802378	-0.096364	0.805733	0.592242	0.006617
37809		0.050814	-0.058433	-0.996997	-0.604214	0.793066	-0.077276	0.795200	0.606326	0.004993
37810		0.039978	-0.043959	-0.998233	-0.622092	0.780696	-0.059293	0.781923	0.623363	0.003864
37811		0.029019	-0.029959	-0.999130	-0.640365	0.766943	-0.041596	0.767522	0.641015	0.003071
37812		0.018351	-0.017899	-0.999671	-0.659579	0.751201	-0.025558	0.751411	0.659831	0.001980
37813		0.006675	-0.007353	-0.999951	-0.677366	0.735579	-0.009931	0.735616	0.677399	-0.000071
37814		-0.005076	0.001128	-0.999986	-0.694300	0.719672	0.004336	0.719667	0.694313	-0.002870
37815		-0.017288	0.009214	-0.999808	-0.708891	0.705069	0.018756	0.705106	0.709079	-0.005657
37816		-0.028937	0.016941	-0.999438	-0.722238	0.690875	0.032622	0.691039	0.722776	-0.007756
37817		-0.041524	0.024604	-0.998835	-0.733618	0.677921	0.047197	0.678292	0.734723	-0.010100
37818		-0.055229	0.030349	-0.998012	-0.743576	0.665827	0.061396	0.666367	0.745489	-0.014207
37819		-0.070889	0.034289	-0.996895	-0.751290	0.655585	0.075973	0.656154	0.754343	-0.020713
37820		-0.086998	0.036096	-0.995554	-0.758678	0.645262	0.089694	0.645631	0.763108	-0.028751
37821		-0.103687	0.036861	-0.993927	-0.765478	0.635098	0.103409	0.635053	0.771551	-0.037635
37822		-0.119626	0.036732	-0.992139	-0.773033	0.623615	0.116295	0.622985	0.780868	-0.046205
37823		-0.135287	0.037022	-0.990115	-0.780664	0.611381	0.129529	0.610132	0.790470	-0.053810
37824		-0.149886	0.037332	-0.987998	-0.789950	0.596412	0.142377	0.594569	0.801810	-0.059904
37825		-0.164248	0.038646	-0.985662	-0.799837	0.579588	0.156007	0.577307	0.813993	-0.064285
37826		-0.178040	0.039577	-0.983227	-0.810579	0.560611	0.169343	0.557910	0.827133	-0.067730
37827		-0.192082	0.040663	-0.980536	-0.820872	0.540919	0.183237	0.537842	0.840091	-0.070522
37828		-0.205230	0.041314	-0.977841	-0.831227	0.520073	0.196432	0.516665	0.853122	-0.072393
37829		-0.218193	0.042026	-0.975000	-0.840855	0.498995	0.209682	0.495333	0.865585	-0.073539
37830		-0.230163	0.042429	-0.972227	-0.850432	0.476884	0.222142	0.473065	0.877942	-0.073678
37831		-0.241612	0.043469	-0.969399	-0.859023	0.455066	0.234508	0.451334	0.889396	-0.072609
37832		-0.252042	0.043941	-0.966718	-0.867065	0.433361	0.245759	0.429737	0.900149	-0.071125
37833		-0.262020	0.044402	-0.964041	-0.874143	0.412362	0.256579	0.408926	0.909938	-0.069233
37834		-0.270765	0.044397	-0.961621	-0.880724	0.391827	0.266077	0.388602	0.918967	-0.066992
37835		-0.278745	0.044554	-0.959331	-0.886244	0.372885	0.274826	0.369965	0.926807	-0.064454
37836		-0.285251	0.044293	-0.957429	-0.891551	0.354405	0.282019	0.351809	0.934043	-0.061605
37837		-0.290969	0.044256	-0.955708	-0.896041	0.337517	0.288432	0.335333	0.940278	-0.058551
37838		-0.295624	0.044074	-0.954287	-0.900267	0.321314	0.293730	0.319572	0.945947	-0.055310
37839		-0.299767	0.044375	-0.952980	-0.903628	0.307128	0.298544	0.305935	0.950633	-0.051969
37840		-0.303093	0.044515	-0.951921	-0.906437	0.294835	0.302399	0.294121	0.954511	-0.049012
37841		-0.306188	0.044381	-0.950936	-0.908387	0.285170	0.305797	0.284750	0.957449	-0.047000
37842		-0.308640	0.043843	-0.950168	-0.910142	0.276637	0.308404	0.276373	0.959974	-0.045478
37843		-0.310669	0.043845	-0.949506	-0.911746	0.268649	0.310719	0.268708	0.962240	-0.043485
37844		-0.311649	0.044015	-0.949177	-0.913415	0.261366	0.312027	0.261817	0.964236	-0.041251
37845		-0.311799	0.044231	-0.949118	-0.914738	0.256190	0.312444	0.256974	0.965614	-0.039420
37846		-0.310715	0.044533	-0.949459	-0.916125	0.252187	0.311635	0.253319	0.966653	-0.037561
37847		-0.308881	0.045346	-0.950019	-0.917413	0.249286	0.310178	0.250892	0.967368	-0.035398
37848		-0.305902	0.046558	-0.950924	-0.919164	0.245853	0.307722	0.248115	0.968188	-0.032413
37849		-0.302271	0.048749	-0.951975	-0.921319	0.241272	0.304892	0.244548	0.969232	-0.028016
37850		-0.297731	0.051373	-0.953267	-0.924025	0.235384	0.301283	0.239862	0.970544	-0.022611
37851		-0.292919	0.053598	-0.954634	-0.926675	0.230029	0.297255	0.235526	0.971707	-0.017712
37852		-0.287665	0.054654	-0.956170	-0.929540	0.224517	0.292486	0.230662	0.972936	-0.013782
37853		-0.282351	0.055584	-0.957700	-0.932710	0.217559	0.287610	0.224342	0.974463	-0.009584
37854		-0.276624	0.056716	-0.959303	-0.936654	0.207265	0.282347	0.214844	0.976639	-0.004211
37855		-0.271053	0.058559	-0.960782	-0.940955	0.194192	0.277295	0.202814	0.979214	0.002465
37856		-0.265477	0.060232	-0.962234	-0.945482	0.179016	0.272061	0.188642	0.982001	0.009423
37857		-0.260477	0.061890	-0.963494	-0.949691	0.163313	0.267236	0.173890	0.984631	0.016237
37858		-0.255995	0.062825	-0.964634	-0.953458	0.148058	0.262672	0.159324	0.986981	0.021999
37859		-0.252680	0.062515	-0.965528	-0.956333	0.135371	0.259039	0.146898	0.988821	0.025580
37860		-0.250132	0.060078	-0.966346	-0.958465	0.125898	0.255919	0.137036	0.990222	0.026091
37861		-0.248680	0.055818	-0.966976	-0.959649	0.121102	0.253786	0.131269	0.991069	0.023451
37862		-0.247814	0.050254	-0.967504	-0.960216	0.119964	0.252178	0.128738	0.991506	0.018526
37863		-0.247574	0.044357	-0.967853	-0.960094	0.122907	0.251222	0.130099	0.991426	0.012158
37864		-0.247361	0.038248	-0.968168	-0.959808	0.127063	0.250245	0.132590	0.991157	0.005281
37865		-0.247303	0.032472	-0.968394	-0.959467	0.131191	0.249423	0.135144	0.990825	-0.001288
37866		-0.246620	0.026486	-0.968750	-0.959379	0.134648	0.247916	0.137006	0.990539	-0.007797
37867		-0.245382	0.019897	-0.969222	-0.959511	0.137644	0.245749	0.138298	0.990282	-0.014684
37868		-0.242694	0.012030	-0.970028	-0.960249	0.139176	0.241973	0.137916	0.990195	-0.022225
37869		-0.238689	0.003879	-0.971088	-0.961505	0.139255	0.236890	0.136147	0.990249	-0.029509
37870		-0.232782	-0.003251	-0.972523	-0.963589	0.136049	0.230189	0.131562	0.990697	-0.034803
37871		-0.226097	-0.010384	-0.974049	-0.965934	0.131633	0.222810	0.125903	0.991244	-0.039792
37872		-0.219029	-0.017924	-0.975554	-0.968016	0.129374	0.214960	0.122358	0.991434	-0.045688
37873		-0.212888	-0.026472	-0.976718	-0.969464	0.130261	0.207777	0.121728	0.991126	-0.053395
37874		-0.208540	-0.036046	-0.977349	-0.970187	0.133799	0.202077	0.123485	0.990353	-0.062874
37875		-0.206814	-0.045300	-0.977331	-0.969919	0.140580	0.198730	0.128391	0.989032	-0.073011
37876		-0.206550	-0.055545	-0.976858	-0.969124	0.149028	0.196440	0.134668	0.987272	-0.084612
37877		-0.207476	-0.065008	-0.976078	-0.968820	0.151796	0.195823	0.135435	0.986272	-0.094475
37878		-0.208281	-0.071582	-0.975446	-0.970055	0.142525	0.196671	0.124947	0.987199	-0.099124
37879		-0.208150	-0.076043	-0.975136	-0.971976	0.127441	0.197538	0.109251	0.988927	-0.100439
37880		-0.206046	-0.079104	-0.975340	-0.973681	0.115805	0.196303	0.097420	0.990117	-0.100883
37881		-0.202337	-0.083232	-0.975773	-0.974689	0.113860	0.192400	0.095088	0.990004	-0.104163
37882		-0.196773	-0.089956	-0.976314	-0.975504	0.117852	0.185751	0.098351	0.988948	-0.110942
37883		-0.189917	-0.098444	-0.976852	-0.976428	0.122883	0.177451	0.102569	0.987526	-0.119461
37884		-0.181608	-0.106909	-0.977542	-0.977734	0.125915	0.167873	0.105140	0.986264	-0.127396
37885		-0.172503	-0.114352	-0.978349	-0.979158	0.128007	0.157684	0.107204	0.985159	-0.134050
37886		-0.163116	-0.120346	-0.979240	-0.980598	0.129156	0.147469	0.108728	0.984294	-0.139079
37887		-0.154213	-0.124445	-0.980169	-0.982041	0.128440	0.138200	0.108695	0.983878	-0.142017
37888		-0.145633	-0.126861	-0.981171	-0.983531	0.125869	0.129709	0.107044	0.983902	-0.143102
37889		-0.137669	-0.128530	-0.982104	-0.985006	0.121848	0.122129	0.103970	0.984192	-0.143378
37890		-0.129828	-0.130742	-0.982879	-0.986298	0.118787	0.114478	0.101786	0.984274	-0.144372
37891		-0.122187	-0.133343	-0.983509	-0.987452	0.116218	0.106920	0.100044	0.984232	-0.145870
37892		-0.113912	-0.136166	-0.984115	-0.988428	0.115406	0.098443	0.100168	0.983941	-0.147736
37893		-0.104944	-0.139386	-0.984661	-0.989303	0.115513	0.089087	0.101324	0.983478	-0.150017
37894		-0.094896	-0.142744	-0.985200	-0.990104	0.116318	0.078515	0.103389	0.982901	-0.152370
37895		-0.084051	-0.146015	-0.985705	-0.990552	0.119812	0.066716	0.108357	0.982000	-0.154706
37896		-0.072411	-0.148732	-0.986223	-0.990801	0.124070	0.054036	0.114324	0.981063	-0.156347
37897		-0.060326	-0.151638	-0.986593	-0.990556	0.131010	0.040432	0.123123	0.979715	-0.158109
37898		-0.048239	-0.154208	-0.986860	-0.990275	0.136463	0.027082	0.130494	0.978569	-0.159291
37899		-0.036321	-0.156115	-0.987071	-0.990013	0.140258	0.014246	0.136220	0.977730	-0.159650
37900		-0.024694	-0.157285	-0.987244	-0.989588	0.143916	0.001824	0.141793	0.977011	-0.159201
37901		-0.013647	-0.158188	-0.987315	-0.989131	0.146708	-0.009834	0.146402	0.976449	-0.158471
37902		-0.003280	-0.158801	-0.987305	-0.988410	0.150362	-0.020901	0.151773	0.975794	-0.157453
37903		0.006460	-0.159383	-0.987196	-0.987594	0.153875	-0.031306	0.156895	0.975151	-0.156412
37904		0.015491	-0.160298	-0.986947	-0.986880	0.156201	-0.040860	0.160712	0.974631	-0.155775
37905		0.023847	-0.161887	-0.986521	-0.986034	0.158888	-0.049909	0.164826	0.973934	-0.155837
37906		0.031788	-0.163923	-0.985961	-0.985001	0.162245	-0.058731	0.169595	0.973039	-0.156307
37907		0.039628	-0.166325	-0.985274	-0.983894	0.165511	-0.067512	0.174303	0.972081	-0.157087
37908		0.047658	-0.168633	-0.984526	-0.982821	0.168024	-0.076355	0.178300	0.971252	-0.157728
37909		0.055690	-0.171117	-0.983676	-0.981994	0.168735	-0.084947	0.180516	0.970694	-0.158639
37910		0.063732	-0.173619	-0.982749	-0.981169	0.169019	-0.093489	0.182335	0.970201	-0.159577
37911		0.071672	-0.176042	-0.981770	-0.980521	0.168029	-0.101710	0.182871	0.969936	-0.160570
37912		0.079477	-0.178722	-0.980684	-0.980003	0.166026	-0.109678	0.182421	0.969791	-0.161953
37913		0.087080	-0.181727	-0.979486	-0.979642	0.162907	-0.117319	0.180885	0.969761	-0.163841
37914		0.094726	-0.185136	-0.978137	-0.979334	0.159043	-0.124945	0.178697	0.969758	-0.166244
37915		0.102470	-0.188645	-0.976685	-0.978990	0.154882	-0.132627	0.176290	0.969755	-0.168811
37916		0.109998	-0.191862	-0.975238	-0.978478	0.151450	-0.140159	0.174591	0.969666	-0.171074
37917		0.117117	-0.195082	-0.973769	-0.977674	0.149604	-0.147558	0.174465	0.969310	-0.173205
37918		0.123878	-0.198102	-0.972322	-0.976664	0.148907	-0.154770	0.175446	0.968804	-0.175033
37919		0.130031	-0.201393	-0.970841	-0.975428	0.149655	-0.161690	0.177855	0.968010	-0.176985
37920		0.135583	-0.205202	-0.969283	-0.974170	0.150703	-0.168172	0.180583	0.967047	-0.179469
37921		0.140627	-0.209322	-0.967682	-0.972889	0.152039	-0.174271	0.183604	0.965955	-0.182267
37922		0.145292	-0.213461	-0.966087	-0.971685	0.153104	-0.179963	0.186327	0.964880	-0.185172
37923		0.149638	-0.216744	-0.964692	-0.970622	0.153727	-0.185097	0.188418	0.964049	-0.187373
37924		0.153962	-0.218543	-0.963605	-0.969800	0.153283	-0.189716	0.189165	0.963713	-0.188343
37925		0.158007	-0.219390	-0.962757	-0.969310	0.151507	-0.193607	0.188340	0.963802	-0.188718
37926		0.161867	-0.219685	-0.962049	-0.969034	0.148835	-0.197029	0.186470	0.964151	-0.188791
37927		0.165305	-0.220365	-0.961308	-0.968744	0.146514	-0.200170	0.184956	0.964351	-0.189257
37928		0.168657	-0.221928	-0.960366	-0.968242	0.145131	-0.203578	0.184559	0.964202	-0.190403
37929		0.171770	-0.224063	-0.959318	-0.967660	0.144239	-0.206953	0.184741	0.963842	-0.192040
37930		0.174935	-0.226615	-0.958146	-0.967002	0.143520	-0.210496	0.185215	0.963352	-0.194031
37931		0.177916	-0.229527	-0.956903	-0.966445	0.142340	-0.213832	0.185286	0.962838	-0.196501
37932		0.181043	-0.232037	-0.955710	-0.965911	0.140887	-0.217181	0.185041	0.962450	-0.198620
37933		0.183976	-0.234095	-0.954648	-0.965236	0.140430	-0.220452	0.185668	0.962018	-0.200121
37934		0.186986	-0.235539	-0.953707	-0.964192	0.141858	-0.224076	0.188069	0.961456	-0.200580
37935		0.189737	-0.236677	-0.952882	-0.963027	0.144190	-0.227571	0.191257	0.960830	-0.200568
37936		0.192595	-0.237378	-0.952134	-0.961718	0.147107	-0.231209	0.194950	0.960214	-0.199958
37937		0.195259	-0.237623	-0.951530	-0.960359	0.150494	-0.234653	0.198959	0.959628	-0.198818
37938		0.197980	-0.237039	-0.951113	-0.958857	0.154578	-0.238117	0.203464	0.959124	-0.196683
37939		0.200071	-0.236182	-0.950889	-0.957415	0.159056	-0.240951	0.208153	0.958603	-0.194302
37940		0.201648	-0.234842	-0.950888	-0.956247	0.162894	-0.243015	0.211964	0.958287	-0.191720
37941		0.202329	-0.232956	-0.951207	-0.955555	0.165708	-0.243836	0.214426	0.958265	-0.189074
37942		0.202369	-0.230288	-0.951848	-0.955281	0.167567	-0.243639	0.215606	0.958587	-0.186079
37943		0.201194	-0.227057	-0.952873	-0.955499	0.168749	-0.241960	0.215735	0.959150	-0.183001
37944		0.198930	-0.223357	-0.954221	-0.956132	0.169407	-0.238982	0.215030	0.959903	-0.179859
37945		0.194851	-0.219610	-0.955931	-0.957110	0.170483	-0.234257	0.214415	0.960576	-0.176972
37946		0.189129	-0.215828	-0.957940	-0.958070	0.173287	-0.228197	0.215250	0.960932	-0.174005
37947		0.181157	-0.211807	-0.960375	-0.958699	0.179692	-0.220472	0.219270	0.960650	-0.170507
37948		0.171438	-0.207173	-0.963166	-0.958539	0.190801	-0.211655	0.227622	0.959518	-0.165873
37949		0.158781	-0.201819	-0.966466	-0.957465	0.207401	-0.200613	0.240934	0.957211	-0.160303
37950		0.143435	-0.195286	-0.970201	-0.955532	0.227900	-0.187139	0.257654	0.953900	-0.153913
37951		0.124729	-0.186780	-0.974452	-0.953333	0.249601	-0.169869	0.274952	0.950165	-0.146931
37952		0.103797	-0.175745	-0.978948	-0.952731	0.265000	-0.148591	0.285535	0.948098	-0.139931
37953		0.079929	-0.162248	-0.983507	-0.955524	0.268517	-0.121952	0.283875	0.949513	-0.133570
37954		0.053989	-0.147852	-0.987535	-0.961348	0.259707	-0.091440	0.269990	0.954302	-0.128116
37955		0.025645	-0.135131	-0.990496	-0.967399	0.246371	-0.058659	0.251956	0.959709	-0.124407
37956		-0.002965	-0.125233	-0.992123	-0.971639	0.234950	-0.026753	0.236450	0.963906	-0.122377
37957		-0.030505	-0.117431	-0.992612	-0.972998	0.230798	0.002597	0.228788	0.965889	-0.121301
37958		-0.052791	-0.107241	-0.992831	-0.971864	0.234059	0.026394	0.229550	0.966290	-0.116580
37959		-0.070171	-0.095622	-0.992941	-0.969282	0.241761	0.045217	0.235730	0.965613	-0.109649
37960		-0.084112	-0.083906	-0.992917	-0.966512	0.249312	0.060807	0.242444	0.964781	-0.102066
37961		-0.099632	-0.076510	-0.992078	-0.963669	0.255743	0.077056	0.247821	0.963713	-0.099210
37962		-0.117383	-0.072993	-0.990401	-0.960191	0.262900	0.094426	0.253484	0.962058	-0.100948
37963		-0.135436	-0.067931	-0.988455	-0.955479	0.272911	0.112162	0.262140	0.959638	-0.101868
37964		-0.153060	-0.061428	-0.986306	-0.950209	0.283285	0.129815	0.271432	0.957066	-0.101729
37965		-0.171993	-0.054524	-0.983588	-0.944014	0.294468	0.148749	0.281525	0.954105	-0.102118
37966		-0.190860	-0.048755	-0.980406	-0.937381	0.305500	0.167291	0.291358	0.950943	-0.104010
37967		-0.209730	-0.043892	-0.976774	-0.931327	0.313162	0.185900	0.297729	0.948685	-0.106557
37968		-0.227924	-0.039409	-0.972881	-0.926350	0.316507	0.204203	0.299876	0.947771	-0.108646
37969		-0.245326	-0.035061	-0.968807	-0.922340	0.316152	0.222118	0.298502	0.948060	-0.109898
37970		-0.261063	-0.030090	-0.964853	-0.919720	0.311330	0.239143	0.293191	0.949826	-0.108951
37971		-0.275603	-0.024770	-0.960952	-0.919070	0.299739	0.255865	0.281697	0.953700	-0.105374
37972		-0.288464	-0.019661	-0.957289	-0.919513	0.284473	0.271238	0.266990	0.958483	-0.100138
37973		-0.300288	-0.014672	-0.953736	-0.920144	0.267904	0.285590	0.251319	0.963334	-0.093949
37974		-0.310683	-0.010187	-0.950459	-0.920469	0.252647	0.298172	0.237093	0.967505	-0.087870
37975		-0.320191	-0.006484	-0.947331	-0.920558	0.238276	0.309511	0.223719	0.971176	-0.082263
37976		-0.328578	-0.003569	-0.944470	-0.920989	0.222838	0.319567	0.209323	0.974849	-0.076507
37977		-0.335833	-0.000258	-0.941921	-0.921724	0.206064	0.328576	0.194011	0.978539	-0.069441
